,accx,accy,accz,gyrox,gyroy,gyroz,heart rate
0,walk,walk,walk,walk,walk,walk,walk
1,-3.437683,-46.503162,36.05735,0.0,0.0,0.0,0.0
2,-3.437683,-46.503162,36.05735,0.0361084,-0.019116212,0.18266602,0.0
3,-2.8561525,-37.115788,29.03808,0.0361084,-0.019116212,0.18266602,0.0
4,-2.8561525,-37.115788,29.03808,-0.34727785,0.0053100586,0.20072022,0.0
5,-2.3971534,-29.874577,23.429989,-0.34727785,0.0053100586,0.20072022,0.0
6,-2.3971534,-29.874577,23.429989,-0.4088745,-0.0063720704,0.08283692,0.0
7,-1.903172,-24.071976,18.637459,-0.4088745,-0.0063720704,0.08283692,0.0
8,-1.903172,-24.071976,18.637459,-0.3164795,0.050976563,0.08920898,0.0
9,-1.5065341,-19.27975,14.666998,-0.3164795,0.050976563,0.08920898,0.0
10,-1.5065341,-19.27975,14.666998,-0.17416993,-0.004248047,0.08920898,0.0
11,-1.5065341,-19.27975,14.666998,-0.16354981,-0.043542482,0.070092775,0.0
12,-1.2406032,-15.389767,11.664177,-0.16354981,-0.043542482,0.070092775,0.0
13,-0.99847627,-12.321674,9.486786,-0.16354981,-0.043542482,0.070092775,0.0
14,-0.99847627,-12.321674,9.486786,-0.124255374,-0.0998291,0.053100586,0.0
15,-0.74599767,-9.958694,7.830105,-0.124255374,-0.0998291,0.053100586,0.0
16,-0.74599767,-9.958694,7.830105,-0.0053100586,-0.14337158,0.032922365,0.0
17,-0.508163,-8.124771,6.409935,-0.0053100586,-0.14337158,0.032922365,0.0
18,-0.508163,-8.124771,6.409935,0.05522461,-0.1720459,0.058410645,0.0
19,-0.31046104,-6.558033,5.044842,0.05522461,-0.1720459,0.058410645,0.0
20,-0.31046104,-6.558033,5.044842,0.06478272,-0.21027832,0.032922365,0.0
21,-0.14474344,-5.1436424,3.7935143,0.06478272,-0.21027832,0.032922365,0.0
22,-0.14474344,-5.1436424,3.7935143,-0.027612304,-0.19116211,0.070092775,0.0
23,-0.058482647,-3.9990234,2.9186096,-0.027612304,-0.19116211,0.070092775,0.0
24,-0.058482647,-3.9990234,2.9186096,-0.13168946,-0.17629395,0.093457036,0.0
25,-0.058482647,-3.9990234,2.9186096,-0.13168946,-0.17629395,0.093457036,95.0
26,-0.061678886,-3.1954842,2.4934196,-0.13168946,-0.17629395,0.093457036,95.0
27,-0.061678886,-3.1954842,2.4934196,-0.1178833,-0.16248779,0.107263185,95.0
28,-0.096645355,-2.6255646,2.2446632,-0.1178833,-0.16248779,0.107263185,95.0
29,-0.096645355,-2.6255646,2.2446632,-0.07434082,-0.1444336,0.13806152,95.0
30,-0.070895195,-2.1508904,1.9066544,-0.07434082,-0.1444336,0.13806152,95.0
31,-0.070895195,-2.1508904,1.9066544,-0.06478272,-0.1444336,0.124255374,95.0
32,0.028513432,-1.6841278,1.374382,-0.06478272,-0.1444336,0.124255374,95.0
33,0.028513432,-1.6841278,1.374382,-0.0541626,-0.14761963,0.12000733,95.0
34,0.11790371,-1.2993164,0.80077744,-0.0541626,-0.14761963,0.12000733,95.0
35,0.11790371,-1.2993164,0.80077744,-0.107263185,-0.12000733,0.14868164,95.0
36,0.1865716,-1.0768051,0.4616394,-0.107263185,-0.12000733,0.14868164,95.0
37,0.1865716,-1.0768051,0.4616394,-0.118945315,-0.06584473,0.22833252,95.0
38,0.14416695,-0.96100616,0.41114426,-0.118945315,-0.06584473,0.22833252,95.0
39,0.14416695,-0.96100616,0.41114426,-0.060534667,-0.078588866,0.23045655,95.0
40,0.04890299,-0.84981155,0.44454956,-0.060534667,-0.078588866,0.23045655,95.0
41,0.04890299,-0.84981155,0.44454956,-0.03186035,-0.10620117,0.31966552,95.0
42,-0.046351433,-0.47402954,0.2694702,-0.03186035,-0.10620117,0.31966552,95.0
43,-0.046351433,-0.47402954,0.2694702,-0.16992188,-0.46834716,0.39294434,95.0
44,0.08898091,-0.34846497,-0.1407013,-0.16992188,-0.46834716,0.39294434,95.0
45,0.08898091,-0.34846497,-0.1407013,-0.38444826,-0.21983643,-0.021240234,95.0
46,0.08898091,-0.34846497,-0.1407013,-0.2516968,-0.2888672,0.093457036,95.0
47,0.23200011,-0.6515732,-0.4222908,-0.2516968,-0.2888672,0.093457036,95.0
48,0.17677426,-0.6645317,-0.2724762,-0.2516968,-0.2888672,0.093457036,95.0
49,0.17677426,-0.6645317,-0.2724762,-0.22833252,-0.39506838,-0.0637207,95.0
50,0.21886086,-0.40689087,0.073158264,-0.22833252,-0.39506838,-0.0637207,95.0
51,0.21886086,-0.40689087,0.073158264,-0.31966552,-0.38657227,-0.007434082,95.0
52,0.21155119,-0.1798935,0.3047676,-0.31966552,-0.38657227,-0.007434082,95.0
53,0.21155119,-0.1798935,0.3047676,-0.47471926,-0.4439209,-0.04460449,95.0
54,0.18371868,-0.19947052,0.25830078,-0.47471926,-0.4439209,-0.04460449,95.0
55,0.18371868,-0.19947052,0.25830078,-0.47578126,-0.42692873,-0.015930176,95.0
56,0.083034515,-0.3070221,0.06728363,-0.47578126,-0.42692873,-0.015930176,95.0
57,0.083034515,-0.3070221,0.06728363,-0.5278198,-0.44073486,0.013806152,95.0
58,-0.0970366,-0.39757156,-0.0687561,-0.5278198,-0.44073486,0.013806152,95.0
59,-0.0970366,-0.39757156,-0.0687561,-0.5671143,-0.4800293,0.020178223,95.0
60,-0.17657948,-0.50034714,-0.10153961,-0.5671143,-0.4800293,0.020178223,95.0
61,-0.17657948,-0.50034714,-0.10153961,-0.61915284,-0.541626,0.025488282,95.0
62,-0.09744024,-0.62410736,-0.05275345,-0.61915284,-0.541626,0.025488282,95.0
63,-0.09744024,-0.62410736,-0.05275345,-0.56605226,-0.5564942,0.057348635,95.0
64,-0.09744024,-0.62410736,-0.05275345,-0.5140137,-0.5671143,0.13168946,95.0
65,-0.0070414543,-0.6100998,0.04141617,-0.5140137,-0.5671143,0.13168946,95.0
66,-0.008990288,-0.377594,0.11193085,-0.5140137,-0.5671143,0.13168946,95.0
67,-0.008990288,-0.377594,0.11193085,-0.66481936,-0.6064087,0.16142578,95.0
68,-0.034926653,-0.23125076,0.0735054,-0.66481936,-0.6064087,0.16142578,95.0
69,-0.034926653,-0.23125076,0.0735054,-0.7455322,-0.6531372,0.15186767,95.0
70,-0.0119867325,-0.33302307,-0.018051147,-0.7455322,-0.6531372,0.15186767,95.0
71,-0.0119867325,-0.33302307,-0.018051147,-0.7455322,-0.6796875,0.13062744,95.0
72,0.03383112,-0.48735428,-0.07004547,-0.7455322,-0.6796875,0.13062744,95.0
73,0.03383112,-0.48735428,-0.07004547,-0.7763306,-0.7763306,0.11469727,95.0
74,0.1580708,-0.53795624,-0.047554016,-0.7763306,-0.7763306,0.11469727,95.0
75,0.1580708,-0.53795624,-0.047554016,-0.727478,-0.87191164,0.087084964,95.0
76,0.40769434,-0.37152863,-0.0019111633,-0.727478,-0.87191164,0.087084964,95.0
77,0.40769434,-0.37152863,-0.0019111633,-0.85598147,-0.91757816,0.07646485,95.0
78,0.60810137,0.04788208,-0.10244751,-0.85598147,-0.91757816,0.07646485,95.0
79,0.60810137,0.04788208,-0.10244751,-1.3668091,-0.98873293,-0.009558106,95.0
80,0.69431806,0.5254631,-0.4164276,-1.3668091,-0.98873293,-0.009558106,95.0
81,0.69431806,0.5254631,-0.4164276,-2.4606812,-1.1469727,-0.16567384,95.0
82,0.69431806,0.5254631,-0.4164276,-3.2348878,-1.3381348,-0.40250245,95.0
83,0.78980494,0.36968994,-0.9422264,-3.2348878,-1.3381348,-0.40250245,95.0
84,0.94691944,-0.9059448,-1.6437836,-3.2348878,-1.3381348,-0.40250245,95.0
85,0.94691944,-0.9059448,-1.6437836,-2.631665,-1.5038086,-0.60216063,95.0
86,1.0714638,-2.0688248,-2.1090813,-2.631665,-1.5038086,-0.60216063,95.0
87,1.0714638,-2.0688248,-2.1090813,-2.182434,-1.7512573,-0.7126099,95.0
88,1.1435359,-1.7691841,-2.0395355,-2.182434,-1.7512573,-0.7126099,95.0
89,1.1435359,-1.7691841,-2.0395355,-2.6783936,-2.1346436,-0.88040775,95.0
90,1.2725558,-0.46367645,-1.6618423,-2.6783936,-2.1346436,-0.88040775,95.0
91,1.2725558,-0.46367645,-1.6618423,-4.069629,-2.532898,-0.98873293,95.0
92,1.33605,0.39055634,-1.2802429,-4.069629,-2.532898,-0.98873293,95.0
93,1.33605,0.39055634,-1.2802429,-5.221912,-2.9577026,-1.1108643,95.0
94,1.2818772,-0.1371994,-1.079113,-5.221912,-2.9577026,-1.1108643,95.0
95,1.2818772,-0.1371994,-1.079113,-5.0796022,-3.42074,-1.4092896,95.0
96,1.5864027,-1.3565369,-0.8755951,-5.0796022,-3.42074,-1.4092896,95.0
97,1.5864027,-1.3565369,-0.8755951,-4.177954,-3.9177613,-1.9148072,95.0
98,2.5177915,-2.1116333,-0.24745941,-4.177954,-3.9177613,-1.9148072,95.0
99,2.5177915,-2.1116333,-0.24745941,-3.2837403,-4.270349,-2.3810303,95.0
100,3.456604,-1.8452873,0.5624428,-3.2837403,-4.270349,-2.3810303,95.0
101,3.456604,-1.8452873,0.5624428,-2.6582153,-4.398853,-2.456433,95.0
102,3.811133,-0.4866066,0.76246643,-2.6582153,-4.398853,-2.456433,95.0
103,3.811133,-0.4866066,0.76246643,-2.3757203,-4.6547976,-2.7591064,95.0
104,3.9090748,0.83779144,0.51948166,-2.3757203,-4.6547976,-2.7591064,95.0
105,3.9090748,0.83779144,0.51948166,-2.167566,-4.9542847,-2.9715087,95.0
106,4.6466694,0.7429886,0.49717712,-2.167566,-4.9542847,-2.9715087,95.0
107,4.6466694,0.7429886,0.49717712,-2.264209,-5.1900516,-3.163733,95.0
108,6.14142,-0.17286682,0.44256592,-2.264209,-5.1900516,-3.163733,95.0
109,6.14142,-0.17286682,0.44256592,-2.2111084,-4.7333865,-3.3113525,95.0
110,6.7557263,-0.3514862,0.10633469,-2.2111084,-4.7333865,-3.3113525,95.0
111,6.7557263,-0.3514862,0.10633469,-2.0677369,-4.3160157,-3.3602052,95.0
112,5.7120514,0.39333344,-0.10498047,-2.0677369,-4.3160157,-3.3602052,95.0
113,5.7120514,0.39333344,-0.10498047,-2.3746583,-4.172644,-3.2773683,95.0
114,4.3127193,0.97223663,0.07715988,-2.3746583,-4.172644,-3.2773683,95.0
115,4.3127193,0.97223663,0.07715988,-2.991687,-4.081311,-3.256128,95.0
116,3.3612957,0.8864212,0.5086746,-2.991687,-4.081311,-3.256128,95.0
117,3.3612957,0.8864212,0.5086746,-3.3676393,-4.0239625,-3.3145387,95.0
118,2.7958603,0.42505646,0.90281296,-3.3676393,-4.0239625,-3.3145387,95.0
119,2.7958603,0.42505646,0.90281296,-3.438794,-4.043079,-3.531189,95.0
120,2.6341362,-0.1557312,1.1256332,-3.438794,-4.043079,-3.531189,95.0
121,2.6341362,-0.1557312,1.1256332,-3.2996705,-4.054761,-3.725537,95.0
122,2.6341362,-0.1557312,1.1256332,-3.2996705,-4.054761,-3.725537,96.0
123,2.7733364,-0.6981659,1.1000175,-3.2996705,-4.054761,-3.725537,96.0
124,2.7733364,-0.6981659,1.1000175,-3.1361206,-3.9368775,-3.8317382,96.0
125,2.3476238,-1.2486229,1.1372414,-3.1361206,-3.9368775,-3.8317382,96.0
126,2.3476238,-1.2486229,1.1372414,-3.787134,-3.5704834,-4.1099854,96.0
127,0.14421272,-1.5612755,1.3283844,-3.787134,-3.5704834,-4.1099854,96.0
128,0.14421272,-1.5612755,1.3283844,-3.8699708,-3.2200196,-4.3999147,96.0
129,-2.8240223,-2.1066856,1.0073128,-3.8699708,-3.2200196,-4.3999147,96.0
130,-2.8240223,-2.1066856,1.0073128,-2.35979,-1.8765748,-2.8515015,96.0
131,-6.0727434,-3.0393906,0.5862808,-2.35979,-1.8765748,-2.8515015,96.0
132,-6.0727434,-3.0393906,0.5862808,-0.7189819,-0.78376466,-3.1626709,96.0
133,-9.12935,-2.5682907,0.77295685,-0.7189819,-0.78376466,-3.1626709,96.0
134,-9.12935,-2.5682907,0.77295685,-0.77739257,-0.77739257,-2.6210449,96.0
135,-10.059437,-0.90003204,1.0066948,-0.77739257,-0.77739257,-2.6210449,96.0
136,-10.059437,-0.90003204,1.0066948,-1.081128,-0.68499756,-1.7926759,96.0
137,-8.547806,0.3173294,0.8894615,-1.081128,-0.68499756,-1.7926759,96.0
138,-8.547806,0.3173294,0.8894615,-1.2128174,-0.42161867,-1.2075074,96.0
139,-6.2698607,0.80646515,0.57328796,-1.2128174,-0.42161867,-1.2075074,96.0
140,-6.2698607,0.80646515,0.57328796,-1.6131958,-0.08071289,-0.727478,96.0
141,-4.5830393,0.8340149,0.30303955,-1.6131958,-0.08071289,-0.727478,96.0
142,-4.5830393,0.8340149,0.30303955,-2.2790773,0.15717773,-0.34727785,96.0
143,-3.5273204,0.5513687,0.28522873,-2.2790773,0.15717773,-0.34727785,96.0
144,-3.5273204,0.5513687,0.28522873,-2.9789429,0.28780517,-0.098767094,96.0
145,-2.680633,-0.007904053,0.57670593,-2.9789429,0.28780517,-0.098767094,96.0
146,-2.680633,-0.007904053,0.57670593,-3.4175537,0.4598511,0.118945315,96.0
147,-2.0843747,-0.72537994,1.0153084,-3.4175537,0.4598511,0.118945315,96.0
148,-2.0843747,-0.72537994,1.0153084,-3.5970337,0.6977417,0.30161133,96.0
149,-2.0969553,-1.3795319,1.354557,-3.5970337,0.6977417,0.30161133,96.0
150,-2.0969553,-1.3795319,1.354557,-3.5524292,0.7699585,0.44710693,96.0
151,-2.5307627,-1.7290497,1.4998436,-3.5524292,0.7699585,0.44710693,96.0
152,-2.5307627,-1.7290497,1.4998436,-3.2370117,0.6956177,0.5671143,96.0
153,-2.7437873,-1.6579819,1.4642181,-3.2370117,0.6956177,0.5671143,96.0
154,-2.7437873,-1.6579819,1.4642181,-2.6815796,0.5734863,0.6680054,96.0
155,-2.502171,-1.365303,1.307106,-2.6815796,0.5734863,0.6680054,96.0
156,-2.502171,-1.365303,1.307106,-2.0624268,0.4428589,0.7827026,96.0
157,-1.9202671,-1.1843796,1.1662407,-2.0624268,0.4428589,0.7827026,96.0
158,-1.9202671,-1.1843796,1.1662407,-1.3391968,0.25700685,0.86553955,96.0
159,-1.0853834,-1.0714264,1.1916084,-1.3391968,0.25700685,0.86553955,96.0
160,-1.0853834,-1.0714264,1.1916084,-0.4704712,0.12000733,0.85598147,96.0
161,-0.059456825,-0.6995392,1.3318024,-0.4704712,0.12000733,0.85598147,96.0
162,-0.059456825,-0.6995392,1.3318024,0.3164795,0.047790527,0.7742066,96.0
163,0.95120144,-0.05368805,1.2947502,0.3164795,0.047790527,0.7742066,96.0
164,0.95120144,-0.05368805,1.2947502,0.72641605,0.0998291,0.7147339,96.0
165,1.5833368,0.66145325,0.85050964,0.72641605,0.0998291,0.7147339,96.0
166,1.5833368,0.66145325,0.85050964,0.60216063,0.32285157,0.80181885,96.0
167,1.6238105,1.295044,0.18972015,0.60216063,0.32285157,0.80181885,96.0
168,1.6238105,1.295044,0.18972015,-0.023364259,0.40037844,0.996167,96.0
169,1.5244024,1.748558,-0.3380432,-0.023364259,0.40037844,0.996167,96.0
170,1.5244024,1.748558,-0.3380432,-0.90695804,0.41418457,1.2903442,96.0
171,1.7728424,1.8939285,-0.6189575,-0.90695804,0.41418457,1.2903442,96.0
172,1.7728424,1.8939285,-0.6189575,-1.7512573,0.42799073,1.7565674,96.0
173,2.2035646,1.465683,-0.6004257,-1.7512573,0.42799073,1.7565674,96.0
174,2.2035646,1.465683,-0.6004257,-2.1962402,0.26550293,2.1006591,96.0
175,2.7554054,0.45825195,-0.28908157,-2.1962402,0.26550293,2.1006591,96.0
176,2.7554054,0.45825195,-0.28908157,-2.2036743,-0.06796875,2.2461548,96.0
177,3.5291166,-0.7924652,0.22206879,-2.2036743,-0.06796875,2.2461548,96.0
178,3.5291166,-0.7924652,0.22206879,-1.7894897,-0.36320803,2.1378295,96.0
179,3.8682399,-1.8063583,0.9881058,-1.7894897,-0.36320803,2.1378295,96.0
180,3.8682399,-1.8063583,0.9881058,-1.0375855,-0.725354,1.8468384,96.0
181,2.8447018,-2.3460617,1.9082832,-1.0375855,-0.725354,1.8468384,96.0
182,2.8447018,-2.3460617,1.9082832,0.19541016,-1.1448487,1.4984986,96.0
183,0.67102504,-2.4029083,2.206108,0.19541016,-1.1448487,1.4984986,96.0
184,0.67102504,-2.4029083,2.206108,1.9233032,-1.269104,1.3115845,96.0
185,-1.2247401,-1.6758499,1.0468559,1.9233032,-1.269104,1.3115845,96.0
186,-1.2247401,-1.6758499,1.0468559,4.056885,-1.2967163,1.3360108,96.0
187,-1.5458689,-0.105537415,-1.2541924,4.056885,-1.2967163,1.3360108,96.0
188,-1.5458689,-0.105537415,-1.2541924,6.0715213,-1.5632813,1.7353271,96.0
189,-0.22316968,1.6315231,-3.5414162,6.0715213,-1.5632813,1.7353271,96.0
190,-0.22316968,1.6315231,-3.5414162,7.4829345,-1.4698242,1.3827393,96.0
191,1.7280195,3.2017975,-5.152008,7.4829345,-1.4698242,1.3827393,96.0
192,1.7280195,3.2017975,-5.152008,7.8280883,-0.6881836,1.3933594,96.0
193,2.3643248,4.5166245,-5.347084,7.8280883,-0.6881836,1.3933594,96.0
194,2.3643248,4.5166245,-5.347084,6.2892337,0.22727051,1.537793,96.0
195,1.3943651,4.9711227,-3.9685478,6.2892337,0.22727051,1.537793,96.0
196,1.3943651,4.9711227,-3.9685478,4.700464,0.35152587,1.4135376,96.0
197,0.6771622,4.4073296,-2.5304298,4.700464,0.35152587,1.4135376,96.0
198,0.6771622,4.4073296,-2.5304298,3.7478395,0.74022216,1.722583,96.0
199,0.34989643,3.4825668,-1.814331,3.7478395,0.74022216,1.722583,96.0
200,0.34989643,3.4825668,-1.814331,1.8585205,0.9483765,1.4783204,96.0
201,-0.2693994,2.5722198,-1.5252304,1.8585205,0.9483765,1.4783204,96.0
202,-0.2693994,2.5722198,-1.5252304,-0.039294433,1.0343994,1.4793824,96.0
203,-0.5936935,1.488842,-1.4118462,-0.039294433,1.0343994,1.4793824,96.0
204,-0.5936935,1.488842,-1.4118462,-0.99935305,1.1108643,1.629126,96.0
205,-0.42794538,0.35599136,-1.2075996,-0.99935305,1.1108643,1.629126,96.0
206,-0.42794538,0.35599136,-1.2075996,-1.2744141,1.2298096,1.6206299,96.0
207,-0.119431496,-0.43634796,-0.85798645,-1.2744141,1.2298096,1.6206299,96.0
208,-0.119431496,-0.43634796,-0.85798645,-1.084314,1.2521118,1.5473511,96.0
209,0.17480397,-0.80153275,-0.5166168,-1.084314,1.2521118,1.5473511,96.0
210,0.17480397,-0.80153275,-0.5166168,-0.85385746,1.2383057,1.3721192,96.0
211,0.4640863,-0.83952713,-0.28388977,-0.85385746,1.2383057,1.3721192,96.0
212,0.4640863,-0.83952713,-0.28388977,-0.6223389,1.1883911,1.171399,96.0
213,0.7653365,-0.63153076,-0.109451294,-0.6223389,1.1883911,1.171399,96.0
214,0.7653365,-0.63153076,-0.109451294,-0.5140137,1.1204224,0.99298096,96.0
215,1.1630504,-0.3096161,0.120960236,-0.5140137,1.1204224,0.99298096,96.0
216,1.1630504,-0.3096161,0.120960236,-0.48640138,1.0216553,0.86978763,96.0
217,1.6555991,-0.05783844,0.35434723,-0.48640138,1.0216553,0.86978763,96.0
218,1.6555991,-0.05783844,0.35434723,-0.59897465,0.90695804,0.7051758,96.0
219,2.150285,0.06599426,0.43807983,-0.59897465,0.90695804,0.7051758,96.0
220,2.150285,0.06599426,0.43807983,-0.7965088,0.7890747,0.50233155,96.0
221,2.3198862,0.07503891,0.40599442,-0.7965088,0.7890747,0.50233155,96.0
222,2.3198862,0.07503891,0.40599442,-1.0184692,0.7604004,0.22939454,96.0
223,1.6343637,-0.018287659,0.54382324,-1.0184692,0.7604004,0.22939454,96.0
224,1.6343637,-0.018287659,0.54382324,-1.2117554,0.64995116,-0.08496094,96.0
225,0.67284775,-0.03289032,0.9024315,-1.2117554,0.64995116,-0.08496094,96.0
226,0.67284775,-0.03289032,0.9024315,-1.5983276,0.42161867,-0.4343628,96.0
227,0.4507661,0.06704712,1.0057716,-1.5983276,0.42161867,-0.4343628,96.0
228,0.4507661,0.06704712,1.0057716,-2.2227905,0.38657227,-0.84536135,96.0
229,0.1026783,-0.10128021,0.7490387,-2.2227905,0.38657227,-0.84536135,96.0
230,0.1026783,-0.10128021,0.7490387,-2.8270752,0.41843262,-1.2436157,96.0
231,-1.3178205,-0.6610031,0.7854233,-2.8270752,0.41843262,-1.2436157,96.0
232,-1.3178205,-0.6610031,0.7854233,-3.178601,0.26868898,-1.5707153,96.0
233,-1.3178205,-0.6610031,0.7854233,-3.178601,0.26868898,-1.5707153,95.0
234,-2.7677574,-1.3317108,1.6057892,-3.178601,0.26868898,-1.5707153,95.0
235,-2.7677574,-1.3317108,1.6057892,-2.9555786,-0.09239502,-1.812854,95.0
236,-2.7644746,-1.835743,2.7141,-2.9555786,-0.09239502,-1.812854,95.0
237,-2.7644746,-1.835743,2.7141,-2.2323487,-0.42374268,-2.001892,95.0
238,-1.3491774,-1.9133682,2.9565086,-2.2323487,-0.42374268,-2.001892,95.0
239,-1.3491774,-1.9133682,2.9565086,-1.4326538,-0.44604492,-2.1112792,95.0
240,-0.12781596,-1.5787163,2.0144157,-1.4326538,-0.44604492,-2.1112792,95.0
241,-0.12781596,-1.5787163,2.0144157,-0.88253176,-0.39613038,-2.252527,95.0
242,-0.14424491,-1.1180038,0.8223114,-0.88253176,-0.39613038,-2.252527,95.0
243,-0.14424491,-1.1180038,0.8223114,-0.60322267,-0.31223145,-2.340674,95.0
244,-0.882205,-0.6673279,0.27819824,-0.60322267,-0.31223145,-2.340674,95.0
245,-0.882205,-0.6673279,0.27819824,-0.4885254,-0.2442627,-2.182434,95.0
246,-1.4288354,-0.27209473,0.35621262,-0.4885254,-0.2442627,-2.182434,95.0
247,-1.4288354,-0.27209473,0.35621262,-0.57242435,-0.17841797,-1.9583496,95.0
248,-1.5432148,-0.04434967,0.53993607,-0.57242435,-0.17841797,-1.9583496,95.0
249,-1.5432148,-0.04434967,0.53993607,-0.8007569,-0.08496094,-1.7650635,95.0
250,-1.4596573,-0.11042023,0.6571808,-0.8007569,-0.08496094,-1.7650635,95.0
251,-1.4596573,-0.11042023,0.6571808,-0.9855469,-0.013806152,-1.5855836,95.0
252,-1.4739027,-0.4791336,0.75920105,-0.9855469,-0.013806152,-1.5855836,95.0
253,-1.4739027,-0.4791336,0.75920105,-1.0354614,0.09239502,-1.4369019,95.0
254,-1.7583702,-0.8847122,0.85012436,-1.0354614,0.09239502,-1.4369019,95.0
255,-1.7583702,-0.8847122,0.85012436,-0.9791748,0.1709839,-1.3434448,95.0
256,-2.2053657,-1.0428047,0.9288025,-0.9791748,0.1709839,-1.3434448,95.0
257,-2.2053657,-1.0428047,0.9288025,-0.8889038,0.19222413,-1.2712281,95.0
258,-2.4210553,-0.9540558,0.99287033,-0.8889038,0.19222413,-1.2712281,95.0
259,-2.4210553,-0.9540558,0.99287033,-0.9324463,0.10407715,-1.2829102,95.0
260,-2.0304966,-0.7688217,0.97808456,-0.9324463,0.10407715,-1.2829102,95.0
261,-2.0304966,-0.7688217,0.97808456,-1.265918,0.0063720704,-1.2276856,95.0
262,-1.0210282,-0.67980194,0.8215904,-1.265918,0.0063720704,-1.2276856,95.0
263,-1.0210282,-0.67980194,0.8215904,-1.2999023,0.057348635,-1.1044922,95.0
264,0.03650999,-0.7982483,0.5465317,-1.2999023,0.057348635,-1.1044922,95.0
265,0.03650999,-0.7982483,0.5465317,-1.5176147,0.22727051,-1.1002442,95.0
266,0.6193936,-1.0395508,0.17416382,-1.5176147,0.22727051,-1.1002442,95.0
267,0.6193936,-1.0395508,0.17416382,-1.4708862,0.28355715,-1.0673218,95.0
268,0.8650095,-1.3315659,-0.021411896,-1.4708862,0.28355715,-1.0673218,95.0
269,0.8650095,-1.3315659,-0.021411896,-1.9710938,0.11469727,-1.1968873,95.0
270,1.3785921,-1.5975113,0.08921814,-1.9710938,0.11469727,-1.1968873,95.0
271,1.3785921,-1.5975113,0.08921814,-2.0932252,0.0021240234,-1.1448487,95.0
272,1.99063,-1.9888,0.42838287,-2.0932252,0.0021240234,-1.1448487,95.0
273,1.99063,-1.9888,0.42838287,-2.3279297,0.040356446,-1.2372437,95.0
274,1.9237418,-2.5386505,0.80793,-2.3279297,0.040356446,-1.2372437,95.0
275,1.9237418,-2.5386505,0.80793,-2.2142944,-0.16036378,-1.363623,95.0
276,1.828825,-3.0645523,0.94872284,-2.2142944,-0.16036378,-1.363623,95.0
277,1.828825,-3.0645523,0.94872284,-1.7055908,-0.47896728,-1.4315919,95.0
278,2.3250108,-3.3629227,0.8266907,-1.7055908,-0.47896728,-1.4315919,95.0
279,2.3250108,-3.3629227,0.8266907,-0.9855469,-0.41524658,-1.3147706,95.0
280,1.9864857,-3.2760086,0.61338806,-0.9855469,-0.41524658,-1.3147706,95.0
281,1.9864857,-3.2760086,0.61338806,0.014868164,-0.115759276,-1.0237793,95.0
282,-0.092366576,-2.5645828,0.258152,0.014868164,-0.115759276,-1.0237793,95.0
283,-0.092366576,-2.5645828,0.258152,0.903772,0.18054199,-0.52888185,95.0
284,-2.605888,-1.2783966,-0.21230316,0.903772,0.18054199,-0.52888185,95.0
285,-2.605888,-1.2783966,-0.21230316,1.8680786,0.06903076,0.26762697,95.0
286,-3.5141537,0.09220123,-0.61546326,1.8680786,0.06903076,0.26762697,95.0
287,-3.5141537,0.09220123,-0.61546326,2.981067,-0.30373535,1.0227174,95.0
288,-2.0657785,1.2103729,-1.0443573,2.981067,-0.30373535,1.0227174,95.0
289,-2.0657785,1.2103729,-1.0443573,4.168396,-0.33134767,1.4443359,95.0
290,0.25877854,2.2723389,-1.5771484,4.168396,-0.33134767,1.4443359,95.0
291,0.25877854,2.2723389,-1.5771484,4.8395877,0.04991455,1.8691406,95.0
292,1.3798866,3.4649048,-1.8339005,4.8395877,0.04991455,1.8691406,95.0
293,1.3798866,3.4649048,-1.8339005,3.8412964,0.43011475,2.1293335,95.0
294,1.0801178,4.4698334,-1.4469643,3.8412964,0.43011475,2.1293335,95.0
295,1.0801178,4.4698334,-1.4469643,2.2323487,0.6435791,2.4022706,95.0
296,0.46514404,4.5634995,-0.6948166,2.2323487,0.6435791,2.4022706,95.0
297,0.46514404,4.5634995,-0.6948166,1.4751343,0.6701294,3.0532837,95.0
298,-0.093753874,3.6091995,-0.110126495,1.4751343,0.6701294,3.0532837,95.0
299,-0.093753874,3.6091995,-0.110126495,0.94625247,0.63826907,3.079834,95.0
300,-0.5683381,2.5151215,0.012714386,0.94625247,0.63826907,3.079834,95.0
301,-0.5683381,2.5151215,0.012714386,0.32603762,0.52250975,3.0331056,95.0
302,-0.6209913,1.7626572,-0.24871826,0.32603762,0.52250975,3.0331056,95.0
303,-0.6209913,1.7626572,-0.24871826,-0.004248047,0.45772704,3.1308105,95.0
304,-0.22870222,1.2113686,-0.56352615,-0.004248047,0.45772704,3.1308105,95.0
305,-0.22870222,1.2113686,-0.56352615,0.1274414,0.41949463,3.085144,95.0
306,0.22643763,0.82712555,-0.67099,0.1274414,0.41949463,3.085144,95.0
307,0.22643763,0.82712555,-0.67099,0.47896728,0.42055663,2.8398194,95.0
308,0.60726094,0.70162964,-0.64816666,0.47896728,0.42055663,2.8398194,95.0
309,0.60726094,0.70162964,-0.64816666,0.77314454,0.3993164,2.5307739,95.0
310,0.97925365,0.7603035,-0.5577431,0.77314454,0.3993164,2.5307739,95.0
311,0.97925365,0.7603035,-0.5577431,0.8963379,0.42268068,2.2015502,95.0
312,1.3351119,0.8652954,-0.35343552,0.8963379,0.42268068,2.2015502,95.0
313,1.3351119,0.8652954,-0.35343552,0.8400513,0.4619751,1.8500245,95.0
314,1.6966906,0.9521103,-0.14877701,0.8400513,0.4619751,1.8500245,95.0
315,1.6966906,0.9521103,-0.14877701,0.5957886,0.4630371,1.4677002,95.0
316,2.0778236,1.0040741,-0.025772095,0.5957886,0.4630371,1.4677002,95.0
317,2.0778236,1.0040741,-0.025772095,0.2347046,0.4364868,1.1618408,95.0
318,2.5393343,0.9481659,0.08972168,0.2347046,0.4364868,1.1618408,95.0
319,2.5393343,0.9481659,0.08972168,-0.013806152,0.42055663,0.85385746,95.0
320,2.7095804,0.82076263,0.14457703,-0.013806152,0.42055663,0.85385746,95.0
321,2.7095804,0.82076263,0.14457703,-0.2548828,0.631897,0.542688,95.0
322,1.827198,0.7465515,0.13304138,-0.2548828,0.631897,0.542688,95.0
323,1.827198,0.7465515,0.13304138,-0.66588134,0.7327881,0.2081543,95.0
324,1.827198,0.7465515,0.13304138,-0.66588134,0.7327881,0.2081543,95.0
325,0.60954905,0.70137787,0.075805664,-0.66588134,0.7327881,0.2081543,95.0
326,0.60954905,0.70137787,0.075805664,-1.2860962,0.51932377,-0.15930176,95.0
327,0.40848875,0.39207458,-0.09077072,-1.2860962,0.51932377,-0.15930176,95.0
328,0.40848875,0.39207458,-0.09077072,-1.8372803,0.48109132,-0.62764895,95.0
329,0.38816786,-0.3770523,-0.024913788,-1.8372803,0.48109132,-0.62764895,95.0
330,0.38816786,-0.3770523,-0.024913788,-1.9456055,0.4598511,-1.1490967,95.0
331,-0.71696806,-1.3211632,0.62737274,-1.9456055,0.4598511,-1.1490967,95.0
332,-0.71696806,-1.3211632,0.62737274,-1.6482422,0.24107666,-1.5823975,95.0
333,-2.1318264,-1.9451599,1.5601273,-1.6482422,0.24107666,-1.5823975,95.0
334,-2.1318264,-1.9451599,1.5601273,-0.97280276,-0.13168946,-1.8744507,95.0
335,-2.4448166,-1.9120979,1.9674263,-0.97280276,-0.13168946,-1.8744507,95.0
336,-2.4448166,-1.9120979,1.9674263,-0.09133301,-0.42268068,-2.0475585,95.0
337,-1.5390687,-1.2297745,1.4215355,-0.09133301,-0.42268068,-2.0475585,95.0
338,-1.5390687,-1.2297745,1.4215355,0.6202149,-0.5586182,-2.0974731,95.0
339,-0.4776051,-0.31365204,0.37483597,0.6202149,-0.5586182,-2.0974731,95.0
340,-0.4776051,-0.31365204,0.37483597,0.815625,-0.5479981,-2.1834962,95.0
341,-0.08846831,0.30554962,-0.45913696,0.815625,-0.5479981,-2.1834962,95.0
342,-0.08846831,0.30554962,-0.45913696,0.5331299,-0.4078125,-2.2737672,95.0
343,-0.4067855,0.4863701,-0.7450447,0.5331299,-0.4078125,-2.2737672,95.0
344,-0.4067855,0.4863701,-0.7450447,-0.026550293,-0.26975098,-2.2450929,95.0
345,-1.0069835,0.41610718,-0.58807755,-0.026550293,-0.26975098,-2.2450929,95.0
346,-1.0069835,0.41610718,-0.58807755,-0.7126099,-0.118945315,-2.0995972,95.0
347,-1.5037436,0.20456696,-0.22613907,-0.7126099,-0.118945315,-2.0995972,95.0
348,-1.5037436,0.20456696,-0.22613907,-1.2574219,-0.010620117,-1.8319702,95.0
349,-1.7996746,-0.18321991,0.14693451,-1.2574219,-0.010620117,-1.8319702,95.0
350,-1.7996746,-0.18321991,0.14693451,-1.4390259,0.08071289,-1.5823975,95.0
351,-2.0354307,-0.745697,0.45270538,-1.4390259,0.08071289,-1.5823975,95.0
352,-2.0354307,-0.745697,0.45270538,-1.351941,0.11682129,-1.4528321,95.0
353,-2.2082396,-1.2770615,0.6750183,-1.351941,0.11682129,-1.4528321,95.0
354,-2.2082396,-1.2770615,0.6750183,-1.5006226,0.0541626,-1.5229248,95.0
355,-2.0668602,-1.5685501,0.80426025,-1.5006226,0.0541626,-1.5229248,95.0
356,-2.0668602,-1.5685501,0.80426025,-1.5271729,-0.020178223,-1.3062744,95.0
357,-1.5942597,-1.68013,0.8336792,-1.5271729,-0.020178223,-1.3062744,95.0
358,-1.5942597,-1.68013,0.8336792,-1.273352,-0.015930176,-1.3986695,95.0
359,-0.94078875,-1.7437744,0.70977783,-1.273352,-0.015930176,-1.3986695,95.0
360,-0.94078875,-1.7437744,0.70977783,-0.8209351,0.043542482,-1.536731,95.0
361,-0.34978676,-1.7626495,0.4825821,-0.8209351,0.043542482,-1.536731,95.0
362,-0.34978676,-1.7626495,0.4825821,-0.31435546,0.070092775,-1.5739014,95.0
363,-0.123677015,-1.6019669,0.32669067,-0.31435546,0.070092775,-1.5739014,95.0
364,-0.123677015,-1.6019669,0.32669067,-0.21134034,0.046728518,-1.7109009,95.0
365,-0.09296012,-1.2622757,0.22489929,-0.21134034,0.046728518,-1.7109009,95.0
366,-0.09296012,-1.2622757,0.22489929,0.0063720704,-0.052038576,-1.6546143,95.0
367,0.16150832,-0.99103546,0.19968033,0.0063720704,-0.052038576,-1.6546143,95.0
368,0.16150832,-0.99103546,0.19968033,-0.07965088,-0.1731079,-1.6588624,95.0
369,0.72909683,-0.8578415,0.28518677,-0.07965088,-0.1731079,-1.6588624,95.0
370,0.72909683,-0.8578415,0.28518677,-0.33878174,-0.3079834,-1.6248779,95.0
371,1.2583386,-0.98106384,0.33882904,-0.33878174,-0.3079834,-1.6248779,95.0
372,1.2583386,-0.98106384,0.33882904,-0.59260255,-0.3164795,-1.4783204,95.0
373,1.4629087,-1.2890701,0.26873398,-0.59260255,-0.3164795,-1.4783204,95.0
374,1.4629087,-1.2890701,0.26873398,-0.6956177,-0.47684327,-1.269104,95.0
375,1.4582053,-1.3729706,0.21799088,-0.6956177,-0.47684327,-1.269104,95.0
376,1.4582053,-1.3729706,0.21799088,-0.6680054,-0.62552494,-1.173523,95.0
377,2.6869256,-1.7081528,0.11097717,-0.6680054,-0.62552494,-1.173523,95.0
378,2.6869256,-1.7081528,0.11097717,-0.31329346,-0.42055663,-0.67437744,95.0
379,2.4328413,-1.5573349,0.12981033,-0.31329346,-0.42055663,-0.67437744,95.0
380,2.4328413,-1.5573349,0.12981033,-0.038232423,-0.22514649,-0.47365722,95.0
381,0.33094108,-1.3776932,-0.02205658,-0.038232423,-0.22514649,-0.47365722,95.0
382,0.33094108,-1.3776932,-0.02205658,0.91120607,0.19222413,0.24744873,95.0
383,-0.77730036,-0.8245392,-0.26601028,0.91120607,0.19222413,0.24744873,95.0
384,-0.77730036,-0.8245392,-0.26601028,1.263794,0.16461182,0.53737795,95.0
385,-2.3080952,0.32904053,-1.1756744,1.263794,0.16461182,0.53737795,95.0
386,-2.3080952,0.32904053,-1.1756744,2.6614015,-0.115759276,1.3668091,95.0
387,-1.4669962,0.9941406,-1.4857025,2.6614015,-0.115759276,1.3668091,95.0
388,-1.4669962,0.9941406,-1.4857025,3.1191285,-0.053100586,1.5707153,95.0
389,0.62667155,2.2473526,-2.1471443,3.1191285,-0.053100586,1.5707153,95.0
390,0.62667155,2.2473526,-2.1471443,3.9230714,0.44923097,1.9530395,95.0
391,0.87554383,2.7334747,-2.0915565,3.9230714,0.44923097,1.9530395,95.0
392,0.87554383,2.7334747,-2.0915565,3.9071412,0.6149048,2.066675,95.0
393,0.08706832,4.018509,-1.1282616,3.9071412,0.6149048,2.066675,95.0
394,0.08706832,4.018509,-1.1282616,2.8674316,0.9228882,2.5721924,95.0
395,-0.2453478,3.9268265,-0.76530457,2.8674316,0.9228882,2.5721924,95.0
396,-0.2453478,3.9268265,-0.76530457,2.1781862,0.95793456,2.7304323,95.0
397,-1.1958144,3.694191,0.14826584,2.1781862,0.95793456,2.7304323,95.0
398,-1.1958144,3.694191,0.14826584,0.22089843,0.7986328,3.2019653,95.0
399,-0.78824335,2.8461113,0.122104645,0.22089843,0.7986328,3.2019653,95.0
400,-0.78824335,2.8461113,0.122104645,0.11363526,0.6680054,3.3071046,95.0
401,-0.28219378,1.2244263,-0.40549088,0.11363526,0.6680054,3.3071046,95.0
402,-0.28219378,1.2244263,-0.40549088,0.50445557,0.49383545,3.3209107,95.0
403,0.18648863,0.79867935,-0.61400604,0.50445557,0.49383545,3.3209107,95.0
404,0.18648863,0.79867935,-0.61400604,0.6786255,0.44816896,3.2178955,95.0
405,0.61818504,0.46681213,-0.907074,0.6786255,0.44816896,3.2178955,95.0
406,0.61818504,0.46681213,-0.907074,1.0790039,0.3727661,2.9768188,95.0
407,1.0466964,0.41746902,-0.99391174,1.0790039,0.3727661,2.9768188,95.0
408,1.0466964,0.41746902,-0.99391174,1.4677002,0.3993164,2.6008668,95.0
409,1.4330603,0.51727295,-0.9844589,1.4677002,0.3993164,2.6008668,95.0
410,1.4330603,0.51727295,-0.9844589,1.6694825,0.4630371,2.1611938,95.0
411,1.6833622,0.7600975,-0.96718216,1.6694825,0.4630371,2.1611938,95.0
412,1.6833622,0.7600975,-0.96718216,1.5632813,0.5479981,1.7002808,95.0
413,2.0305154,1.2246323,-0.9558754,1.5632813,0.5479981,1.7002808,95.0
414,2.0305154,1.2246323,-0.9558754,0.8230591,0.5533081,1.0556396,95.0
415,1.9869246,1.1725426,-0.83721924,0.8230591,0.5533081,1.0556396,95.0
416,1.9869246,1.1725426,-0.83721924,0.56605226,0.52675784,0.8814697,95.0
417,2.4317274,1.1408653,-0.62768555,0.56605226,0.52675784,0.8814697,95.0
418,2.4317274,1.1408653,-0.62768555,0.14124756,0.4959595,0.52888185,95.0
419,2.5863485,0.8922119,-0.30812836,0.14124756,0.4959595,0.52888185,95.0
420,2.5863485,0.8922119,-0.30812836,-0.26337892,0.55755615,0.14337158,95.0
421,1.7147818,0.5725212,0.075725555,-0.26337892,0.55755615,0.14337158,95.0
422,1.7147818,0.5725212,0.075725555,-0.26337892,0.55755615,0.14337158,95.0
423,1.7147818,0.5725212,0.075725555,-0.7327881,0.45454103,-0.23682861,95.0
424,0.53423977,0.2961731,0.41429138,-0.7327881,0.45454103,-0.23682861,95.0
425,0.53423977,0.2961731,0.41429138,-1.1968873,0.16567384,-0.52250975,95.0
426,0.2087636,0.0566864,0.5270386,-1.1968873,0.16567384,-0.52250975,95.0
427,0.2087636,0.0566864,0.5270386,-1.5877075,0.028674318,-0.8602295,95.0
428,-0.015130043,-0.28308105,0.6286278,-1.5877075,0.028674318,-0.8602295,95.0
429,-0.015130043,-0.28308105,0.6286278,-1.7087768,-0.08071289,-1.1660889,95.0
430,-1.0193062,-0.727005,1.0035858,-1.7087768,-0.08071289,-1.1660889,95.0
431,-1.0193062,-0.727005,1.0035858,-1.5186768,-0.32285157,-1.355127,95.0
432,-1.9823275,-1.0810432,1.5334702,-1.5186768,-0.32285157,-1.355127,95.0
433,-1.9823275,-1.0810432,1.5334702,-0.85491943,-0.69136965,-1.4326538,95.0
434,-1.8160136,-1.1745148,1.8723831,-0.85491943,-0.69136965,-1.4326538,95.0
435,-1.8160136,-1.1745148,1.8723831,0.07327881,-0.9589966,-1.5282348,95.0
436,-0.6782136,-0.8222656,1.5171204,0.07327881,-0.9589966,-1.5282348,95.0
437,-0.6782136,-0.8222656,1.5171204,0.9143921,-0.86978763,-1.5059327,95.0
438,0.090192795,-0.14747238,0.58047104,0.9143921,-0.86978763,-1.5059327,95.0
439,0.090192795,-0.14747238,0.58047104,1.2149414,-0.60216063,-1.5261109,95.0
440,-0.3782487,0.5707779,-0.3018341,1.2149414,-0.60216063,-1.5261109,95.0
441,-0.3782487,0.5707779,-0.3018341,0.904834,-0.3717041,-1.5675293,95.0
442,-1.4528186,1.0566711,-0.7190056,0.904834,-0.3717041,-1.5675293,95.0
443,-1.4528186,1.0566711,-0.7190056,0.24851075,-0.1985962,-1.5282348,95.0
444,-2.1349602,1.1655388,-0.6899147,0.24851075,-0.1985962,-1.5282348,95.0
445,-2.1349602,1.1655388,-0.6899147,-0.58410645,-0.040356446,-1.4177856,95.0
446,-2.2593842,0.9487152,-0.53492737,-0.58410645,-0.040356446,-1.4177856,95.0
447,-2.2593842,0.9487152,-0.53492737,-1.354065,0.11257324,-1.2595459,95.0
448,-2.2187622,0.38480377,-0.30523682,-1.354065,0.11257324,-1.2595459,95.0
449,-2.2187622,0.38480377,-0.30523682,-1.81073,0.21452637,-1.0694458,95.0
450,-2.249009,-0.4026909,0.10486984,-1.81073,0.21452637,-1.0694458,95.0
451,-2.249009,-0.4026909,0.10486984,-1.9689697,0.2814331,-0.991919,95.0
452,-2.268897,-1.1400948,0.63754654,-1.9689697,0.2814331,-0.991919,95.0
453,-2.268897,-1.1400948,0.63754654,-1.9190552,0.28780517,-1.0142212,95.0
454,-2.0964165,-1.6851578,1.0531998,-1.9190552,0.28780517,-1.0142212,95.0
455,-2.0964165,-1.6851578,1.0531998,-1.6960328,0.25913087,-1.0567017,95.0
456,-1.6712494,-2.061882,1.2581482,-1.6960328,0.25913087,-1.0567017,95.0
457,-1.6712494,-2.061882,1.2581482,-1.3073364,0.13912354,-1.1607789,95.0
458,-1.0140138,-2.2252617,1.3065567,-1.3073364,0.13912354,-1.1607789,95.0
459,-1.0140138,-2.2252617,1.3065567,-0.89102787,-0.022302246,-1.3402588,95.0
460,-0.2540455,-2.1096992,1.2155457,-0.89102787,-0.022302246,-1.3402588,95.0
461,-0.2540455,-2.1096992,1.2155457,-0.7104859,-0.1178833,-1.5069946,95.0
462,0.43343353,-1.7901993,0.9265137,-0.7104859,-0.1178833,-1.5069946,95.0
463,0.43343353,-1.7901993,0.9265137,-0.5511841,-0.121069334,-1.4570801,95.0
464,1.0192444,-1.4676895,0.5775261,-0.5511841,-0.121069334,-1.4570801,95.0
465,1.0192444,-1.4676895,0.5775261,-0.540564,-0.2442627,-1.5048707,95.0
466,1.7629664,-1.2235641,0.29832458,-0.540564,-0.2442627,-1.5048707,95.0
467,1.7629664,-1.2235641,0.29832458,-1.0280274,-0.3430298,-1.5696534,95.0
468,2.571042,-1.2065964,-0.007583618,-1.0280274,-0.3430298,-1.5696534,95.0
469,2.571042,-1.2065964,-0.007583618,-1.7098389,-0.14655761,-1.3476928,95.0
470,2.5411844,-1.59758,-0.16495514,-1.7098389,-0.14655761,-1.3476928,95.0
471,2.5411844,-1.59758,-0.16495514,-2.1335816,-0.050976563,-1.1544068,95.0
472,1.9917976,-2.0993729,0.08192444,-2.1335816,-0.050976563,-1.1544068,95.0
473,1.9917976,-2.0993729,0.08192444,-2.077295,-0.39400634,-0.90270996,95.0
474,2.3914485,-2.2751312,0.47401047,-2.077295,-0.39400634,-0.90270996,95.0
475,2.3914485,-2.2751312,0.47401047,-1.718335,-0.3971924,-0.5894165,95.0
476,2.768066,-2.1448364,0.7323303,-1.718335,-0.3971924,-0.5894165,95.0
477,2.768066,-2.1448364,0.7323303,-1.1161743,-0.013806152,-0.16885987,95.0
478,0.9561031,-1.8933868,0.768322,-1.1161743,-0.013806152,-0.16885987,95.0
479,0.9561031,-1.8933868,0.768322,-0.49383545,0.33984375,0.20072022,95.0
480,-2.2902446,-1.4473801,0.497715,-0.49383545,0.33984375,0.20072022,95.0
481,-2.2902446,-1.4473801,0.497715,0.16779785,0.27612305,0.65419924,95.0
482,-4.1409845,-0.6666565,-0.0036735535,0.16779785,0.27612305,0.65419924,95.0
483,-4.1409845,-0.6666565,-0.0036735535,0.94412845,-0.19753419,1.0620117,95.0
484,-2.9036813,0.31622314,-0.6092148,0.94412845,-0.19753419,1.0620117,95.0
485,-2.9036813,0.31622314,-0.6092148,1.6153198,-0.42799073,1.3795532,95.0
486,0.18312183,1.2280273,-1.2253113,1.6153198,-0.42799073,1.3795532,95.0
487,0.18312183,1.2280273,-1.2253113,2.0411866,-0.06265869,1.6238159,95.0
488,2.173121,1.8965836,-1.6564102,2.0411866,-0.06265869,1.6238159,95.0
489,2.173121,1.8965836,-1.6564102,2.0603027,0.5033936,1.7416992,95.0
490,1.6807209,2.2692108,-1.5994453,2.0603027,0.5033936,1.7416992,95.0
491,1.6807209,2.2692108,-1.5994453,1.6917847,0.7434082,1.7788696,95.0
492,-0.102981806,2.3325424,-1.0450821,1.6917847,0.7434082,1.7788696,95.0
493,-0.102981806,2.3325424,-1.0450821,1.2085694,0.70942384,1.8553345,95.0
494,-1.4737551,2.1615295,-0.3175125,1.2085694,0.70942384,1.8553345,95.0
495,-1.4737551,2.1615295,-0.3175125,0.8782837,0.5692383,2.0252564,95.0
496,-1.9114748,1.8444214,0.23033905,0.8782837,0.5692383,2.0252564,95.0
497,-1.9114748,1.8444214,0.23033905,0.84536135,0.2793091,2.166504,95.0
498,-1.7532887,1.3733292,0.44731903,0.84536135,0.2793091,2.166504,95.0
499,-1.7532887,1.3733292,0.44731903,1.084314,-0.040356446,2.1388917,95.0
500,-1.3771062,0.85015106,0.34213257,1.084314,-0.040356446,2.1388917,95.0
501,-1.3771062,0.85015106,0.34213257,1.5558472,-0.2538208,2.0677369,95.0
502,-0.9076786,0.5918274,-0.07426834,1.5558472,-0.2538208,2.0677369,95.0
503,-0.9076786,0.5918274,-0.07426834,2.0518067,-0.33134767,2.0464966,95.0
504,-0.42903596,0.7689667,-0.64253235,2.0518067,-0.33134767,2.0464966,95.0
505,-0.42903596,0.7689667,-0.64253235,2.3990846,-0.36427003,1.9434814,95.0
506,0.028695107,1.1712418,-1.117775,2.3990846,-0.36427003,1.9434814,95.0
507,0.028695107,1.1712418,-1.117775,2.5477662,-0.34940186,1.8011719,95.0
508,0.50860065,1.4957466,-1.2919121,2.5477662,-0.34940186,1.8011719,95.0
509,0.50860065,1.4957466,-1.2919121,2.4925416,-0.3069214,1.6493043,95.0
510,1.0536091,1.6422539,-1.2078438,2.4925416,-0.3069214,1.6493043,95.0
511,1.0536091,1.6422539,-1.2078438,2.3077514,-0.21134034,1.4528321,95.0
512,1.5957804,1.674118,-1.1266136,2.3077514,-0.21134034,1.4528321,95.0
513,1.5957804,1.674118,-1.1266136,1.9371094,-0.09664307,1.2276856,95.0
514,2.0854867,1.611866,-1.1883774,1.9371094,-0.09664307,1.2276856,95.0
515,2.0854867,1.611866,-1.1883774,1.4103516,-0.081774905,0.92501223,95.0
516,2.6049616,1.4075699,-1.2671204,1.4103516,-0.081774905,0.92501223,95.0
517,2.6049616,1.4075699,-1.2671204,0.8485474,-0.050976563,0.5065796,95.0
518,2.9617038,1.0673523,-1.1165771,0.8485474,-0.050976563,0.5065796,95.0
519,2.9617038,1.0673523,-1.1165771,0.29948732,0.0063720704,0.02442627,95.0
520,2.6406765,0.6728897,-0.65439606,0.29948732,0.0063720704,0.02442627,95.0
521,2.6406765,0.6728897,-0.65439606,-0.18797608,-0.04885254,-0.3419678,95.0
522,1.8494065,0.38864136,-0.123981476,-0.18797608,-0.04885254,-0.3419678,95.0
523,1.8494065,0.38864136,-0.123981476,-0.58410645,-0.31860352,-0.67225343,95.0
524,1.707577,0.2687149,0.08828735,-0.58410645,-0.31860352,-0.67225343,95.0
525,1.707577,0.2687149,0.08828735,-0.9632446,-0.6074707,-1.0545777,95.0
526,1.863657,-0.011665344,0.13840485,-0.9632446,-0.6074707,-1.0545777,95.0
527,1.863657,-0.011665344,0.13840485,-1.1575928,-0.7497803,-1.4687623,95.0
528,0.6909499,-0.58107376,0.6676483,-1.1575928,-0.7497803,-1.4687623,95.0
529,0.6909499,-0.58107376,0.6676483,-0.8973999,-0.90058595,-1.7236451,95.0
530,-1.4365346,-0.93172836,1.6081772,-0.8973999,-0.90058595,-1.7236451,95.0
531,-1.4365346,-0.93172836,1.6081772,-0.32178956,-1.1575928,-1.811792,95.0
532,-2.3806853,-0.6114731,1.8896179,-0.32178956,-1.1575928,-1.811792,95.0
533,-2.3806853,-0.6114731,1.8896179,0.32816163,-1.3774292,-1.6662964,95.0
534,-1.410969,0.10600281,0.8988533,0.32816163,-1.3774292,-1.6662964,95.0
535,-1.410969,0.10600281,0.8988533,0.7614624,-1.2967163,-1.3944215,95.0
536,-0.04711008,0.62273026,-0.5350342,0.7614624,-1.2967163,-1.3944215,95.0
537,-0.04711008,0.62273026,-0.5350342,0.84748536,-0.97067875,-1.3954834,95.0
538,0.2604077,0.71546936,-1.2808952,0.84748536,-0.97067875,-1.3954834,95.0
539,0.2604077,0.71546936,-1.2808952,0.6839356,-0.6839356,-1.535669,95.0
540,0.2604077,0.71546936,-1.2808952,0.6839356,-0.6839356,-1.535669,96.0
541,-0.31256008,0.56908035,-1.1241035,0.6839356,-0.6839356,-1.535669,96.0
542,-0.31256008,0.56908035,-1.1241035,0.30267334,-0.3993164,-1.5962037,96.0
543,-1.044091,0.4525528,-0.64575195,0.30267334,-0.3993164,-1.5962037,96.0
544,-1.044091,0.4525528,-0.64575195,-0.24532472,-0.06690674,-1.4294678,96.0
545,-1.6869819,0.38628387,-0.4030304,-0.24532472,-0.06690674,-1.4294678,96.0
546,-1.6869819,0.38628387,-0.4030304,-0.7720825,0.20072022,-1.081128,96.0
547,-2.2504644,0.21515656,-0.37507248,-0.7720825,0.20072022,-1.081128,96.0
548,-2.2504644,0.21515656,-0.37507248,-1.088562,0.29948732,-0.7625244,96.0
549,-2.5020804,-0.06049347,-0.22781754,-1.088562,0.29948732,-0.7625244,96.0
550,-2.5020804,-0.06049347,-0.22781754,-1.2106934,0.34090576,-0.5065796,96.0
551,-2.3307295,-0.3284607,0.10235214,-1.2106934,0.34090576,-0.5065796,96.0
552,-2.3307295,-0.3284607,0.10235214,-1.3073364,0.3993164,-0.2824951,96.0
553,-2.0058556,-0.54359055,0.4630432,-1.3073364,0.3993164,-0.2824951,96.0
554,-2.0058556,-0.54359055,0.4630432,-1.3710572,0.42692873,-0.12956543,96.0
555,-1.6848845,-0.70082855,0.7470474,-1.3710572,0.42692873,-0.12956543,96.0
556,-1.6848845,-0.70082855,0.7470474,-1.449646,0.38444826,-0.08071289,96.0
557,-1.2317334,-0.78886414,0.93940735,-1.449646,0.38444826,-0.08071289,96.0
558,-1.2317334,-0.78886414,0.93940735,-1.4390259,0.32922363,-0.059472658,96.0
559,-0.7417344,-0.8785629,1.0512695,-1.4390259,0.32922363,-0.059472658,96.0
560,-0.7417344,-0.8785629,1.0512695,-1.171399,0.41737062,0.052038576,96.0
561,-0.61272347,-0.99559784,1.0976677,-1.171399,0.41737062,0.052038576,96.0
562,-0.61272347,-0.99559784,1.0976677,-0.84111327,0.45666504,-0.019116212,96.0
563,-0.7528131,-1.0221863,0.9602623,-0.84111327,0.45666504,-0.019116212,96.0
564,-0.7528131,-1.0221863,0.9602623,-0.49489745,0.39294434,-0.06903076,96.0
565,-0.5687666,-0.87169266,0.6051979,-0.49489745,0.39294434,-0.06903076,96.0
566,-0.5687666,-0.87169266,0.6051979,-0.37807617,0.24744873,-0.13487549,96.0
567,0.22670066,-0.63674545,0.2237091,-0.37807617,0.24744873,-0.13487549,96.0
568,0.22670066,-0.63674545,0.2237091,-0.44923097,0.08496094,-0.27506104,96.0
569,1.4245857,-0.589756,0.01436615,-0.44923097,0.08496094,-0.27506104,96.0
570,1.4245857,-0.589756,0.01436615,-0.5543701,0.032922365,-0.5097656,96.0
571,2.3634114,-0.80539703,0.025482178,-0.5543701,0.032922365,-0.5097656,96.0
572,2.3634114,-0.80539703,0.025482178,-0.71367186,0.078588866,-0.7147339,96.0
573,2.5699284,-1.0479698,0.1410904,-0.71367186,0.078588866,-0.7147339,96.0
574,2.5699284,-1.0479698,0.1410904,-0.9515625,-0.1359375,-0.7869507,96.0
575,2.8191264,-1.269516,0.25083542,-0.9515625,-0.1359375,-0.7869507,96.0
576,2.8191264,-1.269516,0.25083542,-1.1076783,-0.4439209,-0.9589966,96.0
577,3.322391,-1.565628,0.44992447,-1.1076783,-0.4439209,-0.9589966,96.0
578,3.322391,-1.565628,0.44992447,-0.817749,-0.38232422,-1.0195312,96.0
579,2.5345242,-1.9219131,0.65813446,-0.817749,-0.38232422,-1.0195312,96.0
580,2.5345242,-1.9219131,0.65813446,0.2516968,-0.1444336,-0.9781128,96.0
581,0.20587873,-1.9689484,0.37916946,0.2516968,-0.1444336,-0.9781128,96.0
582,0.20587873,-1.9689484,0.37916946,1.1629028,-0.08283692,-0.9165161,96.0
583,-1.8350528,-1.4105835,-0.5370102,1.1629028,-0.08283692,-0.9165161,96.0
584,-1.8350528,-1.4105835,-0.5370102,2.0199463,-0.24001466,-0.55755615,96.0
585,-2.1820803,-0.44541168,-1.5448685,2.0199463,-0.24001466,-0.55755615,96.0
586,-2.1820803,-0.44541168,-1.5448685,2.9300904,-0.31116945,-0.14655761,96.0
587,-1.2364968,0.6721344,-2.1620789,2.9300904,-0.31116945,-0.14655761,96.0
588,-1.2364968,0.6721344,-2.1620789,3.6140258,-0.1444336,0.21134034,96.0
589,-0.42132634,1.6728058,-2.3488274,3.6140258,-0.1444336,0.21134034,96.0
590,-0.42132634,1.6728058,-2.3488274,3.6565063,0.07434082,0.45772704,96.0
591,-0.3631963,2.2981796,-2.2553673,3.6565063,0.07434082,0.45772704,96.0
592,-0.3631963,2.2981796,-2.2553673,3.259314,0.24107666,0.7434082,96.0
593,-0.7087089,2.4777756,-1.9827385,3.259314,0.24107666,0.7434082,96.0
594,-0.7087089,2.4777756,-1.9827385,2.7601686,0.3791382,0.996167,96.0
595,-1.0340204,2.3644943,-1.5169182,2.7601686,0.3791382,0.996167,96.0
596,-1.0340204,2.3644943,-1.5169182,2.2716432,0.45878908,1.2011353,96.0
597,-1.2112252,2.1023254,-1.0268173,2.2716432,0.45878908,1.2011353,96.0
598,-1.2112252,2.1023254,-1.0268173,1.803296,0.5097656,1.4018555,96.0
599,-1.2950177,1.7040901,-0.8377266,1.803296,0.5097656,1.4018555,96.0
600,-1.2950177,1.7040901,-0.8377266,1.3880494,0.48427734,1.5515991,96.0
601,-1.2883213,1.2379303,-0.9372978,1.3880494,0.48427734,1.5515991,96.0
602,-1.2883213,1.2379303,-0.9372978,1.1565307,0.41206056,1.6131958,96.0
603,-1.0449148,0.8658562,-1.1012802,1.1565307,0.41206056,1.6131958,96.0
604,-1.0449148,0.8658562,-1.1012802,1.1342286,0.3706421,1.5749635,96.0
605,-0.5285833,0.6601181,-1.2413635,1.1342286,0.3706421,1.5749635,96.0
606,-0.5285833,0.6601181,-1.2413635,1.2160034,0.35789797,1.4910644,96.0
607,0.098727584,0.56837463,-1.357872,1.2160034,0.35789797,1.4910644,96.0
608,0.098727584,0.56837463,-1.357872,1.2892822,0.32816163,1.3445069,96.0
609,0.7810939,0.532177,-1.3287659,1.2892822,0.32816163,1.3445069,96.0
610,0.7810939,0.532177,-1.3287659,1.3030884,0.2824951,1.1406006,96.0
611,1.5633152,0.5143509,-1.1393433,1.3030884,0.2824951,1.1406006,96.0
612,1.5633152,0.5143509,-1.1393433,1.2574219,0.28461915,0.9568726,96.0
613,2.346929,0.48621368,-0.94525146,1.2574219,0.28461915,0.9568726,96.0
614,2.346929,0.48621368,-0.94525146,1.170337,0.3069214,0.7805786,96.0
615,2.9746623,0.42502975,-0.91028976,1.170337,0.3069214,0.7805786,96.0
616,2.9746623,0.42502975,-0.91028976,1.0513916,0.33134767,0.64782715,96.0
617,3.467535,0.41600037,-1.047226,1.0513916,0.33134767,0.64782715,96.0
618,3.467535,0.41600037,-1.047226,0.8612915,0.35471192,0.6000366,96.0
619,3.8134813,0.5230484,-1.2380371,0.8612915,0.35471192,0.6000366,96.0
620,3.8134813,0.5230484,-1.2380371,0.5533081,0.46834716,0.5894165,96.0
621,3.6934,0.6633148,-1.3197021,0.5533081,0.46834716,0.5894165,96.0
622,3.6934,0.6633148,-1.3197021,0.15080567,0.5171997,0.60216063,96.0
623,3.2580767,0.67359924,-1.2063942,0.15080567,0.5171997,0.60216063,96.0
624,3.2580767,0.67359924,-1.2063942,-0.36639404,0.41843262,0.63826907,96.0
625,2.5337076,0.46455002,-0.724247,-0.36639404,0.41843262,0.63826907,96.0
626,2.5337076,0.46455002,-0.724247,-0.68499756,0.31223145,0.5915405,96.0
627,0.75774,0.11096954,0.21292114,-0.68499756,0.31223145,0.5915405,96.0
628,0.75774,0.11096954,0.21292114,-0.64782715,0.19116211,0.5692383,96.0
629,-1.8820529,-0.17277145,1.1807709,-0.64782715,0.19116211,0.5692383,96.0
630,-1.8820529,-0.17277145,1.1807709,-0.39506838,-0.04460449,0.5957886,96.0
631,-3.8106105,-0.2762184,1.590004,-0.39506838,-0.04460449,0.5957886,96.0
632,-3.8106105,-0.2762184,1.590004,-0.013806152,-0.37701416,0.6180908,96.0
633,-3.8763082,-0.2228775,1.3015556,-0.013806152,-0.37701416,0.6180908,96.0
634,-3.8763082,-0.2228775,1.3015556,0.49383545,-0.68499756,0.6467652,96.0
635,-2.3507292,-0.13672256,0.6180992,0.49383545,-0.68499756,0.6467652,96.0
636,-2.3507292,-0.13672256,0.6180992,1.0004151,-0.85385746,0.56180423,96.0
637,-0.3885057,-0.06445694,-0.09621811,1.0004151,-0.85385746,0.56180423,96.0
638,-0.3885057,-0.06445694,-0.09621811,1.3721192,-0.86341554,0.34833986,96.0
639,0.9738755,0.052330017,-0.6478119,1.3721192,-0.86341554,0.34833986,96.0
640,0.9738755,0.052330017,-0.6478119,1.4145997,-0.69136965,0.090270996,96.0
641,1.2298083,0.19960022,-0.9933319,1.4145997,-0.69136965,0.090270996,96.0
642,1.2298083,0.19960022,-0.9933319,1.1066163,-0.5363159,-0.18691407,96.0
643,1.2298083,0.19960022,-0.9933319,1.1066163,-0.5363159,-0.18691407,96.0
644,0.5524869,0.32216644,-1.0205536,1.1066163,-0.5363159,-0.18691407,96.0
645,0.5524869,0.32216644,-1.0205536,0.70198977,-0.47471926,-0.44710693,96.0
646,-0.3644681,0.30506134,-0.769825,0.70198977,-0.47471926,-0.44710693,96.0
647,-0.3644681,0.30506134,-0.769825,0.52888185,-0.43117675,-0.6117188,96.0
648,-1.1690893,0.09987259,-0.42095947,0.52888185,-0.43117675,-0.6117188,96.0
649,-1.1690893,0.09987259,-0.42095947,0.5331299,-0.38657227,-0.74447024,96.0
650,-1.8242364,-0.13986588,-0.16251373,0.5331299,-0.38657227,-0.74447024,96.0
651,-1.8242364,-0.13986588,-0.16251373,0.6117188,-0.4078125,-0.8219971,96.0
652,-2.2466938,-0.3107071,-0.08552933,0.6117188,-0.4078125,-0.8219971,96.0
653,-2.2466938,-0.3107071,-0.08552933,0.7880127,-0.45772704,-0.8612915,96.0
654,-2.3185465,-0.39550018,-0.14735413,0.7880127,-0.45772704,-0.8612915,96.0
655,-2.3185465,-0.39550018,-0.14735413,1.0386475,-0.5299439,-0.88359374,96.0
656,-2.066556,-0.36884308,-0.27907944,1.0386475,-0.5299439,-0.88359374,96.0
657,-2.066556,-0.36884308,-0.27907944,1.3073364,-0.5713623,-0.92713624,96.0
658,-1.6449928,-0.2496872,-0.42748642,1.3073364,-0.5713623,-0.92713624,96.0
659,-1.6449928,-0.2496872,-0.42748642,1.4284058,-0.56605226,-1.0152832,96.0
660,-1.1566315,-0.11594772,-0.56155777,1.4284058,-0.56605226,-1.0152832,96.0
661,-1.1566315,-0.11594772,-0.56155777,1.2860962,-0.58410645,-1.1554688,96.0
662,-0.54468995,-0.06687927,-0.7229042,1.2860962,-0.58410645,-1.1554688,96.0
663,-0.54468995,-0.06687927,-0.7229042,0.9855469,-0.63826907,-1.2860962,96.0
664,0.2603662,-0.1660614,-0.9104538,0.9855469,-0.63826907,-1.2860962,96.0
665,0.2603662,-0.1660614,-0.9104538,0.6711914,-0.6881836,-1.3413209,96.0
666,1.2084395,-0.36664963,-1.0793266,0.6711914,-0.6881836,-1.3413209,96.0
667,1.2084395,-0.36664963,-1.0793266,0.3717041,-0.71579593,-1.3307008,96.0
668,2.1556065,-0.5925369,-1.172554,0.3717041,-0.71579593,-1.3307008,96.0
669,2.1556065,-0.5925369,-1.172554,0.09664307,-0.68499756,-1.2319336,96.0
670,2.8051128,-0.8118744,-1.1158981,0.09664307,-0.68499756,-1.2319336,96.0
671,2.8051128,-0.8118744,-1.1158981,-0.06796875,-0.63933104,-1.0651978,96.0
672,2.880345,-0.991539,-0.825737,-0.06796875,-0.63933104,-1.0651978,96.0
673,2.880345,-0.991539,-0.825737,-0.053100586,-0.6924316,-0.8442993,96.0
674,2.6943517,-1.0427551,-0.3738823,-0.053100586,-0.6924316,-0.8442993,96.0
675,2.6943517,-1.0427551,-0.3738823,0.06796875,-0.95581055,-0.62127686,96.0
676,2.8264651,-0.95558167,0.064712524,0.06796875,-0.95581055,-0.62127686,96.0
677,2.8264651,-0.95558167,0.064712524,0.38869628,-1.0301514,-0.3069214,96.0
678,2.625967,-0.89273834,0.48364258,0.38869628,-1.0301514,-0.3069214,96.0
679,2.625967,-0.89273834,0.48364258,1.1597168,-0.79332274,0.06265869,96.0
680,0.9783616,-0.9523239,0.6028786,1.1597168,-0.79332274,0.06265869,96.0
681,0.9783616,-0.9523239,0.6028786,1.989148,-0.31116945,0.28568116,96.0
682,-1.5129652,-0.9561844,-0.13774109,1.989148,-0.31116945,0.28568116,96.0
683,-1.5129652,-0.9561844,-0.13774109,2.5785644,-0.03186035,0.6690674,96.0
684,-3.0546105,-0.7069626,-1.6130753,2.5785644,-0.03186035,0.6690674,96.0
685,-3.0546105,-0.7069626,-1.6130753,2.8323853,-0.1083252,1.0375855,96.0
686,-2.4883173,-0.11338425,-2.8728218,2.8323853,-0.1083252,1.0375855,96.0
687,-2.4883173,-0.11338425,-2.8728218,2.8578737,-0.10407715,1.3402588,96.0
688,-0.5774336,0.54112625,-3.1792374,2.8578737,-0.10407715,1.3402588,96.0
689,-0.5774336,0.54112625,-3.1792374,2.8716798,0.28568116,1.4666382,96.0
690,0.7095132,0.84293365,-2.659809,2.8716798,0.28568116,1.4666382,96.0
691,0.7095132,0.84293365,-2.659809,2.7463624,0.72216797,1.5038086,96.0
692,0.41155577,0.78526306,-1.8174591,2.7463624,0.72216797,1.5038086,96.0
693,0.41155577,0.78526306,-1.8174591,2.3204956,0.9281983,1.4900025,96.0
694,-0.7895422,0.482872,-1.057106,2.3204956,0.9281983,1.4900025,96.0
695,-0.7895422,0.482872,-1.057106,1.7501954,0.905896,1.538855,96.0
696,-1.8133965,0.09689331,-0.61164093,1.7501954,0.905896,1.538855,96.0
697,-1.8133965,0.09689331,-0.61164093,1.2468017,0.7880127,1.6153198,96.0
698,-2.1736298,-0.20838928,-0.5275917,1.2468017,0.7880127,1.6153198,96.0
699,-2.1736298,-0.20838928,-0.5275917,0.9143921,0.6669434,1.6503662,96.0
700,-2.0033572,-0.43634033,-0.7245636,0.9143921,0.6669434,1.6503662,96.0
701,-2.0033572,-0.43634033,-0.7245636,0.727478,0.52038574,1.6408081,96.0
702,-1.53501,-0.6006584,-1.0127068,0.727478,0.52038574,1.6408081,96.0
703,-1.53501,-0.6006584,-1.0127068,0.6435791,0.40250245,1.5282348,96.0
704,-0.8721242,-0.71016693,-1.2329445,0.6435791,0.40250245,1.5282348,96.0
705,-0.8721242,-0.71016693,-1.2329445,0.815625,0.3430298,1.4082276,96.0
706,-0.11581458,-0.8158989,-1.3140411,0.815625,0.3430298,1.4082276,96.0
707,-0.11581458,-0.8158989,-1.3140411,1.0981201,0.31966552,1.178833,96.0
708,0.6230222,-0.870636,-1.3062477,1.0981201,0.31966552,1.178833,96.0
709,0.6230222,-0.870636,-1.3062477,1.265918,0.28568116,0.87191164,96.0
710,1.3430833,-0.8259735,-1.2444229,1.265918,0.28568116,0.87191164,96.0
711,1.3430833,-0.8259735,-1.2444229,1.178833,0.21983643,0.5777344,96.0
712,2.0677893,-0.74082184,-1.0625191,1.178833,0.21983643,0.5777344,96.0
713,2.0677893,-0.74082184,-1.0625191,0.97386473,0.15930176,0.23895264,96.0
714,2.8122637,-0.70428085,-0.7893715,0.97386473,0.15930176,0.23895264,96.0
715,2.8122637,-0.70428085,-0.7893715,0.72854006,0.08602295,-0.04248047,96.0
716,3.6661806,-0.670166,-0.6217804,0.72854006,0.08602295,-0.04248047,96.0
717,3.6661806,-0.670166,-0.6217804,0.3802002,-0.03717041,-0.26337892,96.0
718,4.5787573,-0.5434799,-0.6395035,0.3802002,-0.03717041,-0.26337892,96.0
719,4.5787573,-0.5434799,-0.6395035,-0.04885254,-0.040356446,-0.37701416,96.0
720,4.79013,-0.29475784,-0.6215744,-0.04885254,-0.040356446,-0.37701416,96.0
721,4.79013,-0.29475784,-0.6215744,-0.4694092,0.050976563,-0.3971924,96.0
722,3.8310547,0.06406021,-0.5055008,-0.4694092,0.050976563,-0.3971924,96.0
723,3.8310547,0.06406021,-0.5055008,-0.9791748,-0.014868164,-0.38444826,96.0
724,2.4886842,0.4567032,-0.3115425,-0.9791748,-0.014868164,-0.38444826,96.0
725,2.4886842,0.4567032,-0.3115425,-1.5059327,-0.11469727,-0.30267334,96.0
726,1.0158615,0.6475029,0.42118835,-1.5059327,-0.11469727,-0.30267334,96.0
727,1.0158615,0.6475029,0.42118835,-1.7342652,-0.20496826,-0.22196046,96.0
728,-1.0518618,0.5433655,1.8105469,-1.7342652,-0.20496826,-0.22196046,96.0
729,-1.0518618,0.5433655,1.8105469,-1.5728394,-0.17523193,-0.1274414,96.0
730,-3.263218,0.30010986,2.8893166,-1.5728394,-0.17523193,-0.1274414,96.0
731,-3.263218,0.30010986,2.8893166,-1.1873292,-0.10513916,-0.023364259,96.0
732,-4.5432405,0.13726807,2.7509918,-1.1873292,-0.10513916,-0.023364259,96.0
733,-4.5432405,0.13726807,2.7509918,-0.8496094,-0.28674316,0.015930176,96.0
734,-4.0828104,0.1078949,1.6776237,-0.8496094,-0.28674316,0.015930176,96.0
735,-4.0828104,0.1078949,1.6776237,-0.4067505,-0.54906005,0.12319336,96.0
736,-2.20503,0.13873291,0.49573517,-0.4067505,-0.54906005,0.12319336,96.0
737,-2.20503,0.13873291,0.49573517,0.18691407,-0.43967286,0.20390625,96.0
738,-0.35967827,0.37530518,-0.21858597,0.18691407,-0.43967286,0.20390625,96.0
739,-0.35967827,0.37530518,-0.21858597,0.46622315,-0.16036378,0.20072022,96.0
740,-0.35967827,0.37530518,-0.21858597,0.46622315,-0.16036378,0.20072022,97.0
741,0.41750646,0.8127556,-0.34957504,0.46622315,-0.16036378,0.20072022,97.0
742,0.41750646,0.8127556,-0.34957504,0.26444092,0.015930176,0.1263794,97.0
743,0.33743525,1.1050873,-0.1334076,0.26444092,0.015930176,0.1263794,97.0
744,0.33743525,1.1050873,-0.1334076,-0.11363526,0.21452637,0.08814698,97.0
745,-0.12428999,1.0288086,0.1457634,-0.11363526,0.21452637,0.08814698,97.0
746,-0.12428999,1.0288086,0.1457634,-0.41737062,0.3727661,0.033984374,97.0
747,-0.777545,0.6288681,0.34111023,-0.41737062,0.3727661,0.033984374,97.0
748,-0.777545,0.6288681,0.34111023,-0.6053467,0.45560303,-0.07327881,97.0
749,-1.4401026,0.16328812,0.40294266,-0.6053467,0.45560303,-0.07327881,97.0
750,-1.4401026,0.16328812,0.40294266,-0.6435791,0.43754885,-0.14337158,97.0
751,-1.8863595,-0.14374542,0.4040184,-0.6435791,0.43754885,-0.14337158,97.0
752,-1.8863595,-0.14374542,0.4040184,-0.61278075,0.32178956,-0.270813,97.0
753,-1.9516535,-0.25967407,0.41220474,-0.61278075,0.32178956,-0.270813,97.0
754,-1.9516535,-0.25967407,0.41220474,-0.42905274,0.1901001,-0.40356445,97.0
755,-1.6870675,-0.27789307,0.4370041,-0.42905274,0.1901001,-0.40356445,97.0
756,-1.6870675,-0.27789307,0.4370041,-0.12531738,0.1263794,-0.5246338,97.0
757,-1.4390706,-0.26166916,0.41270065,-0.12531738,0.1263794,-0.5246338,97.0
758,-1.4390706,-0.26166916,0.41270065,-0.0063720704,0.022302246,-0.76464844,97.0
759,-1.2985831,-0.29400253,0.18190765,-0.0063720704,0.022302246,-0.76464844,97.0
760,-1.2985831,-0.29400253,0.18190765,0.29523927,-0.098767094,-0.8581055,97.0
761,-0.9757806,-0.3520851,-0.25818634,0.29523927,-0.098767094,-0.8581055,97.0
762,-0.9757806,-0.3520851,-0.25818634,0.50233155,-0.27718505,-1.0322754,97.0
763,-0.26292428,-0.25012589,-0.57642365,0.50233155,-0.27718505,-1.0322754,97.0
764,-0.26292428,-0.25012589,-0.57642365,0.44923097,-0.44179687,-1.2032593,97.0
765,0.75989985,-0.0709877,-0.6180725,0.44923097,-0.44179687,-1.2032593,97.0
766,0.75989985,-0.0709877,-0.6180725,0.18691407,-0.59472656,-1.4050416,97.0
767,1.9028661,-0.0015640259,-0.46412277,0.18691407,-0.59472656,-1.4050416,97.0
768,1.9028661,-0.0015640259,-0.46412277,-0.2793091,-0.75509036,-1.716211,97.0
769,3.0095243,-0.25554657,-0.26142502,-0.2793091,-0.75509036,-1.716211,97.0
770,3.0095243,-0.25554657,-0.26142502,-0.7614624,-0.81031495,-1.9530395,97.0
771,3.4882836,-0.8670006,-0.059799194,-0.7614624,-0.81031495,-1.9530395,97.0
772,3.4882836,-0.8670006,-0.059799194,-1.0322754,-0.8241211,-2.1888063,97.0
773,3.0869527,-1.3087006,0.1636467,-1.0322754,-0.8241211,-2.1888063,97.0
774,3.0869527,-1.3087006,0.1636467,-1.2776002,-1.1427246,-2.275891,97.0
775,2.822712,-1.2869759,0.4232521,-1.2776002,-1.1427246,-2.275891,97.0
776,2.822712,-1.2869759,0.4232521,-1.2106934,-1.2956543,-2.1888063,97.0
777,2.6391878,-1.272728,0.87891006,-1.2106934,-1.2956543,-2.1888063,97.0
778,2.6391878,-1.272728,0.87891006,-0.4704712,-0.90270996,-1.808606,97.0
779,0.99125767,-1.4850159,1.1613083,-0.4704712,-0.90270996,-1.808606,97.0
780,0.99125767,-1.4850159,1.1613083,0.57454836,-0.18585205,-1.264856,97.0
781,-2.2313595,-1.4428482,0.6399231,0.57454836,-0.18585205,-1.264856,97.0
782,-2.2313595,-1.4428482,0.6399231,1.2351197,0.2516968,-0.6202149,97.0
783,-4.9854417,-0.9933319,-0.14404297,1.2351197,0.2516968,-0.6202149,97.0
784,-4.9854417,-0.9933319,-0.14404297,1.807544,-0.06584473,0.14018555,97.0
785,-4.8708363,-0.3162079,-0.6287613,1.807544,-0.06584473,0.14018555,97.0
786,-4.8708363,-0.3162079,-0.6287613,2.2493408,-0.23895264,0.81031495,97.0
787,-2.1386733,0.47141266,-1.0645676,2.2493408,-0.23895264,0.81031495,97.0
788,-2.1386733,0.47141266,-1.0645676,2.2769532,0.11151123,1.453894,97.0
789,0.4286487,1.1022415,-1.418354,2.2769532,0.11151123,1.453894,97.0
790,0.4286487,1.1022415,-1.418354,1.9456055,0.53950197,1.897815,97.0
791,1.0619986,1.4013748,-1.397049,1.9456055,0.53950197,1.897815,97.0
792,1.0619986,1.4013748,-1.397049,1.3264526,0.78376466,2.1580079,97.0
793,0.26200128,1.3405609,-0.9808464,1.3264526,0.78376466,2.1580079,97.0
794,0.26200128,1.3405609,-0.9808464,0.70198977,0.8315552,2.3332398,97.0
795,-0.72116065,0.88975906,-0.5110817,0.70198977,0.8315552,2.3332398,97.0
796,-0.72116065,0.88975906,-0.5110817,0.3971924,0.76677245,2.461743,97.0
797,-1.272595,0.26006317,-0.23563385,0.3971924,0.76677245,2.461743,97.0
798,-1.272595,0.26006317,-0.23563385,0.43117675,0.6265869,2.4606812,97.0
799,-1.3862035,-0.23643112,-0.22446823,0.43117675,0.6265869,2.4606812,97.0
800,-1.3862035,-0.23643112,-0.22446823,0.72216797,0.4970215,2.3385499,97.0
801,-1.2410551,-0.44677353,-0.40291595,0.72216797,0.4970215,2.3385499,97.0
802,-1.2410551,-0.44677353,-0.40291595,1.0195312,0.38869628,2.1378295,97.0
803,-1.0001317,-0.391037,-0.62096405,1.0195312,0.38869628,2.1378295,97.0
804,-1.0001317,-0.391037,-0.62096405,1.1246704,0.31966552,1.9179932,97.0
805,-0.63408977,-0.28546143,-0.7967949,1.1246704,0.31966552,1.9179932,97.0
806,-0.63408977,-0.28546143,-0.7967949,1.1852051,0.27612305,1.6939087,97.0
807,-0.055025727,-0.29858398,-0.8611069,1.1852051,0.27612305,1.6939087,97.0
808,-0.055025727,-0.29858398,-0.8611069,1.3073364,0.25913087,1.4432739,97.0
809,0.6879252,-0.3787613,-0.8354187,1.3073364,0.25913087,1.4432739,97.0
810,0.6879252,-0.3787613,-0.8354187,1.3742431,0.26975098,1.1809571,97.0
811,1.4507918,-0.41085815,-0.79564285,1.3742431,0.26975098,1.1809571,97.0
812,1.4507918,-0.41085815,-0.79564285,1.2000732,0.2177124,0.8623535,97.0
813,2.3321424,-0.41751862,-0.7826805,1.2000732,0.2177124,0.8623535,97.0
814,2.3321424,-0.41751862,-0.7826805,0.9303223,0.13168946,0.5479981,97.0
815,3.5131872,-0.43130493,-0.7868004,0.9303223,0.13168946,0.5479981,97.0
816,3.5131872,-0.43130493,-0.7868004,0.62977296,0.09133301,0.24744873,97.0
817,4.647891,-0.38905334,-0.7629852,0.62977296,0.09133301,0.24744873,97.0
818,4.647891,-0.38905334,-0.7629852,0.31116945,0.18585205,-0.026550293,97.0
819,4.6511374,-0.27136993,-0.57058144,0.31116945,0.18585205,-0.026550293,97.0
820,4.6511374,-0.27136993,-0.57058144,-0.043542482,0.2081543,-0.2793091,97.0
821,3.3600335,-0.051353455,-0.20989609,-0.043542482,0.2081543,-0.2793091,97.0
822,3.3600335,-0.051353455,-0.20989609,-0.51082766,0.06159668,-0.46728516,97.0
823,2.263454,0.25603485,-0.061203003,-0.51082766,0.06159668,-0.46728516,97.0
824,2.263454,0.25603485,-0.061203003,-1.1055542,-0.07327881,-0.56392825,97.0
825,1.4679413,0.41329956,0.023887634,-1.1055542,-0.07327881,-0.56392825,97.0
826,1.4679413,0.41329956,0.023887634,-1.537793,-0.1720459,-0.7519043,97.0
827,-0.23397255,0.20786285,0.5918274,-1.537793,-0.1720459,-0.7519043,97.0
828,-0.23397255,0.20786285,0.5918274,-1.531421,-0.2793091,-0.89421386,97.0
829,-2.4668655,-0.19678497,1.4594498,-1.531421,-0.2793091,-0.89421386,97.0
830,-2.4668655,-0.19678497,1.4594498,-1.0418335,-0.49064943,-0.8995239,97.0
831,-3.6491885,-0.51405334,1.9147263,-1.0418335,-0.49064943,-0.8995239,97.0
832,-3.6491885,-0.51405334,1.9147263,-0.23151855,-0.79969484,-0.96430665,97.0
833,-2.8950834,-0.6150894,1.5237503,-0.23151855,-0.79969484,-0.96430665,97.0
834,-2.8950834,-0.6150894,1.5237503,0.5809204,-0.9122681,-1.002539,97.0
835,-1.19573,-0.5310974,0.52692413,0.5809204,-0.9122681,-1.002539,97.0
836,-1.19573,-0.5310974,0.52692413,1.2489258,-0.7497803,-0.96218264,97.0
837,-0.20880556,-0.24971008,-0.35619354,1.2489258,-0.7497803,-0.96218264,97.0
838,-0.20880556,-0.24971008,-0.35619354,1.4942505,-0.48746338,-0.97280276,97.0
839,-0.38992047,0.34277344,-0.67194366,1.4942505,-0.48746338,-0.97280276,97.0
840,-0.38992047,0.34277344,-0.67194366,1.2383057,-0.27506104,-0.8857178,97.0
841,-1.012852,1.1658173,-0.58485794,1.2383057,-0.27506104,-0.8857178,97.0
842,-1.012852,1.1658173,-0.58485794,0.55968016,0.0010620117,-0.6786255,97.0
843,-1.4777255,1.8027954,-0.38500214,0.55968016,0.0010620117,-0.6786255,97.0
844,-1.4777255,1.8027954,-0.38500214,-0.4322388,0.19753419,-0.41206056,97.0
845,-1.4777255,1.8027954,-0.38500214,-0.4322388,0.19753419,-0.41206056,97.0
846,-1.6981838,1.7906265,-0.23939896,-0.4322388,0.19753419,-0.41206056,97.0
847,-1.6981838,1.7906265,-0.23939896,-1.2468017,0.32922363,-0.20284425,97.0
848,-1.8000998,1.1680832,-0.20190811,-1.2468017,0.32922363,-0.20284425,97.0
849,-1.8000998,1.1680832,-0.20190811,-1.7013428,0.48321533,-0.11682129,97.0
850,-1.9368083,0.3675232,-0.098464966,-1.7013428,0.48321533,-0.11682129,97.0
851,-1.9368083,0.3675232,-0.098464966,-1.8351563,0.44073486,-0.04885254,97.0
852,-1.9530113,-0.30521393,0.22182465,-1.8351563,0.44073486,-0.04885254,97.0
853,-1.9530113,-0.30521393,0.22182465,-1.6907227,0.38338622,-0.07965088,97.0
854,-1.641474,-0.6146202,0.6369438,-1.6907227,0.38338622,-0.07965088,97.0
855,-1.641474,-0.6146202,0.6369438,-1.3710572,0.35152587,-0.1996582,97.0
856,-1.20273,-0.5429039,0.8882065,-1.3710572,0.35152587,-0.1996582,97.0
857,-1.20273,-0.5429039,0.8882065,-1.0036011,0.3345337,-0.2899292,97.0
858,-0.91916645,-0.39124298,0.90166473,-1.0036011,0.3345337,-0.2899292,97.0
859,-0.91916645,-0.39124298,0.90166473,-0.49171144,0.20921631,-0.49171144,97.0
860,-0.6352355,-0.33457947,0.78336716,-0.49171144,0.20921631,-0.49171144,97.0
861,-0.6352355,-0.33457947,0.78336716,-0.04460449,0.06690674,-0.721106,97.0
862,-0.0885595,-0.4250946,0.62532806,-0.04460449,0.06690674,-0.721106,97.0
863,-0.0885595,-0.4250946,0.62532806,0.23789063,-0.12319336,-0.91120607,97.0
864,0.7741475,-0.5655365,0.42223358,0.23789063,-0.12319336,-0.91120607,97.0
865,0.7741475,-0.5655365,0.42223358,0.24213867,-0.31435546,-1.1342286,97.0
866,1.8849064,-0.5059128,0.13120651,0.24213867,-0.31435546,-1.1342286,97.0
867,1.8849064,-0.5059128,0.13120651,-0.06690674,-0.44604492,-1.2255615,97.0
868,2.9469633,-0.28202057,-0.055728912,-0.06690674,-0.44604492,-1.2255615,97.0
869,2.9469633,-0.28202057,-0.055728912,-0.6000366,-0.45666504,-1.2191895,97.0
870,3.3120873,-0.12786102,0.04666519,-0.6000366,-0.45666504,-1.2191895,97.0
871,3.3120873,-0.12786102,0.04666519,-1.0343994,-0.37595215,-1.088562,97.0
872,2.7772944,-0.10385132,0.36167145,-1.0343994,-0.37595215,-1.088562,97.0
873,2.7772944,-0.10385132,0.36167145,-1.2011353,-0.5798584,-0.8782837,97.0
874,2.3740573,-0.21751404,0.66929245,-1.2011353,-0.5798584,-0.8782837,97.0
875,2.3740573,-0.21751404,0.66929245,-1.0609497,-0.7848267,-0.7412842,97.0
876,2.227322,-0.49263763,0.91036224,-1.0609497,-0.7848267,-0.7412842,97.0
877,2.227322,-0.49263763,0.91036224,-0.6159668,-0.3462158,-0.5649902,97.0
878,0.80978775,-0.85105896,0.9168167,-0.6159668,-0.3462158,-0.5649902,97.0
879,0.80978775,-0.85105896,0.9168167,0.0010620117,0.08602295,-0.40993652,97.0
880,-1.663156,-1.0047531,0.38204956,0.0010620117,0.08602295,-0.40993652,97.0
881,-1.663156,-1.0047531,0.38204956,0.5256958,0.087084964,-0.12000733,97.0
882,-2.99886,-0.82095337,-0.5184326,0.5256958,0.087084964,-0.12000733,97.0
883,-2.99886,-0.82095337,-0.5184326,1.088562,-0.12850343,0.14549561,97.0
884,-2.141825,-0.4163208,-1.3390503,1.088562,-0.12850343,0.14549561,97.0
885,-2.141825,-0.4163208,-1.3390503,1.7268311,-0.0541626,0.40993652,97.0
886,-0.45220518,0.06624603,-1.6761818,1.7268311,-0.0541626,0.40993652,97.0
887,-0.45220518,0.06624603,-1.6761818,2.1505737,0.30054933,0.6637573,97.0
888,0.10526466,0.38467407,-1.3795815,2.1505737,0.30054933,0.6637573,97.0
889,0.10526466,0.38467407,-1.3795815,2.075171,0.5968506,0.8421753,97.0
890,-0.66832733,0.4568863,-0.7291298,2.075171,0.5968506,0.8421753,97.0
891,-0.66832733,0.4568863,-0.7291298,1.5993897,0.77526855,1.0736939,97.0
892,-1.0215149,0.31913757,-0.39627838,1.5993897,0.77526855,1.0736939,97.0
893,-1.0215149,0.31913757,-0.39627838,1.2892822,0.7954468,1.2128174,97.0
894,-2.2520874,0.14233398,0.35225296,1.2892822,0.7954468,1.2128174,97.0
895,-2.2520874,0.14233398,0.35225296,0.4991455,0.6988037,1.7045288,97.0
896,-1.7973974,-0.092552185,0.31308746,0.4991455,0.6988037,1.7045288,97.0
897,-1.7973974,-0.092552185,0.31308746,0.3717041,0.6701294,1.8617066,97.0
898,-1.3623686,-0.48020935,-0.18876266,0.3717041,0.6701294,1.8617066,97.0
899,-1.3623686,-0.48020935,-0.18876266,0.42905274,0.60216063,2.1367676,97.0
900,-0.8495751,-0.42781067,-0.36311722,0.42905274,0.60216063,2.1367676,97.0
901,-0.8495751,-0.42781067,-0.36311722,0.47471926,0.54587406,2.1272094,97.0
902,-0.40075383,-0.22116852,-0.4560356,0.47471926,0.54587406,2.1272094,97.0
903,-0.40075383,-0.22116852,-0.4560356,0.85704345,0.4704712,2.0443726,97.0
904,-0.008811057,-0.35222626,-0.38021088,0.85704345,0.4704712,2.0443726,97.0
905,-0.008811057,-0.35222626,-0.38021088,1.0078491,0.45347902,1.9625977,97.0
906,0.9428779,-0.83000946,-0.33655548,1.0078491,0.45347902,1.9625977,97.0
907,0.9428779,-0.83000946,-0.33655548,1.3073364,0.32816163,1.6758546,97.0
908,1.358758,-0.99838257,-0.3978691,1.3073364,0.32816163,1.6758546,97.0
909,1.358758,-0.99838257,-0.3978691,1.363623,0.3164795,1.5494751,97.0
910,2.843122,-0.8059082,-0.61265564,1.363623,0.3164795,1.5494751,97.0
911,2.843122,-0.8059082,-0.61265564,1.363623,0.35895997,1.0630738,97.0
912,2.843122,-0.8059082,-0.61265564,1.2404298,0.3345337,0.90802,97.0
913,2.8969831,-0.6088104,-0.6347046,1.2404298,0.3345337,0.90802,97.0
914,4.0932455,0.057899475,-0.0890007,1.2404298,0.3345337,0.90802,97.0
915,4.0932455,0.057899475,-0.0890007,0.544812,0.29099122,0.48640138,97.0
916,4.0932455,0.057899475,-0.0890007,0.31329346,0.31329346,0.3440918,97.0
917,4.0932455,0.057899475,-0.0890007,-0.18691407,0.24532472,-0.029736329,97.0
918,2.962304,0.004585266,0.08608627,-0.18691407,0.24532472,-0.029736329,97.0
919,2.962304,0.004585266,0.08608627,-0.33028564,0.118945315,-0.14230958,97.0
920,2.3360667,-0.15657043,0.14863205,-0.33028564,0.118945315,-0.14230958,97.0
921,2.3360667,-0.15657043,0.14863205,-0.59260255,-0.24001466,-0.40037844,97.0
922,2.6404843,-0.6526489,0.2417221,-0.59260255,-0.24001466,-0.40037844,97.0
923,2.6404843,-0.6526489,0.2417221,-0.7784546,-0.04460449,-0.56817627,97.0
924,1.5883026,-1.3386993,0.7627983,-0.7784546,-0.04460449,-0.56817627,97.0
925,1.5883026,-1.3386993,0.7627983,-0.994043,0.21134034,-0.45772704,97.0
926,-1.1832275,-1.5671005,1.4542427,-0.994043,0.21134034,-0.45772704,97.0
927,-1.1832275,-1.5671005,1.4542427,-1.0641358,-0.04248047,-0.18797608,97.0
928,-3.0535889,-1.5428619,1.691555,-1.0641358,-0.04248047,-0.18797608,97.0
929,-3.0535889,-1.5428619,1.691555,-0.009558106,-0.8889038,0.06796875,97.0
930,-1.928369,-1.3976669,1.130806,-0.009558106,-0.8889038,0.06796875,97.0
931,-1.928369,-1.3976669,1.130806,0.44179687,-0.8315552,0.16036378,97.0
932,1.2847338,-1.561554,-0.23326874,0.44179687,-0.8315552,0.16036378,97.0
933,1.2847338,-1.561554,-0.23326874,1.5696534,-0.10089111,0.42161867,97.0
934,1.3256507,-1.451355,-0.52986526,1.5696534,-0.10089111,0.42161867,97.0
935,1.3256507,-1.451355,-0.52986526,1.6992188,0.11682129,0.44498292,97.0
936,-0.50184536,-0.6203766,-0.3456459,1.6992188,0.11682129,0.44498292,97.0
937,-0.50184536,-0.6203766,-0.3456459,1.269104,0.40250245,0.7497803,97.0
938,-1.0373406,-0.31427002,-0.082107544,1.269104,0.40250245,0.7497803,97.0
939,-1.0373406,-0.31427002,-0.082107544,1.0354614,0.4630371,0.8931519,97.0
940,-1.6728168,0.16043854,0.33939362,1.0354614,0.4630371,0.8931519,97.0
941,-1.6728168,0.16043854,0.33939362,0.6202149,0.56392825,1.1862671,97.0
942,-1.4547696,0.16615295,0.54392624,0.6202149,0.56392825,1.1862671,97.0
943,-1.4547696,0.16615295,0.54392624,0.30161133,0.7540283,1.4528321,97.0
944,-1.2827001,-0.28593445,0.75738144,0.30161133,0.7540283,1.4528321,97.0
945,-1.2827001,-0.28593445,0.75738144,0.032922365,1.0970582,1.7841797,97.0
946,-1.0291996,-0.4741974,0.74643326,0.032922365,1.0970582,1.7841797,97.0
947,-1.0291996,-0.4741974,0.74643326,-0.07752686,1.1607789,1.9073731,97.0
948,-1.1697953,-0.76719666,0.68208313,-0.07752686,1.1607789,1.9073731,97.0
949,-1.1697953,-0.76719666,0.68208313,-0.36639404,1.2149414,2.1282716,97.0
950,-1.2116175,-0.9861069,0.39741135,-0.36639404,1.2149414,2.1282716,97.0
951,-1.2116175,-0.9861069,0.39741135,-0.55968016,1.1257324,2.3311157,97.0
952,-1.0636909,-1.3993454,0.14777374,-0.55968016,1.1257324,2.3311157,97.0
953,-1.0636909,-1.3993454,0.14777374,-0.36745605,0.9876709,2.521216,97.0
954,-0.66782284,-2.0901642,0.17011261,-0.36745605,0.9876709,2.521216,97.0
955,-0.66782284,-2.0901642,0.17011261,-0.0053100586,0.80819094,2.628479,97.0
956,-0.66782284,-2.0901642,0.17011261,-0.0053100586,0.80819094,2.628479,98.0
957,0.0982368,-3.033287,0.59755325,-0.0053100586,0.80819094,2.628479,98.0
958,0.0982368,-3.033287,0.59755325,0.41949463,0.7763306,2.617859,98.0
959,0.35504198,-2.890091,0.65921783,0.41949463,0.7763306,2.617859,98.0
960,0.35504198,-2.890091,0.65921783,0.5299439,0.8028809,2.5445802,98.0
961,0.35642123,-2.629921,0.6866646,0.5299439,0.8028809,2.5445802,98.0
962,0.35642123,-2.629921,0.6866646,0.6637573,0.6775635,2.366162,98.0
963,0.13524675,-2.2632751,0.5503464,0.6637573,0.6775635,2.366162,98.0
964,0.13524675,-2.2632751,0.5503464,0.7699585,0.41312256,2.2004883,98.0
965,0.12455487,-2.171997,0.4612007,0.7699585,0.41312256,2.2004883,98.0
966,0.12455487,-2.171997,0.4612007,0.903772,0.21240234,1.9827759,98.0
967,0.2707131,-2.2032623,0.49295807,0.903772,0.21240234,1.9827759,98.0
968,0.2707131,-2.2032623,0.49295807,0.9526245,0.07115479,1.7555054,98.0
969,0.37213683,-2.1259766,0.5726738,0.9526245,0.07115479,1.7555054,98.0
970,0.37213683,-2.1259766,0.5726738,0.79332274,-0.2824951,1.4698242,98.0
971,0.7041426,-2.1107178,0.6364708,0.79332274,-0.2824951,1.4698242,98.0
972,0.7041426,-2.1107178,0.6364708,0.49171144,-0.5511841,1.2085694,98.0
973,1.2153769,-2.2340088,0.63326263,0.49171144,-0.5511841,1.2085694,98.0
974,1.2153769,-2.2340088,0.63326263,0.4078125,-0.47365722,1.0057251,98.0
975,1.2197134,-2.0528793,0.42246628,0.4078125,-0.47365722,1.0057251,98.0
976,1.2197134,-2.0528793,0.42246628,0.49064943,-0.31010744,0.97280276,98.0
977,0.49104166,-1.2472687,-0.05516815,0.49064943,-0.31010744,0.97280276,98.0
978,0.49104166,-1.2472687,-0.05516815,0.6467652,-0.16885987,0.9409424,98.0
979,-0.52381706,-0.1179657,-0.6146927,0.6467652,-0.16885987,0.9409424,98.0
980,-0.52381706,-0.1179657,-0.6146927,0.6403931,-0.19647217,0.9324463,98.0
981,-1.213182,0.70938873,-0.92627716,0.6403931,-0.19647217,0.9324463,98.0
982,-1.213182,0.70938873,-0.92627716,0.50870365,-0.2899292,0.8209351,98.0
983,-1.396632,1.0691452,-0.8527641,0.50870365,-0.2899292,0.8209351,98.0
984,-1.396632,1.0691452,-0.8527641,0.35789797,-0.2782471,0.61915284,98.0
985,-1.4077108,1.2700348,-0.56066513,0.35789797,-0.2782471,0.61915284,98.0
986,-1.4077108,1.2700348,-0.56066513,0.17523193,-0.2357666,0.4258667,98.0
987,-1.5442107,1.5280075,-0.29512787,0.17523193,-0.2357666,0.4258667,98.0
988,-1.5442107,1.5280075,-0.29512787,0.029736329,-0.23258057,0.24001466,98.0
989,-1.7543993,1.7489548,-0.09968948,0.029736329,-0.23258057,0.24001466,98.0
990,-1.7543993,1.7489548,-0.09968948,-0.04248047,-0.29417726,0.06584473,98.0
991,-1.8048989,1.6441193,0.042793274,-0.04248047,-0.29417726,0.06584473,98.0
992,-1.8048989,1.6441193,0.042793274,-0.004248047,-0.38763428,-0.050976563,98.0
993,-1.5880842,1.1178741,0.04429245,-0.004248047,-0.38763428,-0.050976563,98.0
994,-1.5880842,1.1178741,0.04429245,0.14761963,-0.45135498,-0.19753419,98.0
995,-1.2461143,0.54268646,-0.11125946,0.14761963,-0.45135498,-0.19753419,98.0
996,-1.2461143,0.54268646,-0.11125946,0.31010744,-0.5256958,-0.39613038,98.0
997,-0.9226971,0.1843338,-0.26494598,0.31010744,-0.5256958,-0.39613038,98.0
998,-0.9226971,0.1843338,-0.26494598,0.4800293,-0.6435791,-0.5479981,98.0
999,-0.56956637,-0.0141067505,-0.28555298,0.4800293,-0.6435791,-0.5479981,98.0
1000,-0.56956637,-0.0141067505,-0.28555298,0.62127686,-0.7349121,-0.6945557,98.0
1001,-0.13055545,-0.20450592,-0.11080551,0.62127686,-0.7349121,-0.6945557,98.0
1002,-0.13055545,-0.20450592,-0.11080551,0.6202149,-0.8442993,-0.7869507,98.0
1003,0.38648582,-0.41908264,0.14258194,0.6202149,-0.8442993,-0.7869507,98.0
1004,0.38648582,-0.41908264,0.14258194,0.5235718,-0.8995239,-0.93350834,98.0
1005,0.8306608,-0.46268463,0.20630264,0.5235718,-0.8995239,-0.93350834,98.0
1006,0.8306608,-0.46268463,0.20630264,0.46834716,-0.90695804,-1.1639649,98.0
1007,1.0735619,-0.20576477,0.017436981,0.46834716,-0.90695804,-1.1639649,98.0
1008,1.0735619,-0.20576477,0.017436981,0.35471192,-0.9388184,-1.3976074,98.0
1009,1.260241,0.16081238,-0.10051727,0.35471192,-0.9388184,-1.3976074,98.0
1010,1.260241,0.16081238,-0.10051727,0.019116212,-1.1862671,-1.6896607,98.0
1011,1.8015523,0.23454285,0.041828156,0.019116212,-1.1862671,-1.6896607,98.0
1012,1.8015523,0.23454285,0.041828156,-0.45135498,-1.5069946,-2.073047,98.0
1013,2.9546452,0.095321655,0.16744614,-0.45135498,-1.5069946,-2.073047,98.0
1014,2.9546452,0.095321655,0.16744614,-0.9526245,-1.4358399,-2.5084717,98.0
1015,4.0601883,0.3714218,0.099803925,-0.9526245,-1.4358399,-2.5084717,98.0
1016,4.0601883,0.3714218,0.099803925,-1.622754,-1.0556396,-2.7357423,98.0
1017,4.1668396,1.3014069,-0.2631607,-1.622754,-1.0556396,-2.7357423,98.0
1018,4.1668396,1.3014069,-0.2631607,-2.5594482,-0.8464233,-3.0171754,98.0
1019,3.3718262,2.32621,-0.9802933,-2.5594482,-0.8464233,-3.0171754,98.0
1020,3.3718262,2.32621,-0.9802933,-3.625708,-0.7327881,-3.2497559,98.0
1021,2.2283573,2.6443176,-1.6208801,-3.625708,-0.7327881,-3.2497559,98.0
1022,2.2283573,2.6443176,-1.6208801,-4.335132,-0.4428589,-3.2901123,98.0
1023,0.8657789,2.2711563,-1.611084,-4.335132,-0.4428589,-3.2901123,98.0
1024,0.8657789,2.2711563,-1.611084,-4.4646974,-0.24320069,-3.3209107,98.0
1025,-0.26809502,2.032051,-1.0148201,-4.4646974,-0.24320069,-3.3209107,98.0
1026,-0.26809502,2.032051,-1.0148201,-4.2735353,-0.2899292,-3.361267,98.0
1027,-0.4035139,2.2700882,-0.5075226,-4.2735353,-0.2899292,-3.361267,98.0
1028,-0.4035139,2.2700882,-0.5075226,-3.8986452,-0.270813,-3.3198488,98.0
1029,0.40477657,2.5260696,-0.56500244,-3.8986452,-0.270813,-3.3198488,98.0
1030,0.40477657,2.5260696,-0.56500244,-3.2115235,-0.0722168,-3.3071046,98.0
1031,1.149334,2.4893646,-1.0002213,-3.2115235,-0.0722168,-3.3071046,98.0
1032,1.149334,2.4893646,-1.0002213,-2.5424562,0.09239502,-3.449414,98.0
1033,1.0920506,2.1785507,-1.2659225,-2.5424562,0.09239502,-3.449414,98.0
1034,1.0920506,2.1785507,-1.2659225,-2.0985353,0.22833252,-3.5811036,98.0
1035,0.22472668,1.8035583,-1.0220642,-2.0985353,0.22833252,-3.5811036,98.0
1036,0.22472668,1.8035583,-1.0220642,-1.8680786,0.35577393,-3.4536622,98.0
1037,-1.1033974,1.7252426,-0.32246017,-1.8680786,0.35577393,-3.4536622,98.0
1038,-1.1033974,1.7252426,-0.32246017,-1.8224121,0.48321533,-3.0607178,98.0
1039,-2.4996977,2.0894089,0.5030556,-1.8224121,0.48321533,-3.0607178,98.0
1040,-2.4996977,2.0894089,0.5030556,-1.8765748,0.57561034,-2.4882934,98.0
1041,-3.548037,2.7093582,1.082386,-1.8765748,0.57561034,-2.4882934,98.0
1042,-3.548037,2.7093582,1.082386,-1.9657837,0.60322267,-1.8786987,98.0
1043,-4.051528,3.1065598,1.2028351,-1.9657837,0.60322267,-1.8786987,98.0
1044,-4.051528,3.1065598,1.2028351,-2.0656128,0.6000366,-1.3168945,98.0
1045,-4.049597,2.8765945,1.0984612,-2.0656128,0.6000366,-1.3168945,98.0
1046,-4.049597,2.8765945,1.0984612,-2.1866822,0.56180423,-0.9239502,98.0
1047,-3.5582564,2.1181335,1.124691,-2.1866822,0.56180423,-0.9239502,98.0
1048,-3.5582564,2.1181335,1.124691,-2.162256,0.51082766,-0.69349366,98.0
1049,-2.6116076,1.2950897,1.1771584,-2.162256,0.51082766,-0.69349366,98.0
1050,-2.6116076,1.2950897,1.1771584,-1.8840088,0.5533081,-0.5766724,98.0
1051,-1.465287,0.74633026,0.95378876,-1.8840088,0.5533081,-0.5766724,98.0
1052,-1.465287,0.74633026,0.95378876,-1.5717773,0.5299439,-0.541626,98.0
1053,-0.44029605,0.49059296,0.502655,-1.5717773,0.5299439,-0.541626,98.0
1054,-0.44029605,0.49059296,0.502655,-1.2850342,0.5012695,-0.6074707,98.0
1055,-0.44029605,0.49059296,0.502655,-1.0269654,0.5033936,-0.7306641,98.0
1056,0.3232392,0.42396545,0.16657639,-1.0269654,0.5033936,-0.7306641,98.0
1057,1.2274024,0.42734528,0.47312927,-1.0269654,0.5033936,-0.7306641,98.0
1058,1.2274024,0.42734528,0.47312927,-1.0269654,0.5033936,-0.7306641,98.0
1059,1.2274024,0.42734528,0.47312927,-0.75721437,0.44498292,-0.8464233,98.0
1060,1.2274024,0.42734528,0.47312927,-0.5479981,0.2442627,-0.92076415,98.0
1061,1.2505378,0.22006226,0.8306656,-0.5479981,0.2442627,-0.92076415,98.0
1062,1.2505378,0.22006226,0.8306656,-0.39506838,-0.06265869,-1.0545777,98.0
1063,1.0573273,-0.056152344,1.1870193,-0.39506838,-0.06265869,-1.0545777,98.0
1064,1.0573273,-0.056152344,1.1870193,-0.27718505,-0.38869628,-1.1204224,98.0
1065,0.77937007,-0.3111801,1.3113594,-0.27718505,-0.38869628,-1.1204224,98.0
1066,0.77937007,-0.3111801,1.3113594,-0.118945315,-0.83686525,-1.1214844,98.0
1067,1.1616552,-0.45924377,1.071022,-0.118945315,-0.83686525,-1.1214844,98.0
1068,1.1616552,-0.45924377,1.071022,0.3069214,-1.260608,-1.0609497,98.0
1069,1.9588041,-0.6243515,0.6743355,0.3069214,-1.260608,-1.0609497,98.0
1070,1.9588041,-0.6243515,0.6743355,1.0630738,-1.0418335,-0.78164065,98.0
1071,1.4709373,-0.8755417,0.27050018,1.0630738,-1.0418335,-0.78164065,98.0
1072,1.4709373,-0.8755417,0.27050018,1.7863038,-0.5607422,-0.42055663,98.0
1073,-0.538985,-0.7762604,-0.25769424,1.7863038,-0.5607422,-0.42055663,98.0
1074,-0.538985,-0.7762604,-0.25769424,1.9742798,-0.24320069,0.15080567,98.0
1075,-2.1646109,-0.1541977,-0.84349823,1.9742798,-0.24320069,0.15080567,98.0
1076,-2.1646109,-0.1541977,-0.84349823,1.9509156,-0.29311523,0.8878418,98.0
1077,-1.7342888,0.49237823,-1.2336388,1.9509156,-0.29311523,0.8878418,98.0
1078,-1.7342888,0.49237823,-1.2336388,2.1208375,-0.21027832,1.6609863,98.0
1079,0.14814031,0.7010269,-1.4058304,2.1208375,-0.21027832,1.6609863,98.0
1080,0.14814031,0.7010269,-1.4058304,2.5828125,0.20284425,2.252527,98.0
1081,1.2335758,0.6374588,-1.4087715,2.5828125,0.20284425,2.252527,98.0
1082,1.2335758,0.6374588,-1.4087715,2.526526,0.41843262,2.5711305,98.0
1083,0.81801295,0.56879425,-1.2568169,2.526526,0.41843262,2.5711305,98.0
1084,0.81801295,0.56879425,-1.2568169,2.6890137,0.35577393,2.9683228,98.0
1085,0.14138556,0.41596222,-0.9963341,2.6890137,0.35577393,2.9683228,98.0
1086,0.14138556,0.41596222,-0.9963341,2.8823,0.31010744,3.1902833,98.0
1087,0.07769585,0.2419281,-0.7690277,2.8823,0.31010744,3.1902833,98.0
1088,0.07769585,0.2419281,-0.7690277,3.169043,0.2814331,3.3846314,98.0
1089,0.39427328,0.05316162,-0.8134384,3.169043,0.2814331,3.3846314,98.0
1090,0.39427328,0.05316162,-0.8134384,3.1435547,0.3175415,3.3092287,98.0
1091,0.5342419,-0.19394684,-1.064949,3.1435547,0.3175415,3.3092287,98.0
1092,0.5342419,-0.19394684,-1.064949,2.884424,0.34940186,3.2040894,98.0
1093,0.38944197,-0.38179016,-1.2702103,2.884424,0.34940186,3.2040894,98.0
1094,0.38944197,-0.38179016,-1.2702103,2.1272094,0.42161867,2.9566407,98.0
1095,0.26381183,-0.542923,-1.2970505,2.1272094,0.42161867,2.9566407,98.0
1096,0.26381183,-0.542923,-1.2970505,1.6620483,0.45878908,2.8323853,98.0
1097,0.35169888,-0.7142105,-1.151619,1.6620483,0.45878908,2.8323853,98.0
1098,0.35169888,-0.7142105,-1.151619,1.5781494,0.5798584,2.618921,98.0
1099,0.45736003,-0.817482,-0.93120575,1.5781494,0.5798584,2.618921,98.0
1100,0.45736003,-0.817482,-0.93120575,1.5133667,0.6595093,2.3013794,98.0
1101,0.48576117,-0.78957367,-0.6940613,1.5133667,0.6595093,2.3013794,98.0
1102,0.48576117,-0.78957367,-0.6940613,1.1809571,0.6202149,1.9402955,98.0
1103,0.7627301,-0.7479782,-0.47930908,1.1809571,0.6202149,1.9402955,98.0
1104,0.7627301,-0.7479782,-0.47930908,0.7784546,0.5787964,1.6015137,98.0
1105,1.4180942,-0.7693863,-0.35743332,0.7784546,0.5787964,1.6015137,98.0
1106,1.4180942,-0.7693863,-0.35743332,0.38869628,0.58198243,1.2298096,98.0
1107,1.4180942,-0.7693863,-0.35743332,0.009558106,0.542688,0.7784546,98.0
1108,2.1695585,-0.7505417,-0.34204865,0.009558106,0.542688,0.7784546,98.0
1109,2.763369,-0.67466736,-0.5278263,0.009558106,0.542688,0.7784546,98.0
1110,2.763369,-0.67466736,-0.5278263,-0.31860352,0.5246338,0.30054933,98.0
1111,2.763369,-0.67466736,-0.5278263,-0.57454836,0.48215333,-0.118945315,98.0
1112,2.763369,-0.67466736,-0.5278263,-0.8963379,0.27399904,-0.4694092,98.0
1113,1.9693623,-0.29373932,-0.37947655,-0.8963379,0.27399904,-0.4694092,98.0
1114,1.9693623,-0.29373932,-0.37947655,-1.2967163,0.0031860352,-0.8400513,98.0
1115,1.7069106,-0.040763855,-0.1947918,-1.2967163,0.0031860352,-0.8400513,98.0
1116,1.7069106,-0.040763855,-0.1947918,-1.6142578,-0.24213867,-1.2744141,98.0
1117,0.73488903,-0.13043976,0.34074783,-1.6142578,-0.24213867,-1.2744141,98.0
1118,0.73488903,-0.13043976,0.34074783,-1.6832886,-0.52888185,-1.6482422,98.0
1119,-1.0211706,-0.39173126,1.1582432,-1.6832886,-0.52888185,-1.6482422,98.0
1120,-1.0211706,-0.39173126,1.1582432,-1.357251,-0.8591675,-1.8309082,98.0
1121,-2.2555718,-0.48169708,1.7352257,-1.357251,-0.8591675,-1.8309082,98.0
1122,-2.2555718,-0.48169708,1.7352257,-0.6775635,-1.260608,-1.9137452,98.0
1123,-1.9263573,-0.22679138,1.5158272,-0.6775635,-1.260608,-1.9137452,98.0
1124,-1.9263573,-0.22679138,1.5158272,0.12956543,-1.4326538,-1.9445435,98.0
1125,-0.61995554,0.120521545,0.5268593,0.12956543,-1.4326538,-1.9445435,98.0
1126,-0.61995554,0.120521545,0.5268593,0.7391602,-1.3445069,-1.9774659,98.0
1127,0.26476574,0.27867126,-0.5432701,0.7391602,-1.3445069,-1.9774659,98.0
1128,0.26476574,0.27867126,-0.5432701,0.905896,-1.1066163,-2.1272094,98.0
1129,0.09215927,0.258873,-1.0789871,0.905896,-1.1066163,-2.1272094,98.0
1130,0.09215927,0.258873,-1.0789871,0.68074954,-0.8421753,-2.2100465,98.0
1131,-0.710269,0.32637024,-0.9969063,0.68074954,-0.8421753,-2.2100465,98.0
1132,-0.710269,0.32637024,-0.9969063,0.1529297,-0.57561034,-2.2206666,98.0
1133,-1.4661279,0.6069107,-0.6603813,0.1529297,-0.57561034,-2.2206666,98.0
1134,-1.4661279,0.6069107,-0.6603813,-0.52038574,-0.3419678,-2.0380006,98.0
1135,-1.9609518,0.8639221,-0.38137054,-0.52038574,-0.3419678,-2.0380006,98.0
1136,-1.9609518,0.8639221,-0.38137054,-1.1299804,-0.19753419,-1.7321411,98.0
1137,-2.220971,0.81954193,-0.12066078,-1.1299804,-0.19753419,-1.7321411,98.0
1138,-2.220971,0.81954193,-0.12066078,-1.5346069,-0.081774905,-1.5006226,98.0
1139,-2.286799,0.5364227,0.23822403,-1.5346069,-0.081774905,-1.5006226,98.0
1140,-2.286799,0.5364227,0.23822403,-1.7714356,0.021240234,-1.268042,98.0
1141,-2.272994,0.24969482,0.6440201,-1.7714356,0.021240234,-1.268042,98.0
1142,-2.272994,0.24969482,0.6440201,-1.8818848,0.06584473,-1.0524536,98.0
1143,-2.2007926,0.13372803,0.9330635,-1.8818848,0.06584473,-1.0524536,98.0
1144,-2.2007926,0.13372803,0.9330635,-1.9434814,0.10407715,-0.90058595,98.0
1145,-2.0195942,0.32602692,1.0204735,-1.9434814,0.10407715,-0.90058595,98.0
1146,-2.0195942,0.32602692,1.0204735,-2.3162477,0.11363526,-0.7604004,98.0
1147,-1.6352066,0.6198807,0.84719086,-2.3162477,0.11363526,-0.7604004,98.0
1148,-1.6352066,0.6198807,0.84719086,-2.0709229,0.1709839,-0.54375,98.0
1149,-0.99771607,0.7094574,0.67219925,-2.0709229,0.1709839,-0.54375,98.0
1150,-0.99771607,0.7094574,0.67219925,-1.6546143,0.046728518,-0.55968016,98.0
1151,-0.04925926,0.59329987,0.785305,-1.6546143,0.046728518,-0.55968016,98.0
1152,-0.04925926,0.59329987,0.785305,-1.6546143,0.046728518,-0.55968016,98.0
1153,-0.04925926,0.59329987,0.785305,-1.4315919,0.023364259,-0.5065796,98.0
1154,-0.04925926,0.59329987,0.785305,-1.0588257,0.083898924,-0.4959595,98.0
1155,1.0106659,0.28605652,0.9298668,-1.0588257,0.083898924,-0.4959595,98.0
1156,2.5651124,-0.20987701,1.0636215,-1.0588257,0.083898924,-0.4959595,98.0
1157,2.5651124,-0.20987701,1.0636215,-1.0099732,0.029736329,-0.68712157,98.0
1158,2.5651124,-0.20987701,1.0636215,-1.0354614,-0.05522461,-0.9855469,98.0
1159,2.5651124,-0.20987701,1.0636215,-0.7943848,-0.09239502,-1.0630738,98.0
1160,2.3461084,-0.20069885,1.0632896,-0.7943848,-0.09239502,-1.0630738,98.0
1161,2.9733346,-0.7311554,1.4585915,-0.7943848,-0.09239502,-1.0630738,98.0
1162,2.9733346,-0.7311554,1.4585915,-0.5363159,-0.34833986,-1.2085694,98.0
1163,2.9733346,-0.7311554,1.4585915,-0.42268068,-0.66588134,-1.264856,98.0
1164,2.9733346,-0.7311554,1.4585915,0.0031860352,-0.46728516,-1.179895,98.0
1165,2.189178,-1.1125565,1.4686317,0.0031860352,-0.46728516,-1.179895,98.0
1166,2.189178,-1.1125565,1.4686317,0.5607422,-0.05628662,-0.9876709,98.0
1167,-0.10799599,-1.0661926,0.68920135,0.5607422,-0.05628662,-0.9876709,98.0
1168,-0.10799599,-1.0661926,0.68920135,0.7784546,0.19116211,-0.52675784,98.0
1169,-1.8934891,-0.564476,-0.5088196,0.7784546,0.19116211,-0.52675784,98.0
1170,-1.8934891,-0.564476,-0.5088196,0.9430664,0.08496094,0.16354981,98.0
1171,-1.5174646,0.05656433,-1.2798347,0.9430664,0.08496094,0.16354981,98.0
1172,-1.5174646,0.05656433,-1.2798347,1.1873292,0.1731079,0.84536135,98.0
1173,0.3591118,0.6276703,-1.6460724,1.1873292,0.1731079,0.84536135,98.0
1174,0.3591118,0.6276703,-1.6460724,1.4443359,0.63826907,1.5855836,98.0
1175,1.4939423,1.0116806,-1.7545662,1.4443359,0.63826907,1.5855836,98.0
1176,1.4939423,1.0116806,-1.7545662,1.4252198,0.98129886,2.0656128,98.0
1177,1.0881226,1.1129074,-1.5284958,1.4252198,0.98129886,2.0656128,98.0
1178,1.0881226,1.1129074,-1.5284958,1.2340577,1.0386475,2.34917,98.0
1179,0.09930658,1.2501678,-1.0097351,1.2340577,1.0386475,2.34917,98.0
1180,0.09930658,1.2501678,-1.0097351,0.027612304,1.0343994,2.7060058,98.0
1181,-0.5217266,1.1263885,-0.5124283,0.027612304,1.0343994,2.7060058,98.0
1182,-0.5217266,1.1263885,-0.5124283,0.0,0.8315552,3.1191285,98.0
1183,-0.6925521,0.5875244,-0.13152313,0.0,0.8315552,3.1191285,98.0
1184,-0.6925521,0.5875244,-0.13152313,0.0010620117,0.6573853,3.075586,98.0
1185,-0.8410046,0.12168884,0.12991333,0.0010620117,0.6573853,3.075586,98.0
1186,-0.8410046,0.12168884,0.12991333,0.09664307,0.38551027,2.9619508,98.0
1187,-1.084083,-0.1828003,0.21530914,0.09664307,0.38551027,2.9619508,98.0
1188,-1.084083,-0.1828003,0.21530914,0.4343628,0.12850343,2.9205322,98.0
1189,-1.2205868,-0.47601318,0.16283798,0.4343628,0.12850343,2.9205322,98.0
1190,-1.2205868,-0.47601318,0.16283798,1.0184692,-0.03186035,2.7771606,98.0
1191,-1.1370652,-0.6561127,0.027133942,1.0184692,-0.03186035,2.7771606,98.0
1192,-1.1370652,-0.6561127,0.027133942,1.5515991,-0.1274414,2.4288208,98.0
1193,-0.8971033,-0.6588516,-0.20787048,1.5515991,-0.1274414,2.4288208,98.0
1194,-0.8971033,-0.6588516,-0.20787048,1.9551636,-0.20921631,2.2270386,98.0
1195,-0.47739947,-0.60183716,-0.41031647,1.9551636,-0.20921631,2.2270386,98.0
1196,-0.47739947,-0.60183716,-0.41031647,2.1442018,-0.30054933,1.9795898,98.0
1197,0.28560972,-0.57267,-0.46787643,2.1442018,-0.30054933,1.9795898,98.0
1198,0.28560972,-0.57267,-0.46787643,2.2196045,-0.3345337,1.634436,98.0
1199,1.3217251,-0.5409088,-0.4872055,2.2196045,-0.3345337,1.634436,98.0
1200,1.3217251,-0.5409088,-0.4872055,2.1144655,-0.32178956,1.2372437,98.0
1201,2.3957958,-0.4564972,-0.6114197,2.1144655,-0.32178956,1.2372437,98.0
1202,2.3957958,-0.4564972,-0.6114197,1.7236451,-0.3355957,0.67650145,98.0
1203,3.4298203,-0.42173004,-0.82741547,1.7236451,-0.3355957,0.67650145,98.0
1204,3.4298203,-0.42173004,-0.82741547,1.1236085,-0.3175415,0.015930176,98.0
1205,4.17026,-0.47496033,-0.9381294,1.1236085,-0.3175415,0.015930176,98.0
1206,4.17026,-0.47496033,-0.9381294,0.4163086,-0.23151855,-0.6159668,98.0
1207,3.8302145,-0.45472717,-0.7713909,0.4163086,-0.23151855,-0.6159668,98.0
1208,3.8302145,-0.45472717,-0.7713909,-0.36108398,-0.2899292,-1.0651978,98.0
1209,2.751171,-0.23087311,-0.39483452,-0.36108398,-0.2899292,-1.0651978,98.0
1210,2.751171,-0.23087311,-0.39483452,-1.1384766,-0.5734863,-1.453894,98.0
1211,2.234274,-0.008987427,-0.0037326813,-1.1384766,-0.5734863,-1.453894,98.0
1212,2.234274,-0.008987427,-0.0037326813,-1.7034668,-0.7880127,-1.7937378,98.0
1213,1.5872116,-0.13214111,0.50227547,-1.7034668,-0.7880127,-1.7937378,98.0
1214,1.5872116,-0.13214111,0.50227547,-1.809668,-0.86978763,-2.0401247,98.0
1215,-0.32637358,-0.5107193,1.1727295,-1.809668,-0.86978763,-2.0401247,98.0
1216,-0.32637358,-0.5107193,1.1727295,-1.4347779,-1.0375855,-2.092163,98.0
1217,-2.282095,-0.74534607,1.6182861,-1.4347779,-1.0375855,-2.092163,98.0
1218,-2.282095,-0.74534607,1.6182861,-0.6467652,-1.3264526,-1.9222412,98.0
1219,-2.5137615,-0.5932846,1.3027458,-0.6467652,-1.3264526,-1.9222412,98.0
1220,-2.5137615,-0.5932846,1.3027458,0.35471192,-1.3710572,-1.6896607,98.0
1221,-1.26057,-0.17549896,0.22988129,0.35471192,-1.3710572,-1.6896607,98.0
1222,-1.26057,-0.17549896,0.22988129,1.2340577,-1.0768799,-1.3391968,98.0
1223,-0.30155897,0.15670776,-0.8609543,1.2340577,-1.0768799,-1.3391968,98.0
1224,-0.30155897,0.15670776,-0.8609543,1.6110718,-0.6616333,-1.1098022,98.0
1225,-0.5066767,0.3406601,-1.2181206,1.6110718,-0.6616333,-1.1098022,98.0
1226,-0.5066767,0.3406601,-1.2181206,1.2255615,-0.35789797,-0.95793456,98.0
1227,-1.2304268,0.6602478,-0.84534454,1.2255615,-0.35789797,-0.95793456,98.0
1228,-1.2304268,0.6602478,-0.84534454,0.28355715,-0.04248047,-0.7688965,98.0
1229,-1.7371368,1.1491623,-0.24199677,0.28355715,-0.04248047,-0.7688965,98.0
1230,-1.7371368,1.1491623,-0.24199677,-0.85491943,0.21452637,-0.49383545,98.0
1231,-1.9862671,1.3859558,0.17079544,-0.85491943,0.21452637,-0.49383545,98.0
1232,-1.9862671,1.3859558,0.17079544,-1.7640015,0.39188233,-0.2081543,98.0
1233,-2.157422,1.1208038,0.2796402,-1.7640015,0.39188233,-0.2081543,98.0
1234,-2.157422,1.1208038,0.2796402,-2.3215578,0.5671143,-0.07115479,98.0
1235,-2.357615,0.6491089,0.31035614,-2.3215578,0.5671143,-0.07115479,98.0
1236,-2.357615,0.6491089,0.31035614,-2.6582153,0.60959476,0.046728518,98.0
1237,-2.504952,0.27207947,0.49324417,-2.6582153,0.60959476,0.046728518,98.0
1238,-2.504952,0.27207947,0.49324417,-2.623169,0.6053467,0.11151123,98.0
1239,-2.407526,0.029342651,0.7871132,-2.623169,0.6053467,0.11151123,98.0
1240,-2.407526,0.029342651,0.7871132,-2.3066895,0.6074707,0.023364259,98.0
1241,-2.067891,-0.16666412,1.066288,-2.3066895,0.6074707,0.023364259,98.0
1242,-2.067891,-0.16666412,1.066288,-1.8001099,0.5713623,-0.11044922,98.0
1243,-1.6662756,-0.39572144,1.2467422,-1.8001099,0.5713623,-0.11044922,98.0
1244,-1.6662756,-0.39572144,1.2467422,-1.3625611,0.5851685,-0.30267334,98.0
1245,-1.6662756,-0.39572144,1.2467422,-1.3625611,0.5851685,-0.30267334,103.0
1246,-1.2491949,-0.5334244,1.1636276,-1.3625611,0.5851685,-0.30267334,103.0
1247,-1.2491949,-0.5334244,1.1636276,-0.6988037,0.5703003,-0.21983643,103.0
1248,-0.77369666,-0.53484344,0.9259834,-0.6988037,0.5703003,-0.21983643,103.0
1249,-0.77369666,-0.53484344,0.9259834,0.07115479,0.44604492,-0.35471192,103.0
1250,-0.003478825,-0.4872284,0.720253,0.07115479,0.44604492,-0.35471192,103.0
1251,-0.003478825,-0.4872284,0.720253,0.5798584,0.39188233,-0.4258667,103.0
1252,1.063965,-0.31092834,0.32481003,0.5798584,0.39188233,-0.4258667,103.0
1253,1.063965,-0.31092834,0.32481003,0.56605226,0.38338622,-0.43967286,103.0
1254,2.0191774,0.02242279,-0.25658417,0.56605226,0.38338622,-0.43967286,103.0
1255,2.0191774,0.02242279,-0.25658417,0.026550293,0.27718505,-0.5894165,103.0
1256,2.680137,0.23560333,-0.5617485,0.026550293,0.27718505,-0.5894165,103.0
1257,2.680137,0.23560333,-0.5617485,-0.64570314,0.24320069,-0.71791995,103.0
1258,2.9216976,0.13468933,-0.33006287,-0.64570314,0.24320069,-0.71791995,103.0
1259,2.9216976,0.13468933,-0.33006287,-1.1607789,0.06796875,-0.7869507,103.0
1260,3.107329,-0.097473145,0.23797607,-1.1607789,0.06796875,-0.7869507,103.0
1261,3.107329,-0.097473145,0.23797607,-1.4804443,-0.35895997,-0.95581055,103.0
1262,3.7595327,-0.39525604,0.94739914,-1.4804443,-0.35895997,-0.95581055,103.0
1263,3.7595327,-0.39525604,0.94739914,-1.5802735,-0.6117188,-1.1193603,103.0
1264,3.5802336,-1.0680847,1.758152,-1.5802735,-0.6117188,-1.1193603,103.0
1265,3.5802336,-1.0680847,1.758152,-0.9834229,-0.8251831,-1.2956543,103.0
1266,1.4910669,-1.8788681,2.1092682,-0.9834229,-0.8251831,-1.2956543,103.0
1267,1.4910669,-1.8788681,2.1092682,0.19434814,-0.74871826,-1.4156617,103.0
1268,-1.3077202,-1.9731369,1.2056046,0.19434814,-0.74871826,-1.4156617,103.0
1269,-1.3077202,-1.9731369,1.2056046,1.357251,-0.4258667,-1.0036011,103.0
1270,-3.0248504,-1.0690384,-0.58994675,1.357251,-0.4258667,-1.0036011,103.0
1271,-3.0248504,-1.0690384,-0.58994675,2.2493408,-0.48109132,-0.36108398,103.0
1272,-2.6382277,0.26618195,-2.1214447,2.2493408,-0.48109132,-0.36108398,103.0
1273,-2.6382277,0.26618195,-2.1214447,2.7580445,-0.46728516,0.19222413,103.0
1274,-0.9099231,1.2378082,-2.795826,2.7580445,-0.46728516,0.19222413,103.0
1275,-0.9099231,1.2378082,-2.795826,2.716626,0.033984374,0.6754395,103.0
1276,0.11020851,1.4973984,-2.639286,2.716626,0.033984374,0.6754395,103.0
1277,0.11020851,1.4973984,-2.639286,2.265271,0.53525394,1.0227174,103.0
1278,-0.32780004,1.339714,-1.9514313,2.265271,0.53525394,1.0227174,103.0
1279,-0.32780004,1.339714,-1.9514313,1.722583,0.7657105,1.3434448,103.0
1280,-1.1594203,1.1842117,-1.1456528,1.722583,0.7657105,1.3434448,103.0
1281,-1.1594203,1.1842117,-1.1456528,1.1512207,0.9876709,1.6578003,103.0
1282,-1.5542209,1.0850906,-0.40153122,1.1512207,0.9876709,1.6578003,103.0
1283,-1.5542209,1.0850906,-0.40153122,0.6159668,1.0439576,1.9551636,103.0
1284,-1.5113332,0.85372925,0.18818665,0.6159668,1.0439576,1.9551636,103.0
1285,-1.5113332,0.85372925,0.18818665,0.1263794,1.0046631,2.156946,103.0
1286,-1.2892301,0.42765808,0.48291016,0.1263794,1.0046631,2.156946,103.0
1287,-1.2892301,0.42765808,0.48291016,-0.22514649,0.8612915,2.3045654,103.0
1288,-1.0989745,-0.046653748,0.4866104,-0.22514649,0.8612915,2.3045654,103.0
1289,-1.0989745,-0.046653748,0.4866104,-0.32497558,0.67225343,2.3385499,103.0
1290,-0.9748339,-0.48303986,0.3844185,-0.32497558,0.67225343,2.3385499,103.0
1291,-0.9748339,-0.48303986,0.3844185,-0.07115479,0.4895874,2.2429688,103.0
1292,-0.8162441,-0.8588791,0.26432037,-0.07115479,0.4895874,2.2429688,103.0
1293,-0.8162441,-0.8588791,0.26432037,0.4609131,0.38338622,1.992334,103.0
1294,-0.49457246,-1.0175247,0.057964325,0.4609131,0.38338622,1.992334,103.0
1295,-0.49457246,-1.0175247,0.057964325,0.97067875,0.2984253,1.7013428,103.0
1296,0.11381471,-0.827446,-0.21930313,0.97067875,0.2984253,1.7013428,103.0
1297,0.11381471,-0.827446,-0.21930313,1.26167,0.22196046,1.4698242,103.0
1298,1.0033321,-0.46420288,-0.44056702,1.26167,0.22196046,1.4698242,103.0
1299,1.0033321,-0.46420288,-0.44056702,1.3349488,0.22408448,1.2064453,103.0
1300,2.0041428,-0.17830658,-0.56933594,1.3349488,0.22408448,1.2064453,103.0
1301,2.0041428,-0.17830658,-0.56933594,1.1639649,0.23364258,0.8358032,103.0
1302,3.0816712,0.007926941,-0.68834305,1.1639649,0.23364258,0.8358032,103.0
1303,3.0816712,0.007926941,-0.68834305,0.7349121,0.1996582,0.3802002,103.0
1304,4.2925344,0.11557007,-0.8263931,0.7349121,0.1996582,0.3802002,103.0
1305,4.2925344,0.11557007,-0.8263931,0.09133301,0.23789063,-0.058410645,103.0
1306,5.020722,0.10412598,-0.7985172,0.09133301,0.23789063,-0.058410645,103.0
1307,5.020722,0.10412598,-0.7985172,-0.6180908,0.35046387,-0.42055663,103.0
1308,4.3925905,0.11022949,-0.44784546,-0.6180908,0.35046387,-0.42055663,103.0
1309,4.3925905,0.11022949,-0.44784546,-1.2988404,0.18479005,-0.69136965,103.0
1310,3.2932472,0.32082367,0.044885635,-1.2988404,0.18479005,-0.69136965,103.0
1311,3.2932472,0.32082367,0.044885635,-1.8627685,-0.1731079,-0.9770508,103.0
1312,2.510953,0.47573853,0.459198,-1.8627685,-0.1731079,-0.9770508,103.0
1313,2.510953,0.47573853,0.459198,-2.1293335,-0.34833986,-1.26698,103.0
1314,0.80977535,0.20822906,0.9519539,-2.1293335,-0.34833986,-1.26698,103.0
1315,0.80977535,0.20822906,0.9519539,-2.0188844,-0.5320679,-1.5505371,103.0
1316,-1.9729557,-0.31307983,1.646244,-2.0188844,-0.5320679,-1.5505371,103.0
1317,-1.9729557,-0.31307983,1.646244,-1.355127,-0.7540283,-1.6917847,103.0
1318,-4.007808,-0.6285248,2.0567398,-1.355127,-0.7540283,-1.6917847,103.0
1319,-4.007808,-0.6285248,2.0567398,-0.31966552,-1.0959961,-1.7310791,103.0
1320,-3.784042,-0.4924469,1.5612602,-0.31966552,-1.0959961,-1.7310791,103.0
1321,-3.784042,-0.4924469,1.5612602,0.76358646,-1.2244996,-1.6631104,103.0
1322,-1.9822016,-0.08431244,0.26286316,0.76358646,-1.2244996,-1.6631104,103.0
1323,-1.9822016,-0.08431244,0.26286316,1.4273437,-1.0577637,-1.531421,103.0
1324,-0.5759344,0.30217743,-1.0020027,1.4273437,-1.0577637,-1.531421,103.0
1325,-0.5759344,0.30217743,-1.0020027,1.5091187,-0.79013675,-1.5048707,103.0
1326,-0.4093194,0.5800247,-1.4605255,1.5091187,-0.79013675,-1.5048707,103.0
1327,-0.4093194,0.5800247,-1.4605255,1.0747559,-0.5522461,-1.4740723,103.0
1328,-0.9019551,0.81479645,-1.0845108,1.0747559,-0.5522461,-1.4740723,103.0
1329,-0.9019551,0.81479645,-1.0845108,0.4078125,-0.2623169,-1.2754761,103.0
1330,-1.416132,1.0688629,-0.5121994,0.4078125,-0.2623169,-1.2754761,103.0
1331,-1.416132,1.0688629,-0.5121994,-0.40250245,0.025488282,-0.8952759,103.0
1332,-1.9285233,1.1518555,-0.26775742,-0.40250245,0.025488282,-0.8952759,103.0
1333,-1.9285233,1.1518555,-0.26775742,-1.1002442,0.18479005,-0.5161377,103.0
1334,-2.4781702,0.89066315,-0.20423126,-1.1002442,0.18479005,-0.5161377,103.0
1335,-2.4781702,0.89066315,-0.20423126,-1.5473511,0.25806886,-0.3536499,103.0
1336,-2.7968674,0.45030975,0.06800079,-1.5473511,0.25806886,-0.3536499,103.0
1337,-2.7968674,0.45030975,0.06800079,-1.7586914,0.22089843,-0.22833252,103.0
1338,-2.672577,0.032936096,0.5394478,-1.7586914,0.22089843,-0.22833252,103.0
1339,-2.672577,0.032936096,0.5394478,-1.7013428,0.19328614,-0.13168946,103.0
1340,-2.2213502,-0.23727417,0.8994293,-1.7013428,0.19328614,-0.13168946,103.0
1341,-2.2213502,-0.23727417,0.8994293,-1.44115,0.17841797,-0.12319336,103.0
1342,-1.7609669,-0.28063202,0.9714966,-1.44115,0.17841797,-0.12319336,103.0
1343,-1.7609669,-0.28063202,0.9714966,-1.085376,0.18160401,-0.16992188,103.0
1344,-1.4837247,-0.12852478,0.92684174,-1.085376,0.18160401,-0.16992188,103.0
1345,-1.4837247,-0.12852478,0.92684174,-1.0057251,0.07965088,-0.34090576,103.0
1346,-1.4837247,-0.12852478,0.92684174,-1.0057251,0.07965088,-0.34090576,106.0
1347,-1.0724778,-0.081848145,0.8695755,-1.0057251,0.07965088,-0.34090576,106.0
1348,-1.0724778,-0.081848145,0.8695755,-0.6701294,-0.025488282,-0.26019287,106.0
1349,-1.0724778,-0.081848145,0.8695755,0.010620117,-0.14868164,-0.38657227,106.0
1350,-0.15197635,-0.38809967,0.6950493,0.010620117,-0.14868164,-0.38657227,106.0
1351,1.1230478,-0.68024445,0.42480087,0.010620117,-0.14868164,-0.38657227,106.0
1352,1.1230478,-0.68024445,0.42480087,0.3802002,-0.29205322,-0.48109132,106.0
1353,2.5110238,-0.61060333,0.087753296,0.3802002,-0.29205322,-0.48109132,106.0
1354,2.5110238,-0.61060333,0.087753296,0.39613038,-0.32922363,-0.60322267,106.0
1355,3.6638606,-0.34430695,-0.2141838,0.39613038,-0.32922363,-0.60322267,106.0
1356,3.6638606,-0.34430695,-0.2141838,0.1274414,-0.15505372,-0.6775635,106.0
1357,3.654111,-0.13847351,-0.22896576,0.1274414,-0.15505372,-0.6775635,106.0
1358,3.654111,-0.13847351,-0.22896576,-0.35577393,-0.06265869,-0.6988037,106.0
1359,2.774644,-5.2424545,13.830902,-0.35577393,-0.06265869,-0.6988037,106.0
1360,2.774644,-5.2424545,13.830902,-0.81987303,-0.4067505,-0.5798584,106.0
1361,2.398963,-4.4043655,11.492027,-0.81987303,-0.4067505,-0.5798584,106.0
1362,2.398963,-4.4043655,11.492027,-0.93350834,-0.81243896,-0.61915284,106.0
1363,3.2106986,-3.9983826,9.713909,-0.93350834,-0.81243896,-0.61915284,106.0
1364,3.2106986,-3.9983826,9.713909,-0.5787964,-0.71791995,-0.6403931,106.0
1365,3.1900797,-3.9282455,8.254772,-0.5787964,-0.71791995,-0.6403931,106.0
1366,3.1900797,-3.9282455,8.254772,0.19541016,-0.34727785,-0.725354,106.0
1367,1.0125251,-3.5617752,6.45842,0.19541016,-0.34727785,-0.725354,106.0
1368,1.0125251,-3.5617752,6.45842,0.903772,0.25806886,-0.59260255,106.0
1369,-2.0615377,-2.3624344,4.2688217,0.903772,0.25806886,-0.59260255,106.0
1370,-2.0615377,-2.3624344,4.2688217,1.4284058,0.2899292,-0.10938721,106.0
1371,-3.4096549,-0.60939026,2.4723701,1.4284058,0.2899292,-0.10938721,106.0
1372,-3.4096549,-0.60939026,2.4723701,1.7374512,-0.05522461,0.37489015,106.0
1373,-1.9914689,0.8171768,1.4453888,1.7374512,-0.05522461,0.37489015,106.0
1374,-1.9914689,0.8171768,1.4453888,1.9116211,0.16354981,0.8326172,106.0
1375,0.07071662,1.3228836,1.0179062,1.9116211,0.16354981,0.8326172,106.0
1376,0.07071662,1.3228836,1.0179062,2.0284424,0.7604004,1.0460815,106.0
1377,0.32835054,1.3180771,0.9602814,2.0284424,0.7604004,1.0460815,106.0
1378,0.32835054,1.3180771,0.9602814,1.8850708,0.9834229,1.1023682,106.0
1379,-0.9039333,1.363327,1.1195793,1.8850708,0.9834229,1.1023682,106.0
1380,-0.9039333,1.363327,1.1195793,1.5229248,0.9430664,1.2043213,106.0
1381,-2.0210593,1.4940033,1.2738991,1.5229248,0.9430664,1.2043213,106.0
1382,-2.0210593,1.4940033,1.2738991,1.0917481,0.91864014,1.4634522,106.0
1383,-2.523537,1.6083603,1.1908836,1.0917481,0.91864014,1.4634522,106.0
1384,-2.523537,1.6083603,1.1908836,0.7147339,0.87615967,1.6970948,106.0
1385,-2.76684,1.5187759,0.8657303,0.7147339,0.87615967,1.6970948,106.0
1386,-2.76684,1.5187759,0.8657303,0.4364868,0.77526855,1.8765748,106.0
1387,-2.8556595,1.1330261,0.4608345,0.4364868,0.77526855,1.8765748,106.0
1388,-2.8556595,1.1330261,0.4608345,0.37382814,0.67437744,1.9848999,106.0
1389,-2.6308656,0.6405411,0.078445435,0.37382814,0.67437744,1.9848999,106.0
1390,-2.6308656,0.6405411,0.078445435,0.54587406,0.62340087,2.0380006,106.0
1391,-2.095696,0.35316467,-0.259449,0.54587406,0.62340087,2.0380006,106.0
1392,-2.095696,0.35316467,-0.259449,0.84536135,0.59260255,2.0220704,106.0
1393,-1.3240298,0.31854248,-0.42798233,0.84536135,0.59260255,2.0220704,106.0
1394,-1.3240298,0.31854248,-0.42798233,1.1671509,0.54587406,1.9307374,106.0
1395,-0.2915603,0.34654236,-0.3559227,1.1671509,0.54587406,1.9307374,106.0
1396,-0.2915603,0.34654236,-0.3559227,1.445398,0.51932377,1.8022339,106.0
1397,0.86135626,0.3626938,-0.23506546,1.445398,0.51932377,1.8022339,106.0
1398,0.86135626,0.3626938,-0.23506546,1.5898316,0.5692383,1.5675293,106.0
1399,1.7911725,0.5540314,-0.28618622,1.5898316,0.5692383,1.5675293,106.0
1400,1.7911725,0.5540314,-0.28618622,1.4772583,0.62340087,1.2999023,106.0
1401,1.7911725,0.5540314,-0.28618622,1.3222046,0.62340087,1.1862671,106.0
1402,1.9162632,0.765152,-0.3786087,1.3222046,0.62340087,1.1862671,106.0
1403,3.725198,1.4049454,-0.014533997,1.3222046,0.62340087,1.1862671,106.0
1404,3.725198,1.4049454,-0.014533997,0.56605226,0.5129517,0.81668705,106.0
1405,3.725198,1.4049454,-0.014533997,0.2814331,0.50445557,0.67225343,106.0
1406,3.725198,1.4049454,-0.014533997,-0.53100586,0.36533204,0.18585205,106.0
1407,2.5431955,0.9693985,0.26037216,-0.53100586,0.36533204,0.18585205,106.0
1408,2.5431955,0.9693985,0.26037216,-0.7880127,0.21877442,0.046728518,106.0
1409,1.2014143,0.5828171,0.7120552,-0.7880127,0.21877442,0.046728518,106.0
1410,1.2014143,0.5828171,0.7120552,-1.3423828,-0.25700685,-0.44498292,106.0
1411,1.0520861,0.24933624,0.6714363,-1.3423828,-0.25700685,-0.44498292,106.0
1412,1.0520861,0.24933624,0.6714363,-1.447522,-0.33771974,-0.6244629,106.0
1413,-0.11237168,-3.1570282,1.3974876,-1.447522,-0.33771974,-0.6244629,106.0
1414,-0.11237168,-3.1570282,1.3974876,-1.3285767,-0.67331547,-1.0471436,106.0
1415,-0.6561816,-2.880005,1.4419403,-1.3285767,-0.67331547,-1.0471436,106.0
1416,-0.6561816,-2.880005,1.4419403,-1.1076783,-0.8007569,-1.1087402,106.0
1417,-2.0808291,-2.392929,2.090477,-1.1076783,-0.8007569,-1.1087402,106.0
1418,-2.0808291,-2.392929,2.090477,-0.14124756,-1.1650269,-1.088562,106.0
1419,-1.5530177,-1.7377319,1.7470055,-0.14124756,-1.1650269,-1.088562,106.0
1420,-1.5530177,-1.7377319,1.7470055,0.17841797,-1.2170655,-1.0450195,106.0
1421,-0.15967488,-0.65330505,0.6716156,0.17841797,-1.2170655,-1.0450195,106.0
1422,-0.15967488,-0.65330505,0.6716156,0.7593384,-1.0407715,-1.0375855,106.0
1423,0.3403387,-0.23475647,0.18470383,0.7593384,-1.0407715,-1.0375855,106.0
1424,0.3403387,-0.23475647,0.18470383,0.7943848,-0.9430664,-1.1321045,106.0
1425,0.602581,0.07608795,-0.52776337,0.7943848,-0.9430664,-1.1321045,106.0
1426,0.602581,0.07608795,-0.52776337,0.3451538,-0.6042847,-1.3498169,106.0
1427,0.4676727,0.08340454,-0.47879028,0.3451538,-0.6042847,-1.3498169,106.0
1428,0.4676727,0.08340454,-0.47879028,0.07752686,-0.47684327,-1.350879,106.0
1429,0.19004393,0.07342529,-0.38280106,0.07752686,-0.47684327,-1.350879,106.0
1430,0.19004393,0.07342529,-0.38280106,-0.4704712,-0.1720459,-1.2361816,106.0
1431,-0.11274755,0.094078064,-0.3390541,-0.4704712,-0.1720459,-1.2361816,106.0
1432,-0.11274755,0.094078064,-0.3390541,-0.97280276,0.11044922,-0.9122681,106.0
1433,-0.89978063,-0.024650574,-0.51398087,-0.97280276,0.11044922,-0.9122681,106.0
1434,-0.89978063,-0.024650574,-0.51398087,-1.5186768,0.3695801,-0.41099855,106.0
1435,-1.129053,-0.33452606,-0.5027008,-1.5186768,0.3695801,-0.41099855,106.0
1436,-1.129053,-0.33452606,-0.5027008,-1.6439942,0.40356445,-0.29417726,106.0
1437,-1.9345169,-0.8489075,-0.4309082,-1.6439942,0.40356445,-0.29417726,106.0
1438,-1.9345169,-0.8489075,-0.4309082,-1.9657837,0.35471192,0.0063720704,106.0
1439,-1.7994568,-1.1040497,-0.30749512,-1.9657837,0.35471192,0.0063720704,106.0
1440,-1.7994568,-1.1040497,-0.30749512,-2.176062,0.32497558,0.06478272,106.0
1441,-1.5164331,-1.548912,-0.075733185,-2.176062,0.32497558,0.06478272,106.0
1442,-1.5164331,-1.548912,-0.075733185,-2.2896974,0.2442627,0.22302246,106.0
1443,-1.0779048,-1.7775345,-0.07588196,-2.2896974,0.2442627,0.22302246,106.0
1444,-1.0779048,-1.7775345,-0.07588196,-2.085791,0.118945315,0.18372802,106.0
1445,-1.0779048,-1.7775345,-0.07588196,-2.085791,0.118945315,0.18372802,112.0
1446,-0.34038782,-2.4222488,0.023414612,-2.085791,0.118945315,0.18372802,112.0
1447,-0.34038782,-2.4222488,0.023414612,-1.7321411,0.015930176,0.07965088,112.0
1448,-0.34038782,-2.4222488,0.023414612,-1.4114136,-0.06478272,-0.025488282,112.0
1449,0.46938896,-3.0521698,0.014251709,-1.4114136,-0.06478272,-0.025488282,112.0
1450,3.2846177,-3.0217285,-0.51717377,-1.4114136,-0.06478272,-0.025488282,112.0
1451,3.2846177,-3.0217285,-0.51717377,-1.0322754,-0.17947999,-0.32816163,112.0
1452,3.2846177,-3.0217285,-0.51717377,-1.0683838,-0.2177124,-0.37382814,112.0
1453,3.2846177,-3.0217285,-0.51717377,-1.4677002,-0.24107666,-0.70305175,112.0
1454,2.9841151,-2.6384506,-0.45448685,-1.4677002,-0.24107666,-0.70305175,112.0
1455,2.9841151,-2.6384506,-0.45448685,-1.6036377,-0.30267334,-0.7327881,112.0
1456,2.7368526,-2.734909,-0.25550842,-1.6036377,-0.30267334,-0.7327881,112.0
1457,2.7368526,-2.734909,-0.25550842,-0.7858887,-0.40144044,-0.7827026,112.0
1458,2.395781,-2.9086533,0.03025055,-0.7858887,-0.40144044,-0.7827026,112.0
1459,2.395781,-2.9086533,0.03025055,-1.2510499,-0.62127686,-1.3402588,112.0
1460,2.7363636,-2.6269379,0.34420776,-1.2510499,-0.62127686,-1.3402588,112.0
1461,2.7363636,-2.6269379,0.34420776,-1.0280274,-0.8963379,-1.4007934,112.0
1462,3.43538,-2.3503036,0.49534988,-1.0280274,-0.8963379,-1.4007934,112.0
1463,3.43538,-2.3503036,0.49534988,-0.028674318,-0.4630371,-1.447522,112.0
1464,2.7811532,-2.0633087,0.40742493,-0.028674318,-0.4630371,-1.447522,112.0
1465,2.7811532,-2.0633087,0.40742493,0.67331547,-0.1529297,-1.4135376,112.0
1466,0.8674884,-1.2740631,-0.04304123,0.67331547,-0.1529297,-1.4135376,112.0
1467,0.8674884,-1.2740631,-0.04304123,1.4337158,0.10620117,-1.1448487,112.0
1468,-0.6438999,-0.12155914,-0.720932,1.4337158,0.10620117,-1.1448487,112.0
1469,-0.6438999,-0.12155914,-0.720932,2.1272094,0.15823975,-0.6403931,112.0
1470,-0.92472696,1.2090149,-1.2165756,2.1272094,0.15823975,-0.6403931,112.0
1471,-0.92472696,1.2090149,-1.2165756,2.536084,0.16142578,-0.22089843,112.0
1472,-0.32791615,2.714653,-1.5117493,2.536084,0.16142578,-0.22089843,112.0
1473,-0.32791615,2.714653,-1.5117493,2.3682861,0.5384399,0.31435546,112.0
1474,-0.3720007,2.8192902,-1.1108665,2.3682861,0.5384399,0.31435546,112.0
1475,-0.3720007,2.8192902,-1.1108665,2.1197755,0.66481936,0.4609131,112.0
1476,-0.97136784,2.9611206,-0.49474716,2.1197755,0.66481936,0.4609131,112.0
1477,-0.97136784,2.9611206,-0.49474716,1.4984986,0.8251831,0.77526855,112.0
1478,-1.8879952,2.7614136,0.20920563,1.4984986,0.8251831,0.77526855,112.0
1479,-1.8879952,2.7614136,0.20920563,0.8591675,0.8857178,1.0630738,112.0
1480,-2.6147907,2.266037,0.6786804,0.8591675,0.8857178,1.0630738,112.0
1481,-2.6147907,2.266037,0.6786804,0.2824951,0.8793457,1.3041505,112.0
1482,-3.0141838,1.4787369,0.8091049,0.2824951,0.8793457,1.3041505,112.0
1483,-3.0141838,1.4787369,0.8091049,-0.012744141,0.7540283,1.4804443,112.0
1484,-3.050849,0.5429001,0.72047424,-0.012744141,0.7540283,1.4804443,112.0
1485,-3.050849,0.5429001,0.72047424,-0.07965088,0.57454836,1.5611572,112.0
1486,-2.7423394,-0.21028137,0.49607086,-0.07965088,0.57454836,1.5611572,112.0
1487,-2.7423394,-0.21028137,0.49607086,-0.033984374,0.41418457,1.6620483,112.0
1488,-2.1880975,-0.5248642,0.15896606,-0.033984374,0.41418457,1.6620483,112.0
1489,-2.1880975,-0.5248642,0.15896606,-0.0722168,0.3727661,1.7586914,112.0
1490,-1.5261006,-0.47064972,-0.20606995,-0.0722168,0.3727661,1.7586914,112.0
1491,-1.5261006,-0.47064972,-0.20606995,-0.3440918,0.31116945,1.9753418,112.0
1492,-0.75007975,-0.3970642,-0.47027588,-0.3440918,0.31116945,1.9753418,112.0
1493,-0.75007975,-0.3970642,-0.47027588,-0.7041138,0.1709839,2.1367676,112.0
1494,0.17455778,-0.61309814,-0.548584,-0.7041138,0.1709839,2.1367676,112.0
1495,0.17455778,-0.61309814,-0.548584,-0.94625247,0.16885987,2.2249146,112.0
1496,0.92944115,-1.1276245,-0.41197586,-0.94625247,0.16885987,2.2249146,112.0
1497,0.92944115,-1.1276245,-0.41197586,-0.7763306,0.29736328,2.2365968,112.0
1498,1.2461774,-1.6298599,-0.17516327,-0.7763306,0.29736328,2.2365968,112.0
1499,1.2461774,-1.6298599,-0.17516327,-0.4322388,0.33240968,1.996582,112.0
1500,1.4501402,-1.6819382,-0.06725311,-0.4322388,0.33240968,1.996582,112.0
1501,1.4501402,-1.6819382,-0.06725311,-0.20496826,0.28674316,1.6057618,112.0
1502,1.8554369,-1.2341156,-0.13365936,-0.20496826,0.28674316,1.6057618,112.0
1503,1.8554369,-1.2341156,-0.13365936,-0.19328614,0.36427003,1.2266235,112.0
1504,1.9911122,-0.64762115,-0.06110382,-0.19328614,0.36427003,1.2266235,112.0
1505,1.9911122,-0.64762115,-0.06110382,-0.20603028,0.48640138,0.87191164,112.0
1506,1.3487736,-0.2642746,0.259552,-0.20603028,0.48640138,0.87191164,112.0
1507,1.3487736,-0.2642746,0.259552,-0.22408448,0.45560303,0.46728516,112.0
1508,0.6211575,-0.06163025,0.38787842,-0.22408448,0.45560303,0.46728516,112.0
1509,0.6211575,-0.06163025,0.38787842,-0.43011475,0.26868898,0.0010620117,112.0
1510,0.32844448,0.044815063,0.15177917,-0.43011475,0.26868898,0.0010620117,112.0
1511,0.32844448,0.044815063,0.15177917,-0.7168579,0.18691407,-0.41949463,112.0
1512,-0.43686593,-0.10587311,0.19203949,-0.7168579,0.18691407,-0.41949463,112.0
1513,-0.43686593,-0.10587311,0.19203949,-0.6881836,0.020178223,-0.72004396,112.0
1514,-1.9983453,-0.39440155,0.9522629,-0.6881836,0.020178223,-0.72004396,112.0
1515,-1.9983453,-0.39440155,0.9522629,-0.010620117,-0.35789797,-0.7763306,112.0
1516,-3.0872016,-0.3177414,1.8553314,-0.010620117,-0.35789797,-0.7763306,112.0
1517,-3.0872016,-0.3177414,1.8553314,1.1257324,-0.815625,-0.7072998,112.0
1518,-2.5200543,0.34900665,2.008606,1.1257324,-0.815625,-0.7072998,112.0
1519,-2.5200543,0.34900665,2.008606,2.2111084,-1.0662597,-0.62127686,112.0
1520,-0.7831577,1.2689743,1.2245255,2.2111084,-1.0662597,-0.62127686,112.0
1521,-0.7831577,1.2689743,1.2245255,2.707068,-0.9674927,-0.544812,112.0
1522,0.7038938,1.8567657,0.08577347,2.707068,-0.9674927,-0.544812,112.0
1523,0.7038938,1.8567657,0.08577347,2.168628,-0.7986328,-0.540564,112.0
1524,1.2791429,1.8037186,-0.6526108,2.168628,-0.7986328,-0.540564,112.0
1525,1.2791429,1.8037186,-0.6526108,0.84536135,-0.55968016,-0.46728516,112.0
1526,1.1652943,1.2563553,-0.7488861,0.84536135,-0.55968016,-0.46728516,112.0
1527,1.1652943,1.2563553,-0.7488861,-0.3440918,-0.26550293,-0.20921631,112.0
1528,0.6747769,0.42980194,-0.49131775,-0.3440918,-0.26550293,-0.20921631,112.0
1529,0.6747769,0.42980194,-0.49131775,-0.83049315,0.07327881,0.21346436,112.0
1530,-0.14396751,-0.4039383,-0.22229004,-0.83049315,0.07327881,0.21346436,112.0
1531,-0.14396751,-0.4039383,-0.22229004,-0.7763306,0.2888672,0.6881836,112.0
1532,-1.1357185,-0.9712601,-0.042663574,-0.7763306,0.2888672,0.6881836,112.0
1533,-1.1357185,-0.9712601,-0.042663574,-0.71791995,0.32709962,1.0524536,112.0
1534,-1.9395075,-1.1580887,0.12799072,-0.71791995,0.32709962,1.0524536,112.0
1535,-1.9395075,-1.1580887,0.12799072,-0.78376466,0.35683593,1.3530029,112.0
1536,-2.374604,-1.1244583,0.27296066,-0.78376466,0.35683593,1.3530029,112.0
1537,-2.374604,-1.1244583,0.27296066,-0.65632325,0.2814331,1.6004517,112.0
1538,-2.374604,-1.1244583,0.27296066,-0.65632325,0.2814331,1.6004517,115.0
1539,-2.4542975,-1.2897415,0.30922318,-0.65632325,0.2814331,1.6004517,115.0
1540,-2.4542975,-1.2897415,0.30922318,-0.37382814,0.15186767,1.7756836,115.0
1541,-2.2623882,-1.6364441,0.25567627,-0.37382814,0.15186767,1.7756836,115.0
1542,-2.2623882,-1.6364441,0.25567627,-0.10938721,0.09451904,1.7661256,115.0
1543,-1.9797106,-1.8034668,0.18315506,-0.10938721,0.09451904,1.7661256,115.0
1544,-1.9797106,-1.8034668,0.18315506,0.16567384,0.047790527,1.6864747,115.0
1545,-1.7048011,-1.7190323,0.10835266,0.16567384,0.047790527,1.6864747,115.0
1546,-1.7048011,-1.7190323,0.10835266,0.5299439,0.0021240234,1.6896607,115.0
1547,-1.7048011,-1.7190323,0.10835266,0.903772,-0.06159668,1.724707,115.0
1548,-1.3954692,-1.4673157,0.023586273,0.903772,-0.06159668,1.724707,115.0
1549,-0.58633375,-1.0919418,-0.04876709,0.903772,-0.06159668,1.724707,115.0
1550,-0.58633375,-1.0919418,-0.04876709,1.0747559,-0.124255374,1.6790406,115.0
1551,-0.58633375,-1.0919418,-0.04876709,1.1278565,-0.20178223,1.5972656,115.0
1552,-0.58633375,-1.0919418,-0.04876709,1.1310425,-0.24001466,1.4326538,115.0
1553,0.15804482,-1.0385056,-0.12287903,1.1310425,-0.24001466,1.4326538,115.0
1554,1.5731277,-0.7560501,-0.55156326,1.1310425,-0.24001466,1.4326538,115.0
1555,1.5731277,-0.7560501,-0.55156326,0.9451904,-0.20496826,1.3126465,115.0
1556,1.5731277,-0.7560501,-0.55156326,0.58410645,-0.18797608,1.358313,115.0
1557,1.5731277,-0.7560501,-0.55156326,0.1263794,-0.42055663,1.3360108,115.0
1558,1.3583193,-0.42045593,-0.33296204,0.1263794,-0.42055663,1.3360108,115.0
1559,1.3583193,-0.42045593,-0.33296204,-0.35152587,-0.65207523,1.1894531,115.0
1560,1.2613137,-0.289711,-0.09240723,-0.35152587,-0.65207523,1.1894531,115.0
1561,1.2613137,-0.289711,-0.09240723,-0.57561034,-0.77951664,1.2149414,115.0
1562,0.8106257,0.11476135,0.007041931,-0.57561034,-0.77951664,1.2149414,115.0
1563,0.8106257,0.11476135,0.007041931,-0.7954468,-0.9505005,1.2319336,115.0
1564,0.10578811,0.72410583,-0.16770935,-0.7954468,-0.9505005,1.2319336,115.0
1565,0.10578811,0.72410583,-0.16770935,-0.8219971,-1.1958252,1.2489258,115.0
1566,-0.2689706,0.9248276,-0.7593994,-0.8219971,-1.1958252,1.2489258,115.0
1567,-0.2689706,0.9248276,-0.7593994,-0.7519043,-1.3402588,1.2287476,115.0
1568,-0.16985178,0.58865356,-1.5024529,-0.7519043,-1.3402588,1.2287476,115.0
1569,-0.16985178,0.58865356,-1.5024529,-0.64782715,-1.3487549,0.9494385,115.0
1570,0.15973628,0.08509827,-1.7069778,-0.64782715,-1.3487549,0.9494385,115.0
1571,0.15973628,0.08509827,-1.7069778,-0.42268068,-1.1841431,0.50445557,115.0
1572,0.46156597,-0.2655487,-1.0615158,-0.42268068,-1.1841431,0.50445557,115.0
1573,0.46156597,-0.2655487,-1.0615158,0.029736329,-1.1246704,0.25913087,115.0
1574,0.5658592,-0.17338562,-0.08147812,0.029736329,-1.1246704,0.25913087,115.0
1575,0.5658592,-0.17338562,-0.08147812,0.28674316,-1.1660889,0.25806886,115.0
1576,0.4127338,0.38204193,0.49022675,0.28674316,-1.1660889,0.25806886,115.0
1577,0.4127338,0.38204193,0.49022675,0.11469727,-1.2075074,0.4067505,115.0
1578,0.057201147,0.84656525,0.49093628,0.11469727,-1.2075074,0.4067505,115.0
1579,0.057201147,0.84656525,0.49093628,-0.16354981,-1.2510499,0.5543701,115.0
1580,-0.33565998,0.86933136,0.3040886,-0.16354981,-1.2510499,0.5543701,115.0
1581,-0.33565998,0.86933136,0.3040886,-0.21877442,-1.3402588,0.6775635,115.0
1582,-0.64856946,0.5649719,0.1224823,-0.21877442,-1.3402588,0.6775635,115.0
1583,-0.64856946,0.5649719,0.1224823,-0.41206056,-1.4230957,0.86553955,115.0
