,accx,accy,accz,gyrox,gyroy,gyroz,heart rate
0,walk,walk,walk,walk,walk,walk,walk
1,0.17541504,0.64335936,-0.14559326,0.0,0.0,0.0,0.0
2,0.17541504,0.64335936,-0.14559326,-0.15823975,0.08920898,0.0053100586,0.0
3,0.017468262,0.421438,-0.12759522,-0.15823975,0.08920898,0.0053100586,0.0
4,0.017468262,0.421438,-0.12759522,-0.19328614,0.107263185,0.022302246,0.0
5,-0.072487794,0.29861283,-0.013746098,-0.19328614,0.107263185,0.022302246,0.0
6,-0.072487794,0.29861283,-0.013746098,-0.1539917,0.11469727,0.04248047,0.0
7,-0.067194335,0.23462999,0.061647166,-0.1539917,0.11469727,0.04248047,0.0
8,-0.067194335,0.23462999,0.061647166,-0.087084964,0.13062744,0.07434082,0.0
9,-0.009541602,0.21354628,0.046363633,-0.087084964,0.13062744,0.07434082,0.0
10,-0.009541602,0.21354628,0.046363633,-0.012744141,0.1444336,0.12000733,0.0
11,0.04590676,0.2607174,0.039861903,-0.012744141,0.1444336,0.12000733,0.0
12,0.04590676,0.2607174,0.039861903,0.0,0.1444336,0.14018555,0.0
13,0.04590676,0.2607174,0.039861903,-0.035046387,0.16142578,0.14018555,0.0
14,0.0636297,0.28983617,0.14238757,-0.035046387,0.16142578,0.14018555,0.0
15,0.017432086,0.22629035,0.28727433,-0.035046387,0.16142578,0.14018555,0.0
16,0.017432086,0.22629035,0.28727433,-0.060534667,0.14868164,0.11044922,0.0
17,-0.062067516,0.07748002,0.3693214,-0.060534667,0.14868164,0.11044922,0.0
18,-0.062067516,0.07748002,0.3693214,-0.08920898,0.10938721,0.06903076,0.0
19,-0.08723946,-0.1361239,0.45256162,-0.08920898,0.10938721,0.06903076,0.0
20,-0.08723946,-0.1361239,0.45256162,-0.13168946,0.021240234,0.0063720704,0.0
21,0.103475034,-0.3160891,0.5972055,-0.13168946,0.021240234,0.0063720704,0.0
22,0.103475034,-0.3160891,0.5972055,-0.18266602,0.004248047,-0.027612304,0.0
23,0.43910328,-0.43242452,0.5993709,-0.18266602,0.004248047,-0.027612304,0.0
24,0.43910328,-0.43242452,0.5993709,-0.19753419,0.06903076,-0.0010620117,0.0
25,0.5616586,-0.48370817,0.24617153,-0.19753419,0.06903076,-0.0010620117,0.0
26,0.5616586,-0.48370817,0.24617153,-0.15186767,0.1359375,0.045666505,0.0
27,0.35519847,-0.47982544,-0.22424197,-0.15186767,0.1359375,0.045666505,0.0
28,0.35519847,-0.47982544,-0.22424197,-0.090270996,0.15823975,0.090270996,0.0
29,0.008231044,-0.46991992,-0.42598784,-0.090270996,0.15823975,0.090270996,0.0
30,0.008231044,-0.46991992,-0.42598784,-0.057348635,0.16779785,0.15930176,0.0
31,-0.25137416,-0.49031585,-0.37020925,-0.057348635,0.16779785,0.15930176,0.0
32,-0.25137416,-0.49031585,-0.37020925,-0.013806152,0.15505372,0.21877442,0.0
33,-0.3559333,2.5236409,6.9360104,-0.013806152,0.15505372,0.21877442,0.0
34,-0.3559333,2.5236409,6.9360104,0.019116212,0.11151123,0.26019287,0.0
35,-0.32482234,-1.1336508,-1.6435378,0.019116212,0.11151123,0.26019287,0.0
36,-0.32482234,-1.1336508,-1.6435378,0.032922365,0.07752686,0.29099122,0.0
37,-0.18377145,-0.9780388,-1.311693,0.032922365,0.07752686,0.29099122,0.0
38,-0.18377145,-0.9780388,-1.311693,0.06584473,0.07646485,0.31010744,0.0
39,-0.18377145,-0.9780388,-1.311693,0.11044922,0.057348635,0.31116945,0.0
40,-0.08368708,-0.83611757,-1.1131483,0.11044922,0.057348635,0.31116945,0.0
41,-0.10283834,-0.69491947,-0.91648304,0.11044922,0.057348635,0.31116945,0.0
42,-0.10283834,-0.69491947,-0.91648304,0.09664307,0.015930176,0.271875,0.0
43,-0.18203874,-0.57002246,-0.60315716,0.09664307,0.015930176,0.271875,0.0
44,-0.18203874,-0.57002246,-0.60315716,0.008496094,-0.025488282,0.20390625,0.0
45,-0.26948354,-0.49687493,-0.29158336,0.008496094,-0.025488282,0.20390625,0.0
46,-0.26948354,-0.49687493,-0.29158336,-0.08496094,-0.06478272,0.1274414,0.0
47,-0.31440276,-0.45306635,-0.09856212,-0.08496094,-0.06478272,0.1274414,0.0
48,-0.31440276,-0.45306635,-0.09856212,-0.16779785,-0.09664307,0.07115479,0.0
49,-0.31440276,-0.45306635,-0.09856212,-0.23895264,-0.083898924,0.0541626,0.0
50,-0.25280395,-0.40687442,0.028364658,-0.23895264,-0.083898924,0.0541626,0.0
51,-0.12624219,-0.35637116,0.14272344,-0.23895264,-0.083898924,0.0541626,0.0
52,-0.12624219,-0.35637116,0.14272344,-0.27293703,-0.039294433,0.07540283,0.0
53,-0.07217297,-0.26690847,0.11776763,-0.27293703,-0.039294433,0.07540283,0.0
54,-0.07217297,-0.26690847,0.11776763,-0.27718505,0.0180542,0.13168946,0.0
55,-0.17477942,-0.15444475,-0.109191656,-0.27718505,0.0180542,0.13168946,0.0
56,-0.17477942,-0.15444475,-0.109191656,-0.18054199,0.043542482,0.22833252,0.0
57,-0.310722,0.0143226385,-0.3600828,-0.18054199,0.043542482,0.22833252,0.0
58,-0.310722,0.0143226385,-0.3600828,-0.057348635,0.04460449,0.32816163,0.0
59,-0.387103,0.17429996,-0.47891095,-0.057348635,0.04460449,0.32816163,0.0
60,-0.387103,0.17429996,-0.47891095,0.03186035,0.027612304,0.38444826,0.0
61,-0.3649314,0.3285147,-0.49907115,0.03186035,0.027612304,0.38444826,0.0
62,-0.3649314,0.3285147,-0.49907115,0.040356446,-0.0010620117,0.38657227,0.0
63,-0.2705462,0.44337815,-0.4584244,0.040356446,-0.0010620117,0.38657227,0.0
64,-0.2705462,0.44337815,-0.4584244,0.014868164,-0.039294433,0.34727785,0.0
65,-0.13828754,0.43085003,-0.33872437,0.014868164,-0.039294433,0.34727785,0.0
66,-0.13828754,0.43085003,-0.33872437,-0.0021240234,-0.06903076,0.270813,0.0
67,0.002065301,0.31120837,-0.15772268,-0.0021240234,-0.06903076,0.270813,0.0
68,0.002065301,0.31120837,-0.15772268,0.0063720704,-0.09770508,0.1901001,0.0
69,0.11532414,0.25621766,0.0014707744,0.0063720704,-0.09770508,0.1901001,0.0
70,0.11532414,0.25621766,0.0014707744,-0.02442627,-0.11469727,0.1263794,0.0
71,0.18364114,0.289105,0.039213732,-0.02442627,-0.11469727,0.1263794,0.0
72,0.18364114,0.289105,0.039213732,-0.05522461,-0.12531738,0.087084964,0.0
73,0.19958627,0.32477763,-0.05368761,-0.05522461,-0.12531738,0.087084964,0.0
74,0.19958627,0.32477763,-0.05368761,-0.06796875,-0.14337158,0.0541626,0.0
75,0.19958627,0.32477763,-0.05368761,-0.10407715,-0.16567384,0.0010620117,0.0
76,0.15400499,0.36067662,-0.15975916,-0.10407715,-0.16567384,0.0010620117,0.0
77,0.10915372,0.29580447,-0.17437717,-0.10407715,-0.16567384,0.0010620117,0.0
78,0.10915372,0.29580447,-0.17437717,-0.06478272,-0.20072022,-0.08496094,0.0
79,0.11937863,0.10911673,-0.07042214,-0.06478272,-0.20072022,-0.08496094,0.0
80,0.11937863,0.10911673,-0.07042214,0.0180542,-0.22514649,-0.16567384,0.0
81,0.19995844,-0.0288077,0.115293145,0.0180542,-0.22514649,-0.16567384,0.0
82,0.19995844,-0.0288077,0.115293145,0.059472658,-0.24213867,-0.2357666,0.0
83,0.19995844,-0.0288077,0.115293145,-0.06690674,-0.2803711,-0.3090454,0.0
84,0.2416318,-0.0130364,0.25639468,-0.06690674,-0.2803711,-0.3090454,0.0
85,0.20652565,0.0011187345,0.37265724,-0.06690674,-0.2803711,-0.3090454,0.0
86,0.20652565,0.0011187345,0.37265724,-0.24744873,-0.3430298,-0.3695801,0.0
87,0.20488118,-0.13192973,0.5704647,-0.24744873,-0.3430298,-0.3695801,0.0
88,0.20488118,-0.13192973,0.5704647,-0.28674316,-0.3717041,-0.40250245,0.0
89,0.21108513,-0.20346859,0.7403561,-0.28674316,-0.3717041,-0.40250245,0.0
90,0.21108513,-0.20346859,0.7403561,-0.27293703,-0.3706421,-0.39400634,0.0
91,0.21140961,-0.02404195,0.68681616,-0.27293703,-0.3706421,-0.39400634,0.0
92,0.21140961,-0.02404195,0.68681616,-0.24638672,-0.35789797,-0.3717041,0.0
93,0.28474048,0.25441146,0.43591535,-0.24638672,-0.35789797,-0.3717041,0.0
94,0.28474048,0.25441146,0.43591535,-0.25700685,-0.2814331,-0.35895997,0.0
95,0.3458588,0.31904432,0.09712094,-0.25700685,-0.2814331,-0.35895997,0.0
96,0.3458588,0.31904432,0.09712094,-0.19647217,-0.18054199,-0.34940186,0.0
97,0.26816654,0.21028918,-0.19333601,-0.19647217,-0.18054199,-0.34940186,0.0
98,0.26816654,0.21028918,-0.19333601,-0.19647217,-0.18054199,-0.34940186,72.0
99,0.26816654,0.21028918,-0.19333601,-0.098767094,-0.10620117,-0.33984375,72.0
100,0.04752884,0.2070375,-0.36132163,-0.098767094,-0.10620117,-0.33984375,72.0
101,0.04752884,0.2070375,-0.36132163,-0.13062744,-0.07965088,-0.3536499,72.0
102,-0.15432313,0.2286549,-0.42234588,-0.13062744,-0.07965088,-0.3536499,72.0
103,-0.15432313,0.2286549,-0.42234588,-0.19328614,-0.08814698,-0.40356445,72.0
104,-0.12831691,0.047108494,-0.38365307,-0.19328614,-0.08814698,-0.40356445,72.0
105,-0.12831691,0.047108494,-0.38365307,-0.18266602,-0.07752686,-0.4694092,72.0
106,0.05712431,-0.22159055,-0.28955188,-0.18266602,-0.07752686,-0.4694092,72.0
107,0.05712431,-0.22159055,-0.28955188,-0.13275146,-0.038232423,-0.52038574,72.0
108,0.24114622,-0.31097606,-0.2611215,-0.13275146,-0.038232423,-0.52038574,72.0
109,0.24114622,-0.31097606,-0.2611215,-0.14124756,0.013806152,-0.5256958,72.0
110,0.34581006,-0.18287508,-0.322386,-0.14124756,0.013806152,-0.5256958,72.0
111,0.34581006,-0.18287508,-0.322386,-0.20603028,0.0722168,-0.5161377,72.0
112,0.39866954,0.042139873,-0.3772081,-0.20603028,0.0722168,-0.5161377,72.0
113,0.39866954,0.042139873,-0.3772081,-0.31435546,0.13168946,-0.48533937,72.0
114,0.39372814,0.19961765,-0.402328,-0.31435546,0.13168946,-0.48533937,72.0
115,0.39372814,0.19961765,-0.402328,-0.36320803,0.17629395,-0.47578126,72.0
116,0.3729903,0.13590263,-0.3615597,-0.36320803,0.17629395,-0.47578126,72.0
117,0.3729903,0.13590263,-0.3615597,-0.25806886,0.18054199,-0.50233155,72.0
118,0.375736,0.057476986,-0.2672995,-0.25806886,0.18054199,-0.50233155,72.0
119,0.375736,0.057476986,-0.2672995,-0.21558838,0.17841797,-0.5363159,72.0
120,0.34321576,0.21940689,-0.19460133,-0.21558838,0.17841797,-0.5363159,72.0
121,0.34321576,0.21940689,-0.19460133,-0.3345337,0.1529297,-0.5703003,72.0
122,0.28809798,0.42382872,-0.1769213,-0.3345337,0.1529297,-0.5703003,72.0
123,0.28809798,0.42382872,-0.1769213,-0.49171144,0.1359375,-0.55543214,72.0
124,0.2539037,0.30784962,-0.17564347,-0.49171144,0.1359375,-0.55543214,72.0
125,0.2539037,0.30784962,-0.17564347,-0.44498292,0.11151123,-0.5511841,72.0
126,0.14756876,0.012429595,-0.16721156,-0.44498292,0.11151123,-0.5511841,72.0
127,0.14756876,0.012429595,-0.16721156,-0.33878174,0.11469727,-0.5033936,72.0
128,-0.04355389,-0.034636408,-0.25460666,-0.33878174,0.11469727,-0.5033936,72.0
129,-0.04355389,-0.034636408,-0.25460666,-0.2824951,0.081774905,-0.44816896,72.0
130,-0.31040466,0.081641465,-0.35023075,-0.2824951,0.081774905,-0.44816896,72.0
131,-0.31040466,0.081641465,-0.35023075,-0.2888672,0.023364259,-0.39188233,72.0
132,-0.48319918,0.047893733,-0.26326567,-0.2888672,0.023364259,-0.39188233,72.0
133,-0.48319918,0.047893733,-0.26326567,-0.23682861,-0.050976563,-0.35789797,72.0
134,-0.46254808,-0.12975141,-0.035990953,-0.23682861,-0.050976563,-0.35789797,72.0
135,-0.46254808,-0.12975141,-0.035990953,-0.15080567,-0.08920898,-0.3069214,72.0
136,-0.3170966,-0.18097399,0.10553342,-0.15080567,-0.08920898,-0.3069214,72.0
137,-0.3170966,-0.18097399,0.10553342,-0.12956543,-0.10195313,-0.24638672,72.0
138,-0.19227588,-0.037149787,0.07118213,-0.12956543,-0.10195313,-0.24638672,72.0
139,-0.19227588,-0.037149787,0.07118213,-0.20072022,-0.10407715,-0.18691407,72.0
140,-0.15817863,0.11422548,-0.031079203,-0.20072022,-0.10407715,-0.18691407,72.0
141,-0.15817863,0.11422548,-0.031079203,-0.2824951,-0.09451904,-0.118945315,72.0
142,-0.15942866,0.035276875,-0.08736336,-0.2824951,-0.09451904,-0.118945315,72.0
143,-0.15942866,0.035276875,-0.08736336,-0.2081543,-0.08283692,-0.10513916,72.0
144,-0.16123435,-0.1642956,-0.06293267,-0.2081543,-0.08283692,-0.10513916,72.0
145,-0.16123435,-0.1642956,-0.06293267,-0.07327881,-0.07434082,-0.10938721,72.0
146,-0.17417791,-0.085647896,-0.029606402,-0.07327881,-0.07434082,-0.10938721,72.0
147,-0.17417791,-0.085647896,-0.029606402,-0.115759276,-0.078588866,-0.12850343,72.0
148,-0.18227446,0.17290014,-0.025857985,-0.115759276,-0.078588866,-0.12850343,72.0
149,-0.18227446,0.17290014,-0.025857985,-0.25700685,-0.090270996,-0.1539917,72.0
150,-0.11535083,0.23930888,-0.014497459,-0.25700685,-0.090270996,-0.1539917,72.0
151,-0.11535083,0.23930888,-0.014497459,-0.3355957,-0.08920898,-0.17735596,72.0
152,0.0018599629,0.09816098,-0.01135385,-0.3355957,-0.08920898,-0.17735596,72.0
153,0.0018599629,0.09816098,-0.01135385,-0.3462158,-0.07965088,-0.19434814,72.0
154,0.058519214,-0.029662132,-0.012415588,-0.3462158,-0.07965088,-0.19434814,72.0
155,0.058519214,-0.029662132,-0.012415588,-0.3175415,-0.0637207,-0.20921631,72.0
156,0.009034604,0.044470996,0.016520202,-0.3175415,-0.0637207,-0.20921631,72.0
157,0.009034604,0.044470996,0.016520202,-0.35789797,-0.05628662,-0.21134034,72.0
158,-0.10969126,0.22957093,0.030501306,-0.35789797,-0.05628662,-0.21134034,72.0
159,-0.10969126,0.22957093,0.030501306,-0.4248047,-0.06265869,-0.22196046,72.0
160,-0.21415682,0.2705586,0.04339516,-0.4248047,-0.06265869,-0.22196046,72.0
161,-0.21415682,0.2705586,0.04339516,-0.41418457,-0.0722168,-0.23682861,72.0
162,-0.25707984,0.21902257,0.106481284,-0.41418457,-0.0722168,-0.23682861,72.0
163,-0.25707984,0.21902257,0.106481284,-0.39188233,-0.06796875,-0.2347046,72.0
164,-0.31983626,0.250157,0.13894477,-0.39188233,-0.06796875,-0.2347046,72.0
165,-0.31983626,0.250157,0.13894477,-0.39613038,-0.070092775,-0.22302246,72.0
166,-0.44579822,0.31577504,0.09313825,-0.39613038,-0.070092775,-0.22302246,72.0
167,-0.44579822,0.31577504,0.09313825,-0.3802002,-0.08602295,-0.2081543,72.0
168,-0.56043494,0.319246,0.088377774,-0.3802002,-0.08602295,-0.2081543,72.0
169,-0.56043494,0.319246,0.088377774,-0.35046387,-0.09451904,-0.18903808,72.0
170,-0.5930257,0.2209974,0.1948111,-0.35046387,-0.09451904,-0.18903808,72.0
171,-0.5930257,0.2209974,0.1948111,-0.2527588,-0.1083252,-0.19434814,72.0
172,-0.52820474,0.12723738,0.3129778,-0.2527588,-0.1083252,-0.19434814,72.0
173,-0.52820474,0.12723738,0.3129778,-0.19647217,-0.10938721,-0.18903808,72.0
174,-0.39838165,0.11898959,0.34590226,-0.19647217,-0.10938721,-0.18903808,72.0
175,-0.39838165,0.11898959,0.34590226,-0.22302246,-0.098767094,-0.18372802,72.0
176,-0.2697307,0.121180415,0.32534242,-0.22302246,-0.098767094,-0.18372802,72.0
177,-0.2697307,0.121180415,0.32534242,-0.2527588,-0.08283692,-0.18585205,72.0
178,-0.15372401,0.06181246,0.32836476,-0.2527588,-0.08283692,-0.18585205,72.0
179,-0.15372401,0.06181246,0.32836476,-0.25913087,-0.045666505,-0.16885987,72.0
180,-0.082512915,0.03259206,0.3154384,-0.25913087,-0.045666505,-0.16885987,72.0
181,-0.082512915,0.03259206,0.3154384,-0.2782471,0.008496094,-0.13912354,72.0
182,-0.08916712,0.08257997,0.18922816,-0.2782471,0.008496094,-0.13912354,72.0
183,-0.08916712,0.08257997,0.18922816,-0.29948732,0.0541626,-0.10938721,72.0
184,-0.119356155,0.12039745,0.027224809,-0.29948732,0.0541626,-0.10938721,72.0
185,-0.119356155,0.12039745,0.027224809,-0.30161133,0.090270996,-0.0722168,72.0
186,-0.1440323,0.08704066,-0.052280217,-0.30161133,0.090270996,-0.0722168,72.0
187,-0.1440323,0.08704066,-0.052280217,-0.29948732,0.13168946,-0.022302246,72.0
188,-0.19696414,0.0038122535,-0.06960738,-0.29948732,0.13168946,-0.022302246,72.0
189,-0.19696414,0.0038122535,-0.06960738,-0.26337892,0.14230958,0.023364259,72.0
190,-0.19092095,-0.13307083,-0.04010973,-0.26337892,0.14230958,0.023364259,72.0
191,-0.19092095,-0.13307083,-0.04010973,-0.2347046,0.14230958,0.08602295,72.0
192,-0.1265161,-0.29428625,0.071903914,-0.2347046,0.14230958,0.08602295,72.0
193,-0.1265161,-0.29428625,0.071903914,-0.2527588,0.09770508,0.13275146,72.0
194,-0.020744085,-0.4987225,0.29193476,-0.2527588,0.09770508,0.13275146,72.0
195,-0.020744085,-0.4987225,0.29193476,-0.32497558,-0.046728518,0.12213135,72.0
196,0.19723529,-0.74856293,0.7553496,-0.32497558,-0.046728518,0.12213135,72.0
197,0.19723529,-0.74856293,0.7553496,-0.4067505,-0.20284425,0.07115479,72.0
198,0.6212648,-1.0190164,1.4802196,-0.4067505,-0.20284425,0.07115479,72.0
199,0.6212648,-1.0190164,1.4802196,-0.41099855,-0.3090454,0.016992187,72.0
200,0.6212648,-1.0190164,1.4802196,-0.41099855,-0.3090454,0.016992187,72.0
201,1.1235378,-0.95047927,1.8506552,-0.41099855,-0.3090454,0.016992187,72.0
202,1.1235378,-0.95047927,1.8506552,-0.5936646,-0.18160401,0.09664307,72.0
203,1.2438376,-0.44394052,1.2427557,-0.5936646,-0.18160401,0.09664307,72.0
204,1.2438376,-0.44394052,1.2427557,-0.7104859,-0.010620117,0.24107666,72.0
205,0.8423723,0.03128556,-0.11326623,-0.7104859,-0.010620117,0.24107666,72.0
206,0.8423723,0.03128556,-0.11326623,-0.630835,0.14655761,0.3993164,72.0
207,0.19259904,0.19163,-1.410071,-0.630835,0.14655761,0.3993164,72.0
208,0.19259904,0.19163,-1.410071,-0.4428589,0.20709229,0.51188964,72.0
209,-0.38404334,-0.048197456,-1.902947,-0.4428589,0.20709229,0.51188964,72.0
210,-0.38404334,-0.048197456,-1.902947,-0.14230958,0.15611573,0.5235718,72.0
211,-0.6084554,-0.46989343,-1.4073675,-0.14230958,0.15611573,0.5235718,72.0
212,-0.6084554,-0.46989343,-1.4073675,0.087084964,-0.0010620117,0.38975832,72.0
213,-0.3768034,-0.64468914,-0.43318152,0.087084964,-0.0010620117,0.38975832,72.0
214,-0.3768034,-0.64468914,-0.43318152,0.13699952,-0.13381349,0.2623169,72.0
215,0.059104174,-0.5284467,0.19262715,0.13699952,-0.13381349,0.2623169,72.0
216,0.059104174,-0.5284467,0.19262715,0.004248047,-0.1901001,0.18691407,72.0
217,0.33922672,-0.3819126,0.029773101,0.004248047,-0.1901001,0.18691407,72.0
218,0.33922672,-0.3819126,0.029773101,-0.11151123,-0.23895264,0.17947999,72.0
219,0.34143752,-0.23109162,-0.6024999,-0.11151123,-0.23895264,0.17947999,72.0
220,0.34143752,-0.23109162,-0.6024999,-0.23364258,-0.32391357,0.16673584,72.0
221,0.0965387,0.07778537,-1.1047904,-0.23364258,-0.32391357,0.16673584,72.0
222,0.0965387,0.07778537,-1.1047904,-0.5065796,-0.44073486,0.15930176,72.0
223,-0.19313037,0.3265105,-1.2608954,-0.5065796,-0.44073486,0.15930176,72.0
224,-0.19313037,0.3265105,-1.2608954,-0.6669434,-0.5055176,0.115759276,72.0
225,-0.23668203,0.0411278,-0.9602666,-0.6669434,-0.5055176,0.115759276,72.0
226,-0.23668203,0.0411278,-0.9602666,-0.42374268,-0.5671143,0.035046387,72.0
227,0.06851572,-0.48946106,-0.31347692,-0.42374268,-0.5671143,0.035046387,72.0
228,0.06851572,-0.48946106,-0.31347692,-0.06796875,-0.54375,0.010620117,72.0
229,0.28063047,-0.4003579,-0.0014529228,-0.06796875,-0.54375,0.010620117,72.0
230,0.28063047,-0.4003579,-0.0014529228,-0.04248047,-0.55968016,-0.007434082,72.0
231,0.033610806,0.34481376,-0.33985865,-0.04248047,-0.55968016,-0.007434082,72.0
232,0.033610806,0.34481376,-0.33985865,-0.33028564,-0.6669434,0.029736329,72.0
233,-0.41802102,1.0659633,-0.84896207,-0.33028564,-0.6669434,0.029736329,72.0
234,-0.41802102,1.0659633,-0.84896207,-0.8782837,-0.8050049,0.06796875,72.0
235,-0.81383574,1.4087644,-1.113569,-0.8782837,-0.8050049,0.06796875,72.0
236,-0.81383574,1.4087644,-1.113569,-1.6089478,-1.0036011,0.10407715,72.0
237,-1.017597,1.2267917,-1.2877668,-1.6089478,-1.0036011,0.10407715,72.0
238,-1.017597,1.2267917,-1.2877668,-1.9286133,-1.177771,0.027612304,72.0
239,-1.0847685,0.81469756,-1.4694715,-1.9286133,-1.177771,0.027612304,72.0
240,-1.0847685,0.81469756,-1.4694715,-2.0273805,-1.5080566,-0.15505372,72.0
241,-0.88837147,0.7045901,-1.4430821,-2.0273805,-1.5080566,-0.15505372,72.0
242,-0.88837147,0.7045901,-1.4430821,-2.2387207,-1.7576294,-0.32497558,72.0
243,-0.40908587,0.8230715,-1.1326518,-2.2387207,-1.7576294,-0.32497558,72.0
244,-0.40908587,0.8230715,-1.1326518,-2.4957275,-2.0178223,-0.60216063,72.0
245,0.07787049,1.1387794,-0.83796954,-2.4957275,-2.0178223,-0.60216063,72.0
246,0.07787049,1.1387794,-0.83796954,-3.071338,-2.2397828,-0.79119873,72.0
247,0.43688142,1.575794,-0.8108053,-3.071338,-2.2397828,-0.79119873,72.0
248,0.43688142,1.575794,-0.8108053,-3.7775757,-2.552014,-1.1990112,72.0
249,0.80197096,1.737564,-0.85954523,-3.7775757,-2.552014,-1.1990112,72.0
250,0.80197096,1.737564,-0.85954523,-4.414783,-2.71875,-1.6578003,72.0
251,1.4926022,1.1834228,-0.58517027,-4.414783,-2.71875,-1.6578003,72.0
252,1.4926022,1.1834228,-0.58517027,-4.640991,-2.89823,-2.18562,72.0
253,2.6097069,-0.10511732,-0.02976942,-4.640991,-2.89823,-2.18562,72.0
254,2.6097069,-0.10511732,-0.02976942,-4.426465,-2.8387573,-2.72937,72.0
255,3.7130096,-1.185339,0.22740531,-4.426465,-2.8387573,-2.72937,72.0
256,3.7130096,-1.185339,0.22740531,-4.163086,-2.5923707,-3.258252,72.0
257,4.2242527,-1.2353684,0.014309406,-4.163086,-2.5923707,-3.258252,72.0
258,4.2242527,-1.2353684,0.014309406,-4.2841554,-2.5456421,-3.703235,72.0
259,4.3483233,-0.8792126,-0.41124535,-4.2841554,-2.5456421,-3.703235,72.0
260,4.3483233,-0.8792126,-0.41124535,-4.7397585,-2.438379,-4.0802493,72.0
261,4.6890106,-1.5241953,-0.58464813,-4.7397585,-2.438379,-4.0802493,72.0
262,4.6890106,-1.5241953,-0.58464813,-4.8438354,-2.441565,-4.2926517,72.0
263,4.973132,-3.2898765,-0.08995962,-4.8438354,-2.441565,-4.2926517,72.0
264,4.973132,-3.2898765,-0.08995962,-3.3952515,-2.2111084,-4.274597,72.0
265,3.663064,-4.1836348,1.5527272,-3.3952515,-2.2111084,-4.274597,72.0
266,3.663064,-4.1836348,1.5527272,-2.1909301,-1.9190552,-3.6958008,72.0
267,0.41581488,-3.387789,3.692145,-2.1909301,-1.9190552,-3.6958008,72.0
268,0.41581488,-3.387789,3.692145,-0.91757816,-1.5250489,-3.1350586,72.0
269,-2.6554704,-1.6328874,4.5669727,-0.91757816,-1.5250489,-3.1350586,72.0
270,-2.6554704,-1.6328874,4.5669727,-0.1539917,-1.3784913,-2.434131,72.0
271,-3.5986562,0.0067029,3.507204,-0.1539917,-1.3784913,-2.434131,72.0
272,-3.5986562,0.0067029,3.507204,0.03717041,-1.1257324,-1.6662964,72.0
273,-2.8614078,0.5267613,1.5797867,0.03717041,-1.1257324,-1.6662964,72.0
274,-2.8614078,0.5267613,1.5797867,-0.22939454,-0.7476563,-1.0131592,72.0
275,-1.9876125,0.21474409,0.13452022,-0.22939454,-0.7476563,-1.0131592,72.0
276,-1.9876125,0.21474409,0.13452022,-0.6488892,-0.5331299,-0.48215333,72.0
277,-1.5916405,-0.101715446,-0.39694926,-0.6488892,-0.5331299,-0.48215333,72.0
278,-1.5916405,-0.101715446,-0.39694926,-1.1395386,-0.27612305,-0.15717773,72.0
279,-1.6501558,0.02446258,-0.22946127,-1.1395386,-0.27612305,-0.15717773,72.0
280,-1.6501558,0.02446258,-0.22946127,-1.5643433,-0.05522461,0.07646485,72.0
281,-1.9890699,0.41714096,0.2454349,-1.5643433,-0.05522461,0.07646485,72.0
282,-1.9890699,0.41714096,0.2454349,-1.8351563,0.07965088,0.1996582,72.0
283,-2.374349,0.80048525,0.66185087,-1.8351563,0.07965088,0.1996582,72.0
284,-2.374349,0.80048525,0.66185087,-2.1548219,0.17947999,0.2824951,72.0
285,-2.6828046,0.99588144,0.7121467,-2.1548219,0.17947999,0.2824951,72.0
286,-2.6828046,0.99588144,0.7121467,-2.5690064,0.2527588,0.3175415,72.0
287,-2.822855,0.9523083,0.3733917,-2.5690064,0.2527588,0.3175415,72.0
288,-2.822855,0.9523083,0.3733917,-3.0129273,0.2177124,0.2814331,72.0
289,-2.6859207,0.7596494,-0.019450724,-3.0129273,0.2177124,0.2814331,72.0
290,-2.6859207,0.7596494,-0.019450724,-3.4674683,0.11682129,0.16354981,72.0
291,-2.2523255,0.42821515,-0.19500396,-3.4674683,0.11682129,0.16354981,72.0
292,-2.2523255,0.42821515,-0.19500396,-3.6533203,-0.012744141,0.078588866,72.0
293,-1.6700122,-0.040240407,-0.13039282,-3.6533203,-0.012744141,0.078588866,72.0
294,-1.6700122,-0.040240407,-0.13039282,-3.437732,-0.1359375,-0.107263185,72.0
295,-0.9841666,-0.45748532,-0.013970017,-3.437732,-0.1359375,-0.107263185,72.0
296,-0.9841666,-0.45748532,-0.013970017,-3.1138184,-0.22302246,-0.19222413,72.0
297,-0.30182302,-0.7616426,0.020891845,-3.1138184,-0.22302246,-0.19222413,72.0
298,-0.30182302,-0.7616426,0.020891845,-2.5190918,-0.2538208,-0.36002198,72.0
299,0.13681304,-0.9044068,0.06987509,-2.5190918,-0.2538208,-0.36002198,72.0
300,0.13681304,-0.9044068,0.06987509,-1.9402955,-0.31966552,-0.44816896,72.0
301,0.31419897,-0.87091315,0.22825116,-1.9402955,-0.31966552,-0.44816896,72.0
302,0.31419897,-0.87091315,0.22825116,-1.4209718,-0.39506838,-0.5140137,72.0
303,0.28451347,-0.8208883,0.5431844,-1.4209718,-0.39506838,-0.5140137,72.0
304,0.28451347,-0.8208883,0.5431844,-0.8931519,-0.4800293,-0.5235718,72.0
305,0.23184657,-0.7099577,0.89583904,-0.8931519,-0.4800293,-0.5235718,72.0
306,0.23184657,-0.7099577,0.89583904,-0.44604492,-0.54375,-0.4970215,72.0
307,0.23184657,-0.7099577,0.89583904,-0.44604492,-0.54375,-0.4970215,72.0
308,0.37234247,-0.55636954,1.0953455,-0.44604492,-0.54375,-0.4970215,72.0
309,0.37234247,-0.55636954,1.0953455,-0.11363526,-0.5968506,-0.46834716,72.0
310,0.81685597,-0.44347215,1.0184761,-0.11363526,-0.5968506,-0.46834716,72.0
311,0.81685597,-0.44347215,1.0184761,0.10513916,-0.6064087,-0.43754885,72.0
312,1.4925351,-0.4023974,0.6858015,0.10513916,-0.6064087,-0.43754885,72.0
313,1.4925351,-0.4023974,0.6858015,0.18479005,-0.56817627,-0.41843262,72.0
314,2.0809665,-0.3750186,0.29866564,0.18479005,-0.56817627,-0.41843262,72.0
315,2.0809665,-0.3750186,0.29866564,0.15930176,-0.49383545,-0.36745605,72.0
316,2.3588529,-0.3710842,0.09231377,0.15930176,-0.49383545,-0.36745605,72.0
317,2.3588529,-0.3710842,0.09231377,0.0722168,-0.44710693,-0.270813,72.0
318,2.519187,-0.4306321,0.055735826,0.0722168,-0.44710693,-0.270813,72.0
319,2.519187,-0.4306321,0.055735826,-0.03717041,-0.42055663,-0.15186767,72.0
320,2.7040093,-0.5745349,0.05777228,-0.03717041,-0.42055663,-0.15186767,72.0
321,2.7040093,-0.5745349,0.05777228,0.012744141,-0.32497558,0.0063720704,72.0
322,2.127209,-0.7179289,0.18457222,0.012744141,-0.32497558,0.0063720704,72.0
323,2.127209,-0.7179289,0.18457222,0.3525879,-0.21452637,0.21240234,72.0
324,0.39909387,-0.60113764,0.41107333,0.3525879,-0.21452637,0.21240234,72.0
325,0.39909387,-0.60113764,0.41107333,0.82836914,-0.16248779,0.47578126,72.0
326,-1.3899901,-0.09243345,0.46349,0.82836914,-0.16248779,0.47578126,72.0
327,-1.3899901,-0.09243345,0.46349,1.2521118,-0.13275146,0.74659425,72.0
328,-1.9606371,0.5037508,0.18579435,1.2521118,-0.13275146,0.74659425,72.0
329,-1.9606371,0.5037508,0.18579435,1.628064,-0.0722168,0.89208984,72.0
330,-1.2196449,0.8529153,-0.3122288,1.628064,-0.0722168,0.89208984,72.0
331,-1.2196449,0.8529153,-0.3122288,1.9509156,0.06796875,0.8878418,72.0
332,-0.20979786,0.9751179,-0.7998074,1.9509156,0.06796875,0.8878418,72.0
333,-0.20979786,0.9751179,-0.7998074,2.095349,0.21983643,0.814563,72.0
334,0.24897075,1.0074747,-1.1390648,2.095349,0.21983643,0.814563,72.0
335,0.24897075,1.0074747,-1.1390648,2.0337524,0.3536499,0.73703617,72.0
336,0.12484801,1.0681622,-1.3109467,2.0337524,0.3536499,0.73703617,72.0
337,0.12484801,1.0681622,-1.3109467,1.8574585,0.47896728,0.67225343,72.0
338,-0.26386666,1.1985849,-1.3262231,1.8574585,0.47896728,0.67225343,72.0
339,-0.26386666,1.1985849,-1.3262231,1.5866455,0.5331299,0.6605713,72.0
340,-0.59241664,1.2681575,-1.2736007,1.5866455,0.5331299,0.6605713,72.0
341,-0.59241664,1.2681575,-1.2736007,1.3200806,0.5894165,0.7349121,72.0
342,-0.7894729,1.221191,-1.2163781,1.3200806,0.5894165,0.7349121,72.0
343,-0.7894729,1.221191,-1.2163781,1.1108643,0.6446411,0.8485474,72.0
344,-0.76517206,1.123657,-1.1448311,1.1108643,0.6446411,0.8485474,72.0
345,-0.76517206,1.123657,-1.1448311,1.0142212,0.69136965,0.9239502,72.0
346,-0.99927145,1.0884397,-1.2044513,1.0142212,0.69136965,0.9239502,72.0
347,-0.99927145,1.0884397,-1.2044513,0.8092529,0.68074954,1.1597168,72.0
348,-0.77585757,1.0626464,-1.1968374,0.8092529,0.68074954,1.1597168,72.0
349,-0.77585757,1.0626464,-1.1968374,0.7593384,0.70305175,1.2372437,72.0
350,-0.5622266,1.096223,-1.3600457,0.7593384,0.70305175,1.2372437,72.0
351,-0.5622266,1.096223,-1.3600457,0.6839356,0.66588134,1.358313,72.0
352,-0.35756937,1.1006845,-1.3004756,0.6839356,0.66588134,1.358313,72.0
353,-0.35756937,1.1006845,-1.3004756,0.6552612,0.68712157,1.3986695,72.0
354,-0.3601766,1.1779842,-1.3221798,0.6552612,0.68712157,1.3986695,72.0
355,-0.3601766,1.1779842,-1.3221798,0.5851685,0.6138428,1.3954834,72.0
356,-0.27453044,1.1634078,-1.1882858,0.5851685,0.6138428,1.3954834,72.0
357,-0.27453044,1.1634078,-1.1882858,0.5628662,0.5703003,1.3753052,72.0
358,-0.24215853,1.2386365,-0.94647837,0.5628662,0.5703003,1.3753052,72.0
359,-0.24215853,1.2386365,-0.94647837,0.39613038,0.51082766,1.265918,72.0
360,-0.100465104,1.1714268,-0.77306414,0.39613038,0.51082766,1.265918,72.0
361,-0.100465104,1.1714268,-0.77306414,0.3334717,0.4630371,1.2011353,72.0
362,-0.74367774,-1.0401658,2.2862973,0.3334717,0.4630371,1.2011353,72.0
363,-0.74367774,-1.0401658,2.2862973,0.19328614,0.32178956,1.0089111,72.0
364,-0.45209554,-0.8593421,1.7226048,0.19328614,0.32178956,1.0089111,72.0
365,-0.45209554,-0.8593421,1.7226048,0.17629395,0.271875,0.95793456,72.0
366,0.23502767,-0.9025493,1.134639,0.17629395,0.271875,0.95793456,72.0
367,0.23502767,-0.9025493,1.134639,0.17416993,0.107263185,0.74447024,72.0
368,0.51465786,-0.6402402,0.89283085,0.17416993,0.107263185,0.74447024,72.0
369,0.51465786,-0.6402402,0.89283085,0.18054199,0.06159668,0.6680054,72.0
370,1.5139602,-0.44413796,0.91242146,0.18054199,0.06159668,0.6680054,72.0
371,1.5139602,-0.44413796,0.91242146,0.047790527,-0.04991455,0.35152587,72.0
372,1.5520861,-0.38750032,0.80156803,0.047790527,-0.04991455,0.35152587,72.0
373,1.5520861,-0.38750032,0.80156803,-0.0053100586,-0.098767094,0.24001466,72.0
374,1.5621645,-0.6067532,0.77435994,-0.0053100586,-0.098767094,0.24001466,72.0
375,1.5621645,-0.6067532,0.77435994,-0.10938721,-0.19541016,0.020178223,72.0
376,1.1148318,-0.8822043,0.85336244,-0.10938721,-0.19541016,0.020178223,72.0
377,1.1148318,-0.8822043,0.85336244,-0.19434814,-0.35683593,-0.20284425,72.0
378,0.5702468,-1.1241473,1.1258051,-0.19434814,-0.35683593,-0.20284425,72.0
379,0.5702468,-1.1241473,1.1258051,-0.1274414,-0.47578126,-0.3345337,72.0
380,-0.2646278,-1.3073623,1.624216,-0.1274414,-0.47578126,-0.3345337,72.0
381,-0.2646278,-1.3073623,1.624216,0.15080567,-0.60322267,-0.29099122,72.0
382,-1.6044025,-1.5695837,2.479451,0.15080567,-0.60322267,-0.29099122,72.0
383,-1.6044025,-1.5695837,2.479451,0.8007569,-0.9260742,-0.08071289,72.0
384,-1.3962905,-1.3016875,2.3188148,0.8007569,-0.9260742,-0.08071289,72.0
385,-1.3962905,-1.3016875,2.3188148,1.002539,-0.996167,0.08071289,72.0
386,-0.45499638,-0.56410384,2.1846538,1.002539,-0.996167,0.08071289,72.0
387,-0.45499638,-0.56410384,2.1846538,0.95581055,-0.82836914,0.6265869,72.0
388,0.040995568,-0.106190205,1.7568295,0.95581055,-0.82836914,0.6265869,72.0
389,0.040995568,-0.106190205,1.7568295,0.815625,-0.77951664,0.80394286,72.0
390,0.56574327,-0.025064468,1.1515083,0.815625,-0.77951664,0.80394286,72.0
391,0.56574327,-0.025064468,1.1515083,0.7147339,-0.5671143,1.0694458,72.0
392,0.48806822,-0.5987625,0.76669,0.7147339,-0.5671143,1.0694458,72.0
393,0.48806822,-0.5987625,0.76669,0.7699585,-0.362146,1.2860962,72.0
394,-0.17279005,-1.0308533,0.9725683,0.7699585,-0.362146,1.2860962,72.0
395,-0.17279005,-1.0308533,0.9725683,0.5533081,-0.13062744,1.4358399,72.0
396,-1.0864131,-0.94329834,1.4478421,0.5533081,-0.13062744,1.4358399,72.0
397,-1.0864131,-0.94329834,1.4478421,0.36851808,0.060534667,1.5218629,72.0
398,-1.9256247,-0.44987798,1.6571507,0.36851808,0.060534667,1.5218629,72.0
399,-1.9256247,-0.44987798,1.6571507,0.20496826,0.18797608,1.5770874,72.0
400,-2.4437957,0.18519044,1.4504156,0.20496826,0.18797608,1.5770874,72.0
401,-2.4437957,0.18519044,1.4504156,-0.0021240234,0.21452637,1.5983276,72.0
402,-2.4652784,0.71887994,1.0432062,-0.0021240234,0.21452637,1.5983276,72.0
403,-2.4652784,0.71887994,1.0432062,-0.23895264,0.19753419,1.6482422,72.0
404,-2.015875,1.2523012,0.73139143,-0.23895264,0.19753419,1.6482422,72.0
405,-2.015875,1.2523012,0.73139143,-0.9143921,0.1359375,1.8702027,72.0
406,-1.360991,1.4983742,0.50751305,-0.9143921,0.1359375,1.8702027,72.0
407,-1.360991,1.4983742,0.50751305,-1.6779785,-0.012744141,1.9339234,72.0
408,-0.7245593,1.0178523,0.25635242,-1.6779785,-0.012744141,1.9339234,72.0
409,-0.7245593,1.0178523,0.25635242,-1.903125,-0.10407715,1.9339234,72.0
410,-0.7245593,1.0178523,0.25635242,-1.903125,-0.10407715,1.9339234,72.0
411,-0.26051903,0.33709675,-0.08965683,-1.903125,-0.10407715,1.9339234,72.0
412,-0.26051903,0.33709675,-0.08965683,-1.6694825,-0.29736328,1.7735596,72.0
413,0.12840128,0.03444791,-0.3445282,-1.6694825,-0.29736328,1.7735596,72.0
414,0.12840128,0.03444791,-0.3445282,-1.7778076,-0.36639404,1.7650635,72.0
415,0.63990355,-0.011382103,-0.4458742,-1.7778076,-0.36639404,1.7650635,72.0
416,0.63990355,-0.011382103,-0.4458742,-1.9243653,-0.5363159,1.719397,72.0
417,1.0986172,-0.06975019,-0.5260472,-1.9243653,-0.5363159,1.719397,72.0
418,1.0986172,-0.06975019,-0.5260472,-2.0911012,-0.53950197,1.6694825,72.0
419,1.2485348,-0.2629168,-0.6323614,-2.0911012,-0.53950197,1.6694825,72.0
420,1.2485348,-0.2629168,-0.6323614,-1.725769,-0.6860596,1.538855,72.0
421,1.2508543,-0.18948388,-0.7324028,-1.725769,-0.6860596,1.538855,72.0
422,1.2508543,-0.18948388,-0.7324028,-1.4921265,-0.72854006,1.4273437,72.0
423,1.3634641,-0.0011354685,-0.6039033,-1.4921265,-0.72854006,1.4273437,72.0
424,1.3634641,-0.0011354685,-0.6039033,-2.0072021,-0.8644776,1.3625611,72.0
425,1.5367553,-0.48378193,-0.27273464,-2.0072021,-0.8644776,1.3625611,72.0
426,1.5367553,-0.48378193,-0.27273464,-1.7788696,-0.7593384,1.0694458,72.0
427,1.5037329,-1.4958268,-0.13818264,-1.7788696,-0.7593384,1.0694458,72.0
428,1.5037329,-1.4958268,-0.13818264,-1.5292969,-0.74871826,0.86553955,72.0
429,1.1330767,-1.6681948,-0.042040348,-1.5292969,-0.74871826,0.86553955,72.0
430,1.1330767,-1.6681948,-0.042040348,-0.25806886,-0.3812622,0.2357666,72.0
431,0.70548475,-0.04896021,0.46552563,-0.25806886,-0.3812622,0.2357666,72.0
432,0.70548475,-0.04896021,0.46552563,-1.1044922,-0.18479005,-0.050976563,72.0
433,0.2612872,1.3091106,0.43463993,-1.1044922,-0.18479005,-0.050976563,72.0
434,0.2612872,1.3091106,0.43463993,-2.8674316,-0.14761963,-0.25700685,72.0
435,-0.3685215,0.7977402,-0.74307156,-2.8674316,-0.14761963,-0.25700685,72.0
436,-0.3685215,0.7977402,-0.74307156,-3.2009034,-0.32072756,-0.47578126,72.0
437,-1.1346244,-0.86995006,-2.4377558,-3.2009034,-0.32072756,-0.47578126,72.0
438,-1.1346244,-0.86995006,-2.4377558,-1.989148,-0.6510132,-0.6680054,72.0
439,-1.5652068,-2.4539557,-3.45134,-1.989148,-0.6510132,-0.6680054,72.0
440,-1.5652068,-2.4539557,-3.45134,-0.17523193,-0.901648,-0.6053467,72.0
441,-1.321477,-2.019207,-2.6025271,-0.17523193,-0.901648,-0.6053467,72.0
442,-1.321477,-2.019207,-2.6025271,0.33240968,-0.901648,-0.6616333,72.0
443,-0.73428124,-0.08239436,-0.59667015,0.33240968,-0.901648,-0.6616333,72.0
444,-0.73428124,-0.08239436,-0.59667015,-0.5936646,-0.8464233,-0.6680054,72.0
445,-0.30774975,0.875906,0.48234415,-0.5936646,-0.8464233,-0.6680054,72.0
446,-0.30774975,0.875906,0.48234415,-0.9526245,-0.8485474,-0.7423462,72.0
447,0.027457476,0.46160126,0.28649783,-0.9526245,-0.8485474,-0.7423462,72.0
448,0.027457476,0.46160126,0.28649783,-0.8251831,-0.6000366,-0.7338501,72.0
449,0.19785714,-0.2944274,-0.031226635,-0.8251831,-0.6000366,-0.7338501,72.0
450,0.19785714,-0.2944274,-0.031226635,-0.99510497,-0.39400634,-0.55755615,72.0
451,0.2868868,-0.8194041,0.00463295,-0.99510497,-0.39400634,-0.55755615,72.0
452,0.2868868,-0.8194041,0.00463295,-0.4067505,-0.45135498,-0.59897465,72.0
453,0.50261736,-0.523309,0.23948526,-0.4067505,-0.45135498,-0.59897465,72.0
454,0.50261736,-0.523309,0.23948526,-0.542688,-0.39082032,-0.33984375,72.0
455,0.47655678,0.26334763,0.61888313,-0.542688,-0.39082032,-0.33984375,72.0
456,0.47655678,0.26334763,0.61888313,-0.5012695,-0.44073486,-0.26975098,72.0
457,0.19552767,0.91362,1.0000992,-0.5012695,-0.44073486,-0.26975098,72.0
458,0.19552767,0.91362,1.0000992,-0.88253176,-0.49489745,-0.13275146,72.0
459,-0.068980694,1.1838868,1.0621519,-0.88253176,-0.49489745,-0.13275146,72.0
460,-0.068980694,1.1838868,1.0621519,-0.991919,-0.48215333,-0.12531738,72.0
461,-0.16181296,0.8866236,0.7381737,-0.991919,-0.48215333,-0.12531738,72.0
462,-0.16181296,0.8866236,0.7381737,-1.3041505,-0.45347902,-0.09239502,72.0
463,-0.14440393,0.2152803,0.26057076,-1.3041505,-0.45347902,-0.09239502,72.0
464,-0.14440393,0.2152803,0.26057076,-1.2298096,-0.30161133,-0.07434082,72.0
465,-0.0031695962,-0.52748275,0.07668185,-1.2298096,-0.30161133,-0.07434082,72.0
466,-0.0031695962,-0.52748275,0.07668185,-0.96430665,-0.08283692,-0.093457036,72.0
467,0.19136083,-1.3515515,-0.24876189,-0.96430665,-0.08283692,-0.093457036,72.0
468,0.19136083,-1.3515515,-0.24876189,-0.632959,-0.03079834,0.07965088,72.0
469,0.48128694,-1.7779331,-0.7277081,-0.632959,-0.03079834,0.07965088,72.0
470,0.48128694,-1.7779331,-0.7277081,-0.17523193,0.019116212,-0.015930176,72.0
471,0.47657007,-1.6483717,-0.93798923,-0.17523193,0.019116212,-0.015930176,72.0
472,0.47657007,-1.6483717,-0.93798923,0.96430665,0.05628662,0.08602295,72.0
473,-0.15925908,-1.3493614,-1.1652231,0.96430665,0.05628662,0.08602295,72.0
474,-0.15925908,-1.3493614,-1.1652231,2.4872315,0.098767094,0.083898924,72.0
475,-0.68440187,-0.004989624,-0.9335458,2.4872315,0.098767094,0.083898924,72.0
476,-0.68440187,-0.004989624,-0.9335458,1.5431031,-0.022302246,-0.03186035,72.0
477,-0.49222362,1.2946534,-0.101536274,1.5431031,-0.022302246,-0.03186035,72.0
478,-0.49222362,1.2946534,-0.101536274,0.7476563,0.013806152,-0.0998291,72.0
479,0.037068307,1.0324268,0.75725985,0.7476563,0.013806152,-0.0998291,72.0
480,0.037068307,1.0324268,0.75725985,0.98129886,0.16036378,-0.21027832,72.0
481,0.44101942,-0.09655595,1.2626195,0.98129886,0.16036378,-0.21027832,72.0
482,0.44101942,-0.09655595,1.2626195,1.6535523,0.27293703,-0.33134767,72.0
483,0.83195376,-1.3137805,1.2300785,1.6535523,0.27293703,-0.33134767,72.0
484,0.83195376,-1.3137805,1.2300785,3.0182374,0.41524658,-0.4725952,72.0
485,1.283544,-1.6894765,0.71730256,3.0182374,0.41524658,-0.4725952,72.0
486,1.283544,-1.6894765,0.71730256,4.1206055,0.70942384,-0.63614506,72.0
487,1.5585979,-0.5130191,0.026185751,4.1206055,0.70942384,-0.63614506,72.0
488,1.5585979,-0.5130191,0.026185751,3.8370483,0.8379273,-0.7519043,72.0
489,1.4841952,0.9850073,-0.44766712,3.8370483,0.8379273,-0.7519043,72.0
490,1.4841952,0.9850073,-0.44766712,4.0462646,0.92076415,-0.99085695,72.0
491,1.327676,1.4372003,-0.5301552,4.0462646,0.92076415,-0.99085695,72.0
492,1.327676,1.4372003,-0.5301552,4.2926517,0.7455322,-1.3020264,72.0
493,1.2708323,1.444792,-0.49184895,4.2926517,0.7455322,-1.3020264,72.0
494,1.2708323,1.444792,-0.49184895,5.072168,0.99935305,-1.5707153,72.0
495,0.7556429,2.278612,-0.38162613,5.072168,0.99935305,-1.5707153,72.0
496,0.7556429,2.278612,-0.38162613,4.4710693,1.0545777,-1.7140869,72.0
497,-0.23105693,2.9767349,-0.47431946,4.4710693,1.0545777,-1.7140869,72.0
498,-0.23105693,2.9767349,-0.47431946,4.617627,0.6403931,-1.8893188,72.0
499,-0.7746527,2.709403,-0.87125254,4.617627,0.6403931,-1.8893188,72.0
500,-0.7746527,2.709403,-0.87125254,4.9372926,0.30267334,-2.0241945,72.0
501,-0.7746527,2.709403,-0.87125254,4.882068,-0.02442627,-2.1187134,72.0
502,-0.6713946,2.3764946,-1.1410817,4.882068,-0.02442627,-2.1187134,72.0
503,-0.31265277,2.2138667,-1.0222526,4.882068,-0.02442627,-2.1187134,72.0
504,-0.31265277,2.2138667,-1.0222526,4.167334,-0.26337892,-2.1102173,72.0
505,0.021533012,1.9834713,-0.39503598,4.167334,-0.26337892,-2.1102173,72.0
506,0.021533012,1.9834713,-0.39503598,2.6019287,-0.45560303,-2.1049073,72.0
507,0.24471664,1.1697605,0.25759172,2.6019287,-0.45560303,-2.1049073,72.0
508,0.24471664,1.1697605,0.25759172,1.4390259,-0.3706421,-1.9222412,72.0
509,0.010433912,-0.27652073,0.47481108,1.4390259,-0.3706421,-1.9222412,72.0
510,0.010433912,-0.27652073,0.47481108,1.263794,-0.5161377,-1.8054199,72.0
511,0.010433912,-0.27652073,0.47481108,1.263794,-0.5161377,-1.8054199,73.0
512,-0.64679205,-1.657093,0.28517115,1.263794,-0.5161377,-1.8054199,73.0
513,-0.64679205,-1.657093,0.28517115,1.7034668,-0.70942384,-1.5887696,73.0
514,-1.2019552,-2.0524933,0.15385711,1.7034668,-0.70942384,-1.5887696,73.0
515,-1.2019552,-2.0524933,0.15385711,1.7300171,-0.8612915,-1.2425537,73.0
516,-1.3876262,-1.6028589,0.46230698,1.7300171,-0.8612915,-1.2425537,73.0
517,-1.3876262,-1.6028589,0.46230698,1.2213135,-0.8326172,-0.84111327,73.0
518,-1.3979672,-1.0975703,1.0412688,1.2213135,-0.8326172,-0.84111327,73.0
519,-1.3979672,-1.0975703,1.0412688,0.83049315,-0.8591675,-0.61702883,73.0
520,-1.4545188,-0.71644735,1.5137157,0.83049315,-0.8591675,-0.61702883,73.0
521,-1.4545188,-0.71644735,1.5137157,0.47365722,-0.7890747,-0.45666504,73.0
522,-1.5352093,-0.27363396,1.6753283,0.47365722,-0.7890747,-0.45666504,73.0
523,-1.5352093,-0.27363396,1.6753283,0.38444826,-0.7455322,-0.32922363,73.0
524,-1.4331235,0.2117325,1.5332437,0.38444826,-0.7455322,-0.32922363,73.0
525,-1.4331235,0.2117325,1.5332437,-0.10195313,-0.62764895,-0.05628662,73.0
526,-1.0834984,0.33399785,1.3164144,-0.10195313,-0.62764895,-0.05628662,73.0
527,-1.0834984,0.33399785,1.3164144,-0.51188964,-0.45772704,0.13487549,73.0
528,-0.6430682,-0.3177749,1.232111,-0.51188964,-0.45772704,0.13487549,73.0
529,-0.6430682,-0.3177749,1.232111,0.1539917,-0.42055663,0.17523193,73.0
530,-0.22640526,-0.99255,1.1632891,0.1539917,-0.42055663,0.17523193,73.0
531,-0.22640526,-0.99255,1.1632891,0.9696167,-0.20603028,0.1178833,73.0
532,-0.09151244,-0.18252873,0.9796424,0.9696167,-0.20603028,0.1178833,73.0
533,-0.09151244,-0.18252873,0.9796424,1.1342286,0.025488282,0.10089111,73.0
534,0.03642142,1.8508521,0.79401684,1.1342286,0.025488282,0.10089111,73.0
535,0.03642142,1.8508521,0.79401684,0.81987303,0.08602295,-0.08283692,73.0
536,0.86714983,3.3893855,0.7349572,0.81987303,0.08602295,-0.08283692,73.0
537,0.86714983,3.3893855,0.7349572,0.09133301,0.28355715,-0.098767094,73.0
538,2.143671,3.0059907,0.7020769,0.09133301,0.28355715,-0.098767094,73.0
539,2.143671,3.0059907,0.7020769,-0.2782471,0.56817627,0.004248047,73.0
540,3.0284622,1.4540725,0.506083,-0.2782471,0.56817627,0.004248047,73.0
541,3.0284622,1.4540725,0.506083,-0.6117188,0.81243896,0.1359375,73.0
542,2.9850135,0.6194836,-0.054606438,-0.6117188,0.81243896,0.1359375,73.0
543,2.9850135,0.6194836,-0.054606438,-1.2149414,1.0057251,0.26550293,73.0
544,1.847752,0.40702486,-0.83883905,-1.2149414,1.0057251,0.26550293,73.0
545,1.847752,0.40702486,-0.83883905,-1.9169312,1.0014771,0.2782471,73.0
546,0.2394321,-0.23954129,-1.4076314,-1.9169312,1.0014771,0.2782471,73.0
547,0.2394321,-0.23954129,-1.4076314,-2.1335816,0.90802,0.28674316,73.0
548,-1.1477,-1.5234079,-1.5865545,-2.1335816,0.90802,0.28674316,73.0
549,-1.1477,-1.5234079,-1.5865545,-1.7958618,0.6680054,0.43861085,73.0
550,-1.9505209,-2.4434335,-1.428936,-1.7958618,0.6680054,0.43861085,73.0
551,-1.9505209,-2.4434335,-1.428936,-1.3922974,0.41737062,0.56817627,73.0
552,-2.1694498,-1.8389264,-1.1110322,-1.3922974,0.41737062,0.56817627,73.0
553,-2.1694498,-1.8389264,-1.1110322,-1.2850342,0.26975098,0.6669434,73.0
554,-2.1715097,0.021559015,-0.9036939,-1.2850342,0.26975098,0.6669434,73.0
555,-2.1715097,0.021559015,-0.9036939,-1.3349488,0.22196046,0.69136965,73.0
556,-2.177503,1.5926623,-0.8237972,-1.3349488,0.22196046,0.69136965,73.0
557,-2.177503,1.5926623,-0.8237972,-1.1883911,0.07434082,0.5140137,73.0
558,-2.036656,2.3822963,-1.0020552,-1.1883911,0.07434082,0.5140137,73.0
559,-2.036656,2.3822963,-1.0020552,-1.081128,-0.12956543,0.3440918,73.0
560,-1.697916,2.079421,-1.0279627,-1.081128,-0.12956543,0.3440918,73.0
561,-1.697916,2.079421,-1.0279627,-1.806482,-0.1720459,0.4163086,73.0
562,-0.82289577,0.1736443,-0.4020698,-1.806482,-0.1720459,0.4163086,73.0
563,-0.82289577,0.1736443,-0.4020698,-2.1505737,-0.46622315,0.24638672,73.0
564,0.7323816,-2.6243172,-0.07467103,-2.1505737,-0.46622315,0.24638672,73.0
565,0.7323816,-2.6243172,-0.07467103,-1.44115,-0.61915284,0.10301514,73.0
566,2.1625166,-4.3718657,-0.32467842,-1.44115,-0.61915284,0.10301514,73.0
567,2.1625166,-4.3718657,-0.32467842,-0.26444092,-0.6552612,0.033984374,73.0
568,2.9006922,-3.668855,-0.3551407,-0.26444092,-0.6552612,0.033984374,73.0
569,2.9006922,-3.668855,-0.3551407,0.61702883,-0.4630371,0.05522461,73.0
570,2.6377292,-1.0804942,-0.23639536,0.61702883,-0.4630371,0.05522461,73.0
571,2.6377292,-1.0804942,-0.23639536,0.86341554,-0.21558838,-0.12000733,73.0
572,1.6956325,2.070651,-0.022539139,0.86341554,-0.21558838,-0.12000733,73.0
573,1.6956325,2.070651,-0.022539139,0.13806152,-0.2527588,-0.12319336,73.0
574,1.1187496,4.114834,0.45503998,0.13806152,-0.2527588,-0.12319336,73.0
575,1.1187496,4.114834,0.45503998,-0.9547486,-0.070092775,-0.32285157,73.0
576,1.1756394,4.3952,0.9131775,-0.9547486,-0.070092775,-0.32285157,73.0
577,1.1756394,4.3952,0.9131775,-1.8680786,0.15717773,-0.4056885,73.0
578,1.3660243,3.162229,1.2286623,-1.8680786,0.15717773,-0.4056885,73.0
579,1.3660243,3.162229,1.2286623,-2.5307739,0.32816163,-0.5320679,73.0
580,1.2231905,0.94289374,0.9498489,-2.5307739,0.32816163,-0.5320679,73.0
581,1.2231905,0.94289374,0.9498489,-2.6953857,0.4959595,-0.5161377,73.0
582,0.5437014,-1.1214784,-0.05031395,-2.6953857,0.4959595,-0.5161377,73.0
583,0.5437014,-1.1214784,-0.05031395,-2.6072388,0.45135498,-0.6202149,73.0
584,-0.3396361,-2.2875881,-0.96667933,-2.6072388,0.45135498,-0.6202149,73.0
585,-0.3396361,-2.2875881,-0.96667933,-2.005078,0.32816163,-0.75509036,73.0
586,-0.99145985,-2.5491257,-1.2478797,-2.005078,0.32816163,-0.75509036,73.0
587,-0.99145985,-2.5491257,-1.2478797,-1.5261109,0.20921631,-0.8931519,73.0
588,-1.0883584,-2.18963,-0.80684876,-1.5261109,0.20921631,-0.8931519,73.0
589,-1.0883584,-2.18963,-0.80684876,-1.002539,0.23895264,-1.0078491,73.0
590,-0.8684162,-1.6311963,-0.12709522,-1.002539,0.23895264,-1.0078491,73.0
591,-0.8684162,-1.6311963,-0.12709522,-0.61702883,0.21346436,-1.0736939,73.0
592,-0.58601713,-1.0116343,0.21905136,-0.61702883,0.21346436,-1.0736939,73.0
593,-0.58601713,-1.0116343,0.21905136,-0.8889038,0.087084964,-1.0694458,73.0
594,-0.048098385,-0.97225916,0.36346126,-0.8889038,0.087084964,-1.0694458,73.0
595,-0.048098385,-0.97225916,0.36346126,-1.2967163,0.09451904,-0.94412845,73.0
596,0.51626986,-1.4917234,0.42325187,-1.2967163,0.09451904,-0.94412845,73.0
597,0.51626986,-1.4917234,0.42325187,-1.2807862,0.26550293,-0.8527954,73.0
598,0.6542512,-1.6733593,0.24826932,-1.2807862,0.26550293,-0.8527954,73.0
599,0.6542512,-1.6733593,0.24826932,-0.8973999,0.31966552,-0.75615233,73.0
600,0.4962281,-1.4740145,0.118927956,-0.8973999,0.31966552,-0.75615233,73.0
601,0.4962281,-1.4740145,0.118927956,-0.66269535,0.41737062,-0.7412842,73.0
602,0.41564703,-1.2725344,0.26893377,-0.66269535,0.41737062,-0.7412842,73.0
603,0.41564703,-1.2725344,0.26893377,-0.9165161,0.5150757,-0.8612915,73.0
604,0.41564703,-1.2725344,0.26893377,-1.2489258,0.4704712,-1.1278565,73.0
605,0.42712212,-1.1847634,0.26020312,-1.2489258,0.4704712,-1.1278565,73.0
606,0.45324552,-1.3567219,0.13477373,-1.2489258,0.4704712,-1.1278565,73.0
607,0.45324552,-1.3567219,0.13477373,-1.4252198,0.32709962,-1.2064453,73.0
608,0.40237916,-1.6102798,0.24314618,-1.4252198,0.32709962,-1.2064453,73.0
609,0.40237916,-1.6102798,0.24314618,-0.95368654,0.18372802,-1.0428956,73.0
610,0.40237916,-1.6102798,0.24314618,-0.95368654,0.18372802,-1.0428956,73.0
611,0.13738179,-1.1620276,0.6062722,-0.95368654,0.18372802,-1.0428956,73.0
612,0.13738179,-1.1620276,0.6062722,-0.4630371,0.13912354,-0.66481936,73.0
613,-0.28566337,0.21095419,1.0887532,-0.4630371,0.13912354,-0.66481936,73.0
614,-0.28566337,0.21095419,1.0887532,-0.47684327,0.17416993,-0.22514649,73.0
615,-0.6913115,1.7963758,1.3218937,-0.47684327,0.17416993,-0.22514649,73.0
616,-0.6913115,1.7963758,1.3218937,-0.9897949,0.37701416,0.14230958,73.0
617,-1.0762548,2.9717443,1.4010453,-0.9897949,0.37701416,0.14230958,73.0
618,-1.0762548,2.9717443,1.4010453,-2.2429688,0.5214478,0.4056885,73.0
619,-1.2430961,2.8554227,1.3853626,-2.2429688,0.5214478,0.4056885,73.0
620,-1.2430961,2.8554227,1.3853626,-2.7006958,0.7880127,0.5055176,73.0
621,-1.2350287,1.4921874,0.82675934,-2.7006958,0.7880127,0.5055176,73.0
622,-1.2350287,1.4921874,0.82675934,-2.5626342,1.0205933,0.46409914,73.0
623,-1.4987164,-0.0722779,-0.17501831,-2.5626342,1.0205933,0.46409914,73.0
624,-1.4987164,-0.0722779,-0.17501831,-2.1909301,1.0259033,0.29736328,73.0
625,-1.7585435,-1.3758277,-1.1108031,-2.1909301,1.0259033,0.29736328,73.0
626,-1.7585435,-1.3758277,-1.1108031,-2.0273805,0.9324463,0.12956543,73.0
627,-1.7372425,-2.1014678,-1.5387402,-2.0273805,0.9324463,0.12956543,73.0
628,-1.7372425,-2.1014678,-1.5387402,-1.0726318,0.8230591,-0.04885254,73.0
629,-1.6088126,-1.9039161,-1.3040147,-1.0726318,0.8230591,-0.04885254,73.0
630,-1.6088126,-1.9039161,-1.3040147,-0.24638672,0.6244629,-0.06478272,73.0
631,-1.1974504,-0.6928351,-0.5086291,-0.24638672,0.6244629,-0.06478272,73.0
632,-1.1974504,-0.6928351,-0.5086291,-0.1178833,0.5076416,-0.1359375,73.0
633,-0.41845834,0.7164595,0.4176693,-0.1178833,0.5076416,-0.1359375,73.0
634,-0.41845834,0.7164595,0.4176693,-0.46516114,0.47896728,-0.16248779,73.0
635,0.37762356,1.2408924,0.79520726,-0.46516114,0.47896728,-0.16248779,73.0
636,0.37762356,1.2408924,0.79520726,-0.9483765,0.5055176,-0.13699952,73.0
637,0.83875656,0.71882486,0.33424926,-0.9483765,0.5055176,-0.13699952,73.0
638,0.83875656,0.71882486,0.33424926,-1.1618408,0.5246338,-0.095581055,73.0
639,0.9322357,-0.0034558773,-0.41640186,-1.1618408,0.5246338,-0.095581055,73.0
640,0.9322357,-0.0034558773,-0.41640186,-1.1289185,0.56817627,-0.028674318,73.0
641,0.88149416,-0.37501812,-0.71755767,-1.1289185,0.56817627,-0.028674318,73.0
642,0.88149416,-0.37501812,-0.71755767,-1.1055542,0.6425171,0.15930176,73.0
643,0.80376714,-0.5421531,-0.5473249,-1.1055542,0.6425171,0.15930176,73.0
644,0.80376714,-0.5421531,-0.5473249,-1.4209718,0.7540283,0.42374268,73.0
645,0.49513775,-0.9298651,-0.35927105,-1.4209718,0.7540283,0.42374268,73.0
646,0.49513775,-0.9298651,-0.35927105,-1.713025,0.7975708,0.5979126,73.0
647,-0.05113101,-1.3905106,-0.20686269,-1.713025,0.7975708,0.5979126,73.0
648,-0.05113101,-1.3905106,-0.20686269,-1.4528321,0.78376466,0.632959,73.0
649,-0.5045279,-1.626349,-0.016759634,-1.4528321,0.78376466,0.632959,73.0
650,-0.5045279,-1.626349,-0.016759634,-1.1533448,0.71154785,0.7742066,73.0
651,-0.73669124,-1.7564259,0.07221246,-1.1533448,0.71154785,0.7742066,73.0
652,-0.73669124,-1.7564259,0.07221246,-0.8729736,0.5894165,0.7986328,73.0
653,-0.5188452,-1.749794,0.07208872,-0.8729736,0.5894165,0.7986328,73.0
654,-0.5188452,-1.749794,0.07208872,-0.4067505,0.46728516,0.74447024,73.0
655,0.055309653,-1.5996156,0.007085085,-0.4067505,0.46728516,0.74447024,73.0
656,0.055309653,-1.5996156,0.007085085,-0.011682129,0.39188233,0.84323734,73.0
657,0.4649508,-1.3281178,-0.14688325,-0.011682129,0.39188233,0.84323734,73.0
658,0.4649508,-1.3281178,-0.14688325,0.4439209,0.26019287,0.9420044,73.0
659,0.71087664,-0.90463305,-0.12317085,0.4439209,0.26019287,0.9420044,73.0
660,0.71087664,-0.90463305,-0.12317085,0.6680054,0.2803711,1.0694458,73.0
661,0.9459596,0.042455673,0.48990345,0.6680054,0.2803711,1.0694458,73.0
662,0.9459596,0.042455673,0.48990345,0.48109132,0.5341919,1.1023682,73.0
663,0.90761,1.2489915,1.2897623,0.48109132,0.5341919,1.1023682,73.0
664,0.90761,1.2489915,1.2897623,-0.16142578,0.7317261,1.1586548,73.0
665,0.6847428,1.2208238,1.1482649,-0.16142578,0.7317261,1.1586548,73.0
666,0.6847428,1.2208238,1.1482649,-0.3440918,0.8612915,1.2340577,73.0
667,0.56153935,-0.1150403,0.055953026,-0.3440918,0.8612915,1.2340577,73.0
668,0.56153935,-0.1150403,0.055953026,0.038232423,0.9802368,1.1905152,73.0
669,0.35343072,-0.89401007,-0.9032235,0.038232423,0.9802368,1.1905152,73.0
670,0.35343072,-0.89401007,-0.9032235,0.40144044,0.9632446,1.1671509,73.0
671,-0.19385454,-0.0063581467,-1.2440875,0.40144044,0.9632446,1.1671509,73.0
672,-0.19385454,-0.0063581467,-1.2440875,0.4715332,0.8612915,1.1352905,73.0
673,-0.8742731,1.6962929,-1.1736879,0.4715332,0.8612915,1.1352905,73.0
674,-0.8742731,1.6962929,-1.1736879,0.22089843,0.73597413,1.2276856,73.0
675,-1.4888594,2.9611847,-1.125071,0.22089843,0.73597413,1.2276856,73.0
676,-1.4888594,2.9611847,-1.125071,0.4056885,0.63720703,1.0227174,73.0
677,-1.9585435,3.287527,-1.2556477,0.4056885,0.63720703,1.0227174,73.0
678,-1.9585435,3.287527,-1.2556477,0.060534667,0.40462646,1.1990112,73.0
679,-2.2344618,2.567119,-1.6693375,0.060534667,0.40462646,1.1990112,73.0
680,-2.2344618,2.567119,-1.6693375,0.3993164,0.3079834,0.7476563,73.0
681,-2.3000207,1.2573572,-2.2122645,0.3993164,0.3079834,0.7476563,73.0
682,-2.3000207,1.2573572,-2.2122645,0.5809204,0.06478272,0.5235718,73.0
683,-1.8968403,-0.22012734,-2.5527096,0.5809204,0.06478272,0.5235718,73.0
684,-1.8968403,-0.22012734,-2.5527096,0.8889038,-0.16567384,0.2984253,73.0
685,-0.9742961,-0.88769865,-2.1128464,0.8889038,-0.16567384,0.2984253,73.0
686,-0.9742961,-0.88769865,-2.1128464,1.0917481,-0.31116945,0.057348635,73.0
687,-0.03998375,-0.60511756,-0.8551698,1.0917481,-0.31116945,0.057348635,73.0
688,-0.03998375,-0.60511756,-0.8551698,0.9717407,-0.35895997,0.029736329,73.0
689,0.18205118,0.12515879,0.44556388,0.9717407,-0.35895997,0.029736329,73.0
690,0.18205118,0.12515879,0.44556388,0.5628662,-0.40250245,0.060534667,73.0
691,-0.099513054,1.0338917,1.1081846,0.5628662,-0.40250245,0.060534667,73.0
692,-0.099513054,1.0338917,1.1081846,0.13168946,-0.40037844,0.046728518,73.0
693,-0.38172245,1.3983414,0.9591062,0.13168946,-0.40037844,0.046728518,73.0
694,-0.38172245,1.3983414,0.9591062,0.026550293,-0.40250245,-0.032922365,73.0
695,-0.53524876,1.0075525,0.50797105,0.026550293,-0.40250245,-0.032922365,73.0
696,-0.53524876,1.0075525,0.50797105,0.23682861,-0.38657227,-0.18691407,73.0
697,-0.47926092,0.2038325,0.22168446,0.23682861,-0.38657227,-0.18691407,73.0
698,-0.47926092,0.2038325,0.22168446,0.20178223,-0.41949463,-0.29948732,73.0
699,-0.2759869,-0.7109451,0.1978432,0.20178223,-0.41949463,-0.29948732,73.0
700,-0.2759869,-0.7109451,0.1978432,0.46834716,-0.45666504,-0.33134767,73.0
701,0.15721345,-1.3321228,0.38702214,0.46834716,-0.45666504,-0.33134767,73.0
702,0.15721345,-1.3321228,0.38702214,0.6085327,-0.5384399,-0.33240968,73.0
703,0.15721345,-1.3321228,0.38702214,0.5012695,-0.541626,-0.2803711,73.0
704,0.7445209,-1.5007935,0.8055284,0.5012695,-0.541626,-0.2803711,73.0
705,1.5220449,-1.7100098,1.4669569,0.5012695,-0.541626,-0.2803711,73.0
706,1.5220449,-1.7100098,1.4669569,0.68924564,-0.3345337,-0.10301514,73.0
707,1.9577117,-1.6842921,1.9399352,0.68924564,-0.3345337,-0.10301514,73.0
708,1.9577117,-1.6842921,1.9399352,1.0875,-0.0180542,0.025488282,73.0
709,1.5288403,-0.4219699,2.0299025,1.0875,-0.0180542,0.025488282,73.0
710,1.5288403,-0.4219699,2.0299025,0.9876709,0.06796875,-0.02442627,73.0
711,1.0117319,1.4478855,1.6588707,0.9876709,0.06796875,-0.02442627,73.0
712,1.0117319,1.4478855,1.6588707,0.14124756,0.1263794,-0.11469727,73.0
713,1.0117319,1.4478855,1.6588707,0.14124756,0.1263794,-0.11469727,73.0
714,0.7130476,1.7726517,0.49427176,0.14124756,0.1263794,-0.11469727,73.0
715,0.7130476,1.7726517,0.49427176,-0.17735596,0.1720459,-0.19647217,73.0
716,0.51937604,0.5440004,-0.75757337,-0.17735596,0.1720459,-0.19647217,73.0
717,0.51937604,0.5440004,-0.75757337,-0.035046387,0.05628662,-0.24320069,73.0
718,0.48941445,-0.43663812,-1.079716,-0.035046387,0.05628662,-0.24320069,73.0
719,0.48941445,-0.43663812,-1.079716,-0.0053100586,0.038232423,-0.33984375,73.0
720,0.4899081,-0.5123477,-0.48771095,-0.0053100586,0.038232423,-0.33984375,73.0
721,0.4899081,-0.5123477,-0.48771095,-0.20496826,0.052038576,-0.4619751,73.0
722,0.48111105,-0.34667015,0.26217484,-0.20496826,0.052038576,-0.4619751,73.0
723,0.48111105,-0.34667015,0.26217484,-0.39400634,0.14868164,-0.5607422,73.0
724,0.4750622,-0.40831757,0.65236664,-0.39400634,0.14868164,-0.5607422,73.0
725,0.4750622,-0.40831757,0.65236664,-0.3164795,0.14549561,-0.6223389,73.0
726,0.4627036,-0.23893452,0.52525043,-0.3164795,0.14549561,-0.6223389,73.0
727,0.4627036,-0.23893452,0.52525043,-0.23895264,0.16142578,-0.7306641,73.0
728,0.46673274,0.17044902,-0.24585176,-0.23895264,0.16142578,-0.7306641,73.0
729,0.46673274,0.17044902,-0.24585176,-0.5479981,0.12319336,-0.7391602,73.0
730,0.42525387,-0.063115835,-1.3071916,-0.5479981,0.12319336,-0.7391602,73.0
731,0.42525387,-0.063115835,-1.3071916,-0.79119873,0.06584473,-0.50445557,73.0
732,0.50021285,-1.0816207,-1.7165296,-0.79119873,0.06584473,-0.50445557,73.0
733,0.50021285,-1.0816207,-1.7165296,-0.13699952,0.0,-0.41418457,73.0
734,0.543432,-1.0662608,-1.1501646,-0.13699952,0.0,-0.41418457,73.0
735,0.543432,-1.0662608,-1.1501646,0.60322267,0.26125488,-0.1996582,73.0
736,0.08120558,0.93683505,-0.38772202,0.60322267,0.26125488,-0.1996582,73.0
737,0.08120558,0.93683505,-0.38772202,0.61915284,0.42055663,-0.19647217,73.0
738,-0.62186414,3.3243825,-0.20740664,0.61915284,0.42055663,-0.19647217,73.0
739,-0.62186414,3.3243825,-0.20740664,0.07327881,0.51188964,-0.271875,73.0
740,-1.0048156,4.1263275,-0.69906735,0.07327881,0.51188964,-0.271875,73.0
741,-1.0048156,4.1263275,-0.69906735,-0.7784546,0.44604492,-0.38232422,73.0
742,-0.80513424,2.5303712,-1.2551891,-0.7784546,0.44604492,-0.38232422,73.0
743,-0.80513424,2.5303712,-1.2551891,-0.92076415,0.45454103,-0.42799073,73.0
744,-0.3267734,-0.24280518,-0.9990976,-0.92076415,0.45454103,-0.42799073,73.0
745,-0.3267734,-0.24280518,-0.9990976,-0.8379273,0.544812,-0.32072756,73.0
746,-0.029143333,-2.446002,0.024635553,-0.8379273,0.544812,-0.32072756,73.0
747,-0.029143333,-2.446002,0.024635553,-0.65207523,0.6265869,-0.21452637,73.0
748,-0.009984612,-3.2241478,1.0678653,-0.65207523,0.6265869,-0.21452637,73.0
749,-0.009984612,-3.2241478,1.0678653,-0.31966552,0.7317261,-0.14868164,73.0
750,-0.30511904,-2.5254488,1.4291945,-0.31966552,0.7317261,-0.14868164,73.0
751,-0.30511904,-2.5254488,1.4291945,0.08602295,0.7890747,-0.13168946,73.0
752,-0.7972325,-1.176377,1.0326011,0.08602295,0.7890747,-0.13168946,73.0
753,-0.7972325,-1.176377,1.0326011,0.60959476,0.64570314,-0.11469727,73.0
754,-1.0618706,0.21292686,0.52556825,0.60959476,0.64570314,-0.11469727,73.0
755,-1.0618706,0.21292686,0.52556825,1.2138795,0.5140137,-0.121069334,73.0
756,-0.86117864,1.5098803,0.3941729,1.2138795,0.5140137,-0.121069334,73.0
757,-0.86117864,1.5098803,0.3941729,0.97280276,0.5235718,-0.17416993,73.0
758,-0.38397467,1.8006532,0.5041933,0.97280276,0.5235718,-0.17416993,73.0
759,-0.38397467,1.8006532,0.5041933,0.37701416,0.68499756,-0.24213867,73.0
760,-0.21438193,0.56956315,0.5122292,0.37701416,0.68499756,-0.24213867,73.0
761,-0.21438193,0.56956315,0.5122292,0.53525394,0.7805786,-0.32603762,73.0
762,-0.56779456,-0.9037001,0.27766657,0.53525394,0.7805786,-0.32603762,73.0
763,-0.56779456,-0.9037001,0.27766657,0.9345703,0.7582764,-0.35152587,73.0
764,-0.86838365,-1.4747667,0.044252396,0.9345703,0.7582764,-0.35152587,73.0
765,-0.86838365,-1.4747667,0.044252396,1.3838013,0.7593384,-0.52038574,73.0
766,-0.8718066,-0.4844277,-0.04914403,1.3838013,0.7593384,-0.52038574,73.0
767,-0.8718066,-0.4844277,-0.04914403,0.86341554,0.8251831,-0.46409914,73.0
768,-0.84018207,1.624311,-0.30678344,0.86341554,0.8251831,-0.46409914,73.0
769,-0.84018207,1.624311,-0.30678344,-0.022302246,0.8517334,-0.48533937,73.0
770,-0.8759177,2.9316876,-0.59548783,-0.022302246,0.8517334,-0.48533937,73.0
771,-0.8759177,2.9316876,-0.59548783,-0.76464844,0.81031495,-0.5320679,73.0
772,-1.0483415,2.6129649,-0.35694456,-0.76464844,0.81031495,-0.5320679,73.0
773,-1.0483415,2.6129649,-0.35694456,-1.2882203,0.7327881,-0.54906005,73.0
774,-1.2589002,0.92792076,0.19690275,-1.2882203,0.7327881,-0.54906005,73.0
775,-1.2589002,0.92792076,0.19690275,-1.3275146,0.5171997,-0.5246338,73.0
776,-1.1632724,-0.96249735,0.7003689,-1.3275146,0.5171997,-0.5246338,73.0
777,-1.1632724,-0.96249735,0.7003689,-1.1883911,0.39188233,-0.41099855,73.0
778,-0.5402005,-1.5180936,1.6610765,-1.1883911,0.39188233,-0.41099855,73.0
779,-0.5402005,-1.5180936,1.6610765,-1.3423828,0.59047854,-0.22514649,73.0
780,0.23995876,-1.1813939,3.0189857,-1.3423828,0.59047854,-0.22514649,73.0
781,0.23995876,-1.1813939,3.0189857,-1.6620483,0.9303223,-0.050976563,73.0
782,0.50889826,-1.0241191,3.048758,-1.6620483,0.9303223,-0.050976563,73.0
783,0.50889826,-1.0241191,3.048758,-1.7470093,1.0482056,0.08283692,73.0
784,0.29404473,-1.170162,0.764678,-1.7470093,1.0482056,0.08283692,73.0
785,0.29404473,-1.170162,0.764678,-1.7618774,0.99298096,0.24107666,73.0
786,0.12818003,-1.8191862,-2.2571907,-1.7618774,0.99298096,0.24107666,73.0
787,0.12818003,-1.8191862,-2.2571907,-1.4188477,0.5957886,0.5299439,73.0
788,0.7579274,-2.5904198,-3.3328154,-1.4188477,0.5957886,0.5299439,73.0
789,0.7579274,-2.5904198,-3.3328154,-1.176709,0.11682129,0.6945557,73.0
790,2.9039493,-2.811252,-1.3878222,-1.176709,0.11682129,0.6945557,73.0
791,2.9039493,-2.811252,-1.3878222,-0.23364258,0.045666505,0.5055176,73.0
792,5.056314,-1.1417022,0.94096303,-0.23364258,0.045666505,0.5055176,73.0
793,5.056314,-1.1417022,0.94096303,0.61915284,0.33028564,0.25063476,73.0
794,4.602119,2.5050464,0.29244328,0.61915284,0.33028564,0.25063476,73.0
795,4.602119,2.5050464,0.29244328,0.6223389,0.13168946,0.14761963,73.0
796,2.0197568,5.2981415,-2.380938,0.6223389,0.13168946,0.14761963,73.0
797,2.0197568,5.2981415,-2.380938,-0.08602295,-0.25913087,-0.004248047,73.0
798,0.038315237,4.8660035,-3.838869,-0.08602295,-0.25913087,-0.004248047,73.0
799,0.038315237,4.8660035,-3.838869,-0.62127686,-0.4598511,-0.13699952,73.0
800,-0.44434783,1.4230883,-2.9773943,-0.62127686,-0.4598511,-0.13699952,73.0
801,-0.44434783,1.4230883,-2.9773943,-0.7614624,-0.3058594,-0.5883545,73.0
802,-0.57248265,-3.1931944,-0.8933168,-0.7614624,-0.3058594,-0.5883545,73.0
803,-0.57248265,-3.1931944,-0.8933168,-0.6467652,-0.014868164,-0.59472656,73.0
804,-1.2670926,-6.2274923,0.65229,-0.6467652,-0.014868164,-0.59472656,73.0
805,-1.2670926,-6.2274923,0.65229,-0.07540283,0.24744873,-0.5522461,73.0
806,-2.4436789,-5.251135,0.6501157,-0.07540283,0.24744873,-0.5522461,73.0
807,-2.4436789,-5.251135,0.6501157,-0.41206056,0.362146,-0.7497803,73.0
808,-3.303991,-1.309392,-0.5674441,-0.41206056,0.362146,-0.7497803,73.0
809,-3.303991,-1.309392,-0.5674441,-0.6510132,0.20072022,-0.72216797,73.0
810,-3.0342085,1.7043419,-1.6854739,-0.6510132,0.20072022,-0.72216797,73.0
811,-3.0342085,1.7043419,-1.6854739,-0.6138428,0.11682129,-0.6786255,73.0
812,-2.11765,1.9024506,-1.4391994,-0.6138428,0.11682129,-0.6786255,73.0
813,-2.11765,1.9024506,-1.4391994,-0.7062378,0.09451904,-0.632959,73.0
814,-2.11765,1.9024506,-1.4391994,-0.7062378,0.09451904,-0.632959,74.0
815,-1.4724281,1.0247927,-0.40311736,-0.7062378,0.09451904,-0.632959,74.0
816,-1.4724281,1.0247927,-0.40311736,-1.2414917,0.038232423,-0.69349366,74.0
817,-1.1556401,0.12251973,-0.2153894,-1.2414917,0.038232423,-0.69349366,74.0
818,-1.1556401,0.12251973,-0.2153894,-1.1905152,-0.087084964,-0.7858887,74.0
819,-0.85504174,-0.46832943,-0.57549757,-1.1905152,-0.087084964,-0.7858887,74.0
820,-0.85504174,-0.46832943,-0.57549757,-0.7742066,-0.2803711,-0.62127686,74.0
821,-0.42648935,-0.46638727,-0.41860116,-0.7742066,-0.2803711,-0.62127686,74.0
822,-0.42648935,-0.46638727,-0.41860116,-0.5341919,-0.46834716,-0.44498292,74.0
823,-0.07271004,0.04814267,0.34769964,-0.5341919,-0.46834716,-0.44498292,74.0
824,-0.07271004,0.04814267,0.34769964,-0.21558838,-0.61915284,-0.28568116,74.0
825,0.6779525,1.2567148,1.9162701,-0.21558838,-0.61915284,-0.28568116,74.0
826,0.6779525,1.2567148,1.9162701,-0.49277344,-0.79013675,-0.1709839,74.0
827,1.977628,2.5356574,3.214962,-0.49277344,-0.79013675,-0.1709839,74.0
828,1.977628,2.5356574,3.214962,-1.7969239,-0.83049315,0.11682129,74.0
829,2.9213235,1.9933453,2.4510345,-1.7969239,-0.83049315,0.11682129,74.0
830,2.9213235,1.9933453,2.4510345,-3.1446168,-0.8527954,0.30373535,74.0
831,3.6156232,-0.3800919,0.7526977,-3.1446168,-0.8527954,0.30373535,74.0
832,3.6156232,-0.3800919,0.7526977,-2.3746583,-0.6223389,-0.087084964,74.0
833,4.2831116,-1.6683068,-0.17352545,-2.3746583,-0.6223389,-0.087084964,74.0
834,4.2831116,-1.6683068,-0.17352545,-1.7045288,-0.34090576,-0.3079834,74.0
835,4.0745726,-0.9766376,-0.68442583,-1.7045288,-0.34090576,-0.3079834,74.0
836,4.0745726,-0.9766376,-0.68442583,-1.7767457,-0.09451904,-0.35895997,74.0
837,2.8544703,0.34342146,-0.8957219,-1.7767457,-0.09451904,-0.35895997,74.0
838,2.8544703,0.34342146,-0.8957219,-2.2822633,0.046728518,-0.14337158,74.0
839,1.6366036,1.1944883,-0.07644081,-2.2822633,0.046728518,-0.14337158,74.0
840,1.6366036,1.1944883,-0.07644081,-2.985315,0.362146,0.06584473,74.0
841,0.8384943,0.86901855,1.1107223,-2.985315,0.362146,0.06584473,74.0
842,0.8384943,0.86901855,1.1107223,-3.449414,0.7848267,0.22196046,74.0
843,0.09608841,-0.33369136,1.0818396,-3.449414,0.7848267,0.22196046,74.0
844,0.09608841,-0.33369136,1.0818396,-3.8604126,1.0397094,0.40462646,74.0
845,-0.38249207,-1.8624365,-0.7878976,-3.8604126,1.0397094,0.40462646,74.0
846,-0.38249207,-1.8624365,-0.7878976,-3.2476318,1.2075074,0.6956177,74.0
847,-0.6374023,-2.6854205,-3.5015829,-3.2476318,1.2075074,0.6956177,74.0
848,-0.6374023,-2.6854205,-3.5015829,-2.0443726,1.3774292,0.33028564,74.0
849,-1.1328955,-1.9139247,-4.7429533,-2.0443726,1.3774292,0.33028564,74.0
850,-1.1328955,-1.9139247,-4.7429533,-1.354065,1.3264526,0.41312256,74.0
851,-1.9538383,-0.51672316,-3.8217676,-1.354065,1.3264526,0.41312256,74.0
852,-1.9538383,-0.51672316,-3.8217676,-0.57561034,0.9897949,0.43754885,74.0
853,-2.1080658,0.3420782,-2.7336104,-0.57561034,0.9897949,0.43754885,74.0
854,-2.1080658,0.3420782,-2.7336104,-0.36639404,0.8464233,0.5533081,74.0
855,-2.7558007,3.2879083,-1.0501819,-0.36639404,0.8464233,0.5533081,74.0
856,-2.7558007,3.2879083,-1.0501819,-0.11469727,0.7306641,0.50870365,74.0
857,-2.2932758,3.5359664,-0.5968716,-0.11469727,0.7306641,0.50870365,74.0
858,-2.2932758,3.5359664,-0.5968716,-0.0010620117,0.77314454,0.32709962,74.0
859,-1.4873064,3.8701673,0.537493,-0.0010620117,0.77314454,0.32709962,74.0
860,-1.4873064,3.8701673,0.537493,-0.8782837,0.9568726,0.18479005,74.0
861,-0.96906877,2.9101353,0.5502825,-0.8782837,0.9568726,0.18479005,74.0
862,-0.96906877,2.9101353,0.5502825,-1.1427246,1.0981201,0.16142578,74.0
863,-0.89489603,0.7910111,-0.060005903,-1.1427246,1.0981201,0.16142578,74.0
864,-0.89489603,0.7910111,-0.060005903,-1.2000732,1.081128,0.038232423,74.0
865,-0.932848,-0.1546545,-0.54903007,-1.2000732,1.081128,0.038232423,74.0
866,-0.932848,-0.1546545,-0.54903007,-0.813501,1.0131592,-0.0361084,74.0
867,-1.5703263,-3.003643,-1.9241729,-0.813501,1.0131592,-0.0361084,74.0
868,-1.5703263,-3.003643,-1.9241729,0.90695804,0.7306641,-0.09239502,74.0
869,-1.5110464,-3.0818207,-1.9773998,0.90695804,0.7306641,-0.09239502,74.0
870,-1.5110464,-3.0818207,-1.9773998,1.6769165,0.67225343,-0.15505372,74.0
871,-1.8299432,-1.6152248,-0.8998518,1.6769165,0.67225343,-0.15505372,74.0
872,-1.8299432,-1.6152248,-0.8998518,1.545227,0.44816896,0.04141846,74.0
873,-1.4900165,-0.7028122,-0.08640957,1.545227,0.44816896,0.04141846,74.0
874,-1.4900165,-0.7028122,-0.08640957,1.26167,0.3430298,0.124255374,74.0
875,-0.64544344,0.06821895,2.0211556,1.26167,0.3430298,0.124255374,74.0
876,-0.64544344,0.06821895,2.0211556,0.5872925,0.19222413,0.15823975,74.0
877,-0.20154762,0.009213924,2.033697,0.5872925,0.19222413,0.15823975,74.0
878,-0.20154762,0.009213924,2.033697,0.52675784,0.23045655,0.09133301,74.0
879,0.22073221,0.53652143,1.9000045,0.52675784,0.23045655,0.09133301,74.0
880,0.22073221,0.53652143,1.9000045,-0.18266602,0.31223145,0.035046387,74.0
881,0.19810677,0.87051344,1.2476648,-0.18266602,0.31223145,0.035046387,74.0
882,0.19810677,0.87051344,1.2476648,-0.5872925,0.3695801,-0.0998291,74.0
883,0.4501357,1.2907467,0.5520015,-0.5872925,0.3695801,-0.0998291,74.0
884,0.4501357,1.2907467,0.5520015,-1.4719483,0.34727785,-0.10513916,74.0
885,1.1837413,0.41753387,0.8861691,-1.4719483,0.34727785,-0.10513916,74.0
886,1.1837413,0.41753387,0.8861691,-0.8729736,0.44710693,-0.33878174,74.0
887,1.83973,-1.5629945,1.659448,-0.8729736,0.44710693,-0.33878174,74.0
888,1.83973,-1.5629945,1.659448,0.48321533,0.29417726,-0.25063476,74.0
889,2.021247,-2.5608692,1.4261425,0.48321533,0.29417726,-0.25063476,74.0
890,2.021247,-2.5608692,1.4261425,0.724292,0.23258057,-0.039294433,74.0
891,1.69981,-1.5714614,0.12000331,0.724292,0.23258057,-0.039294433,74.0
892,1.69981,-1.5714614,0.12000331,0.53100586,0.16567384,-0.038232423,74.0
893,1.4560761,-0.5499549,0.18847093,0.53100586,0.16567384,-0.038232423,74.0
894,1.4560761,-0.5499549,0.18847093,-0.025488282,0.20496826,0.028674318,74.0
895,2.2780201,0.27467227,1.5044389,-0.025488282,0.20496826,0.028674318,74.0
896,2.2780201,0.27467227,1.5044389,-1.2202514,0.29523927,0.118945315,74.0
897,2.1039834,-0.3639903,1.4385487,-1.2202514,0.29523927,0.118945315,74.0
898,2.1039834,-0.3639903,1.4385487,-0.8379273,0.45666504,0.0361084,74.0
899,1.5819662,-1.5723448,1.1360074,-0.8379273,0.45666504,0.0361084,74.0
900,1.5819662,-1.5723448,1.1360074,-0.5363159,0.5692383,-0.18160401,74.0
901,0.7058439,-1.434658,0.10638893,-0.5363159,0.5692383,-0.18160401,74.0
902,0.7058439,-1.434658,0.10638893,-0.5787964,0.45666504,-0.45347902,74.0
903,0.31345445,-1.4113984,-1.631112,-0.5787964,0.45666504,-0.45347902,74.0
904,0.31345445,-1.4113984,-1.631112,-0.85385746,0.05522461,-0.24532472,74.0
905,0.18584657,-2.0004077,-2.758735,-0.85385746,0.05522461,-0.24532472,74.0
906,0.18584657,-2.0004077,-2.758735,-0.11469727,-0.2623169,-0.10620117,74.0
907,-0.10979442,-1.5107512,-2.2278743,-0.11469727,-0.2623169,-0.10620117,74.0
908,-0.10979442,-1.5107512,-2.2278743,1.6110718,-0.30373535,0.1539917,74.0
909,-0.4405455,0.53751755,-0.78405714,1.6110718,-0.30373535,0.1539917,74.0
910,-0.4405455,0.53751755,-0.78405714,2.4797974,-0.3982544,0.3695801,74.0
911,-0.74801743,3.514145,0.4353031,2.4797974,-0.3982544,0.3695801,74.0
912,-0.74801743,3.514145,0.4353031,1.7576294,-0.5522461,0.14337158,74.0
913,-0.74801743,3.514145,0.4353031,1.7576294,-0.5522461,0.14337158,74.0
914,-0.6946908,6.427954,1.0951297,1.7576294,-0.5522461,0.14337158,74.0
915,-0.6946908,6.427954,1.0951297,-0.56180423,-0.4991455,0.03079834,74.0
916,-0.008987546,6.170525,1.0352103,-0.56180423,-0.4991455,0.03079834,74.0
917,-0.008987546,6.170525,1.0352103,-1.4050416,-0.17735596,-0.40462646,74.0
918,1.4737792,2.1260443,0.27295583,-1.4050416,-0.17735596,-0.40462646,74.0
919,1.4737792,2.1260443,0.27295583,-1.9583496,0.32072756,-0.32709962,74.0
920,2.4453442,-2.586689,-1.4253243,-1.9583496,0.32072756,-0.32709962,74.0
921,2.4453442,-2.586689,-1.4253243,-1.4623902,0.6138428,-0.22302246,74.0
922,1.2217661,-4.714798,-4.132142,-1.4623902,0.6138428,-0.22302246,74.0
923,1.2217661,-4.714798,-4.132142,0.5097656,0.1731079,-0.24532472,74.0
924,-1.2430339,-2.3716066,-5.2604012,0.5097656,0.1731079,-0.24532472,74.0
925,-1.2430339,-2.3716066,-5.2604012,0.021240234,-0.14974366,-0.30161133,74.0
926,-3.0199888,1.6354542,-3.557674,0.021240234,-0.14974366,-0.30161133,74.0
927,-3.0199888,1.6354542,-3.557674,-0.3430298,-0.34940186,-0.18585205,74.0
928,-3.6690307,2.9386125,-1.4365568,-0.3430298,-0.34940186,-0.18585205,74.0
929,-3.6690307,2.9386125,-1.4365568,-0.32072756,-0.62552494,-0.2824951,74.0
930,-3.529719,0.9177357,-0.5050683,-0.32072756,-0.62552494,-0.2824951,74.0
931,-3.529719,0.9177357,-0.5050683,0.97067875,-0.8846558,-0.5766724,74.0
932,-2.9284627,-1.1112583,0.20252514,0.97067875,-0.8846558,-0.5766724,74.0
933,-2.9284627,-1.1112583,0.20252514,1.6885986,-0.9611206,-0.813501,74.0
934,-1.7447968,-1.0902638,1.5010214,1.6885986,-0.9611206,-0.813501,74.0
935,-1.7447968,-1.0902638,1.5010214,0.9547486,-1.1522827,-0.62977296,74.0
936,-0.42565918,-0.43142748,2.444079,0.9547486,-1.1522827,-0.62977296,74.0
937,-0.42565918,-0.43142748,2.444079,0.36320803,-0.91864014,-0.7593384,74.0
938,-0.017443657,-0.6440921,2.1639302,0.36320803,-0.91864014,-0.7593384,74.0
939,-0.017443657,-0.6440921,2.1639302,0.41099855,-0.97067875,-0.7041138,74.0
940,-0.13956547,-1.7958035,1.1230509,0.41099855,-0.97067875,-0.7041138,74.0
941,-0.13956547,-1.7958035,1.1230509,1.8829468,-1.0482056,-0.6287109,74.0
942,0.40682912,-2.3942235,0.6552522,1.8829468,-1.0482056,-0.6287109,74.0
943,0.40682912,-2.3942235,0.6552522,1.719397,-1.0163453,-0.53525394,74.0
944,1.2943964,-2.2887917,1.0148635,1.719397,-1.0163453,-0.53525394,74.0
945,1.2943964,-2.2887917,1.0148635,1.9466676,-0.7678345,-0.5511841,74.0
946,1.6666939,-1.8406281,1.596156,1.9466676,-0.7678345,-0.5511841,74.0
947,1.6666939,-1.8406281,1.596156,1.7714356,-0.7582764,-0.53100586,74.0
948,2.0495172,-0.7349291,2.0158896,1.7714356,-0.7582764,-0.53100586,74.0
949,2.0495172,-0.7349291,2.0158896,1.2552979,-0.6085327,-0.40993652,74.0
950,3.1038227,0.5809655,2.3967693,1.2552979,-0.6085327,-0.40993652,74.0
951,3.1038227,0.5809655,2.3967693,-0.0180542,-0.21877442,-0.2538208,74.0
952,4.1259537,1.2180195,2.552645,-0.0180542,-0.21877442,-0.2538208,74.0
953,4.1259537,1.2180195,2.552645,-0.8846558,0.33134767,-0.24320069,74.0
954,4.1408386,0.47696686,1.8048235,-0.8846558,0.33134767,-0.24320069,74.0
955,4.1408386,0.47696686,1.8048235,-0.33028564,0.5607422,-0.50870365,74.0
956,3.1749513,-1.2036562,0.40189105,-0.33028564,0.5607422,-0.50870365,74.0
957,3.1749513,-1.2036562,0.40189105,1.1437867,0.80394286,-0.6531372,74.0
958,1.8397048,-1.8272195,-0.4617269,1.1437867,0.80394286,-0.6531372,74.0
959,1.8397048,-1.8272195,-0.4617269,1.2945923,0.721106,-0.452417,74.0
960,0.5474963,-0.65164375,-0.46982098,1.2945923,0.721106,-0.452417,74.0
961,0.5474963,-0.65164375,-0.46982098,1.0099732,0.6552612,-0.25594482,74.0
962,-0.6288974,1.2112904,-0.012795255,1.0099732,0.6552612,-0.25594482,74.0
963,-0.6288974,1.2112904,-0.012795255,0.6117188,0.6180908,-0.059472658,74.0
964,-1.4065847,2.553969,0.43795717,0.6117188,0.6180908,-0.059472658,74.0
965,-1.4065847,2.553969,0.43795717,0.31860352,0.6988037,0.11682129,74.0
966,-1.5742791,3.2658558,0.50565135,0.31860352,0.6988037,0.11682129,74.0
967,-1.5742791,3.2658558,0.50565135,-0.13487549,0.90908206,0.16779785,74.0
968,-1.3886104,3.945705,0.12031701,-0.13487549,0.90908206,0.16779785,74.0
969,-1.3886104,3.945705,0.12031701,-1.0609497,1.3147706,0.14655761,74.0
970,-1.1764278,4.6003504,-0.6408924,-1.0609497,1.3147706,0.14655761,74.0
971,-1.1764278,4.6003504,-0.6408924,-2.5042236,1.4528321,0.26550293,74.0
972,-1.0477952,4.3342357,-1.647919,-2.5042236,1.4528321,0.26550293,74.0
973,-1.0477952,4.3342357,-1.647919,-3.6480103,1.8457764,0.24851075,74.0
974,-1.0944129,2.8920345,-2.6261356,-3.6480103,1.8457764,0.24851075,74.0
975,-1.0944129,2.8920345,-2.6261356,-4.280969,1.9764038,0.21983643,74.0
976,-1.4133233,1.152385,-3.467327,-4.280969,1.9764038,0.21983643,74.0
977,-1.4133233,1.152385,-3.467327,-4.437085,2.0687988,0.07965088,74.0
978,-1.8100044,0.19136602,-3.6403532,-4.437085,2.0687988,0.07965088,74.0
979,-1.8100044,0.19136602,-3.6403532,-4.878882,2.0592408,-0.06796875,74.0
980,-1.9524102,-0.17162645,-2.9488673,-4.878882,2.0592408,-0.06796875,74.0
981,-1.9524102,-0.17162645,-2.9488673,-4.850208,1.9583496,-0.16673584,74.0
982,-1.8417866,-0.6731898,-2.0364377,-4.850208,1.9583496,-0.16673584,74.0
983,-1.8417866,-0.6731898,-2.0364377,-4.1822023,1.8861328,-0.31966552,74.0
984,-1.6652627,-1.0298727,-1.2237911,-4.1822023,1.8861328,-0.31966552,74.0
985,-1.6652627,-1.0298727,-1.2237911,-3.6522584,1.5898316,-0.61915284,74.0
986,-1.2138386,-1.0782194,-0.6814499,-3.6522584,1.5898316,-0.61915284,74.0
987,-1.2138386,-1.0782194,-0.6814499,-2.9502685,1.358313,-0.9505005,74.0
988,-0.42557526,-0.93204576,-0.30046988,-2.9502685,1.358313,-0.9505005,74.0
989,-0.42557526,-0.93204576,-0.30046988,-2.2397828,1.1459106,-1.3317627,74.0
990,0.32218623,-0.73963076,0.062028885,-2.2397828,1.1459106,-1.3317627,74.0
991,0.32218623,-0.73963076,0.062028885,-1.3954834,1.0067872,-1.5792115,74.0
992,0.7183814,-0.43795705,0.38803864,-1.3954834,1.0067872,-1.5792115,74.0
993,0.7183814,-0.43795705,0.38803864,-1.0428956,0.65207523,-1.9583496,74.0
994,0.97077453,-0.05145207,0.55581665,-1.0428956,0.65207523,-1.9583496,74.0
995,0.97077453,-0.05145207,0.55581665,-0.9303223,0.3812622,-2.18562,74.0
996,1.2810752,0.15351608,0.5409422,-0.9303223,0.3812622,-2.18562,74.0
997,1.2810752,0.15351608,0.5409422,-0.87615967,0.11363526,-2.3704102,74.0
998,1.5626899,0.08543491,0.4872458,-0.87615967,0.11363526,-2.3704102,74.0
999,1.5626899,0.08543491,0.4872458,-0.8814697,-0.13275146,-2.5477662,74.0
1000,1.8528497,-0.19521406,0.47102213,-0.8814697,-0.13275146,-2.5477662,74.0
1001,1.8528497,-0.19521406,0.47102213,-0.8581055,-0.3695801,-2.6943238,74.0
1002,2.2728071,-0.578974,0.42919803,-0.8581055,-0.3695801,-2.6943238,74.0
1003,2.2728071,-0.578974,0.42919803,-0.77951664,-0.5607422,-2.8387573,74.0
1004,2.8700647,-1.0372881,0.19277239,-0.77951664,-0.5607422,-2.8387573,74.0
1005,2.8700647,-1.0372881,0.19277239,-0.6435791,-0.6414551,-2.9237182,74.0
1006,3.442536,-1.5827968,-0.23482013,-0.6435791,-0.6414551,-2.9237182,74.0
1007,3.442536,-1.5827968,-0.23482013,-0.43117675,-0.61915284,-2.9247804,74.0
1008,3.442536,-1.5827968,-0.23482013,-0.43117675,-0.61915284,-2.9247804,75.0
1009,3.5795538,-2.1946065,-0.61296606,-0.43117675,-0.61915284,-2.9247804,75.0
1010,3.5795538,-2.1946065,-0.61296606,-0.12850343,-0.5872925,-2.8291993,75.0
1011,3.2208574,-2.7241423,-0.70979404,-0.12850343,-0.5872925,-2.8291993,75.0
1012,3.2208574,-2.7241423,-0.70979404,0.18160401,-0.5979126,-2.616797,75.0
1013,2.7151504,-3.0726855,-0.48084784,0.18160401,-0.5979126,-2.616797,75.0
1014,2.7151504,-3.0726855,-0.48084784,0.55543214,-0.5766724,-2.256775,75.0
1015,1.8570447,-3.2314148,0.061671734,0.55543214,-0.5766724,-2.256775,75.0
1016,1.8570447,-3.2314148,0.061671734,1.1129884,-0.4630371,-1.7363892,75.0
1017,0.077017784,-3.052637,0.89029217,1.1129884,-0.4630371,-1.7363892,75.0
1018,0.077017784,-3.052637,0.89029217,1.7693115,-0.43754885,-1.1034302,75.0
1019,-2.0279975,-2.3105059,1.6612327,1.7693115,-0.43754885,-1.1034302,75.0
1020,-2.0279975,-2.3105059,1.6612327,2.3640382,-0.4800293,-0.4885254,75.0
1021,-2.9055645,-1.0345984,1.8946233,2.3640382,-0.4800293,-0.4885254,75.0
1022,-2.9055645,-1.0345984,1.8946233,2.630603,-0.61702883,0.038232423,75.0
1023,-2.07118,0.11823225,1.400733,2.630603,-0.61702883,0.038232423,75.0
1024,-2.07118,0.11823225,1.400733,2.4904175,-0.35789797,0.47471926,75.0
1025,-0.849803,0.5067072,0.5563407,2.4904175,-0.35789797,0.47471926,75.0
1026,-0.849803,0.5067072,0.5563407,2.3990846,-0.15611573,0.7476563,75.0
1027,-0.30877304,0.38518763,-0.12432432,2.3990846,-0.15611573,0.7476563,75.0
1028,-0.30877304,0.38518763,-0.12432432,2.0964112,0.007434082,0.88253176,75.0
1029,-0.36047053,0.27439785,-0.35019183,2.0964112,0.007434082,0.88253176,75.0
1030,-0.36047053,0.27439785,-0.35019183,1.716211,0.16142578,1.0184692,75.0
1031,-0.7144873,0.3749628,-0.18137407,1.716211,0.16142578,1.0184692,75.0
1032,-0.7144873,0.3749628,-0.18137407,1.3625611,0.29311523,1.1820191,75.0
1033,-1.1337969,0.7562814,0.07260084,1.3625611,0.29311523,1.1820191,75.0
1034,-1.1337969,0.7562814,0.07260084,1.0556396,0.40250245,1.3848633,75.0
1035,-1.4244814,1.2197104,0.115002155,1.0556396,0.40250245,1.3848633,75.0
1036,-1.4244814,1.2197104,0.115002155,0.81987303,0.48215333,1.5717773,75.0
1037,-1.4805275,1.5429311,-0.13613558,0.81987303,0.48215333,1.5717773,75.0
1038,-1.4805275,1.5429311,-0.13613558,0.6287109,0.5214478,1.7576294,75.0
1039,-1.2498395,1.6611028,-0.55936,0.6287109,0.5214478,1.7576294,75.0
1040,-1.2498395,1.6611028,-0.55936,0.45560303,0.58623046,1.9169312,75.0
1041,-0.82437116,1.6502202,-0.9903469,0.45560303,0.58623046,1.9169312,75.0
1042,-0.82437116,1.6502202,-0.9903469,0.32178956,0.63826907,2.0295045,75.0
1043,-0.38331285,1.5897074,-1.2549727,0.32178956,0.63826907,2.0295045,75.0
1044,-0.38331285,1.5897074,-1.2549727,0.29630128,0.62764895,2.0380006,75.0
1045,-0.045883685,1.5483651,-1.2824571,0.29630128,0.62764895,2.0380006,75.0
1046,-0.045883685,1.5483651,-1.2824571,0.23045655,0.6903076,2.0008302,75.0
1047,0.1336666,1.5484211,-1.0777967,0.23045655,0.6903076,2.0008302,75.0
1048,0.1336666,1.5484211,-1.0777967,0.13912354,0.7083618,1.9094971,75.0
1049,0.17686737,1.5385172,-0.72075796,0.13912354,0.7083618,1.9094971,75.0
1050,0.17686737,1.5385172,-0.72075796,-0.020178223,0.63933104,1.8139161,75.0
1051,0.29975808,1.5095004,-0.29777336,-0.020178223,0.63933104,1.8139161,75.0
1052,0.29975808,1.5095004,-0.29777336,-0.18372802,0.60109866,1.722583,75.0
1053,0.5241815,1.5213698,0.020960808,-0.18372802,0.60109866,1.722583,75.0
1054,0.5241815,1.5213698,0.020960808,-0.3802002,0.6138428,1.630188,75.0
1055,0.63157666,1.6065123,0.034529686,-0.3802002,0.6138428,1.630188,75.0
1056,0.63157666,1.6065123,0.034529686,-0.55543214,0.5894165,1.5186768,75.0
1057,0.6640382,1.6703662,-0.15037918,-0.55543214,0.5894165,1.5186768,75.0
1058,0.6640382,1.6703662,-0.15037918,-0.6818115,0.51082766,1.3338867,75.0
1059,0.8435596,1.6111343,-0.25677776,-0.6818115,0.51082766,1.3338867,75.0
1060,0.8435596,1.6111343,-0.25677776,-0.7434082,0.43117675,1.0651978,75.0
1061,1.2208072,1.474137,-0.21422338,-0.7434082,0.43117675,1.0651978,75.0
1062,1.2208072,1.474137,-0.21422338,-0.7986328,0.34833986,0.68924564,75.0
1063,1.5431376,1.296375,-0.1432538,-0.7986328,0.34833986,0.68924564,75.0
1064,1.5431376,1.296375,-0.1432538,-0.90908206,0.2782471,0.17523193,75.0
1065,1.3204963,0.9651395,0.06446171,-0.90908206,0.2782471,0.17523193,75.0
1066,1.3204963,0.9651395,0.06446171,-0.9897949,0.18479005,-0.38444826,75.0
1067,0.58480287,0.39922345,0.55341244,-0.9897949,0.18479005,-0.38444826,75.0
1068,0.58480287,0.39922345,0.55341244,-1.0556396,0.019116212,-0.98873293,75.0
1069,-0.11144233,-0.21223748,1.0543876,-1.0556396,0.019116212,-0.98873293,75.0
1070,-0.11144233,-0.21223748,1.0543876,-1.0949341,-0.0541626,-1.4984986,75.0
1071,-0.8368468,-0.6869165,1.3977094,-1.0949341,-0.0541626,-1.4984986,75.0
1072,-0.8368468,-0.6869165,1.3977094,-1.0046631,-0.1263794,-1.812854,75.0
1073,-1.7274,-0.98224807,1.62327,-1.0046631,-0.1263794,-1.812854,75.0
1074,-1.7274,-0.98224807,1.62327,-0.6680054,-0.20390625,-1.9732178,75.0
1075,-1.7274,-0.98224807,1.62327,-0.3154175,-0.3175415,-2.0114503,75.0
1076,-2.2872057,-0.98373544,1.6313431,-0.3154175,-0.3175415,-2.0114503,75.0
1077,-2.2872057,-0.98373544,1.6313431,-0.07540283,-0.3164795,-1.9657837,75.0
1078,-1.9941322,-0.7676158,1.253097,-0.07540283,-0.3164795,-1.9657837,75.0
1079,-1.0491143,-0.56776696,0.56075406,-0.07540283,-0.3164795,-1.9657837,75.0
1080,-1.0491143,-0.56776696,0.56075406,0.020178223,-0.18479005,-1.8574585,75.0
1081,-0.11770946,-0.5179465,-0.19572067,0.020178223,-0.18479005,-1.8574585,75.0
1082,-0.11770946,-0.5179465,-0.19572067,-0.059472658,-0.028674318,-1.7236451,75.0
1083,0.405747,-0.5954607,-0.8097503,-0.059472658,-0.028674318,-1.7236451,75.0
1084,0.405747,-0.5954607,-0.8097503,-0.3430298,0.18266602,-1.5770874,75.0
1085,0.33748823,-0.7276381,-1.1168799,-0.3430298,0.18266602,-1.5770874,75.0
1086,0.33748823,-0.7276381,-1.1168799,-0.78164065,0.31223145,-1.3997315,75.0
1087,-0.15424037,-0.84494007,-1.1370707,-0.78164065,0.31223145,-1.3997315,75.0
1088,-0.15424037,-0.84494007,-1.1370707,-1.2255615,0.4258667,-1.1841431,75.0
1089,-0.7790198,-0.90037835,-1.0183113,-1.2255615,0.4258667,-1.1841431,75.0
1090,-0.7790198,-0.90037835,-1.0183113,-1.5494751,0.4800293,-0.98873293,75.0
1091,-1.2425395,-0.877578,-0.82652664,-1.5494751,0.4800293,-0.98873293,75.0
1092,-1.2425395,-0.877578,-0.82652664,-1.717273,0.32178956,-0.93775636,75.0
1093,-1.2508676,-0.8615229,-0.60832834,-1.717273,0.32178956,-0.93775636,75.0
1094,-1.2508676,-0.8615229,-0.60832834,-1.717273,0.26975098,-0.8602295,75.0
1095,-0.9345808,-1.0069307,-0.3594532,-1.717273,0.26975098,-0.8602295,75.0
1096,-0.9345808,-1.0069307,-0.3594532,-1.4836304,0.16992188,-0.85598147,75.0
1097,-0.6391808,-1.2297757,-0.15984035,-1.4836304,0.16992188,-0.85598147,75.0
1098,-0.6391808,-1.2297757,-0.15984035,-1.0959961,0.008496094,-0.90058595,75.0
1099,-0.37736022,-1.3073313,-0.12552834,-1.0959961,0.008496094,-0.90058595,75.0
1100,-0.37736022,-1.3073313,-0.12552834,-0.7327881,-0.12000733,-0.92501223,75.0
1101,-0.006282747,-1.206778,-0.17996383,-0.7327881,-0.12000733,-0.92501223,75.0
1102,-0.006282747,-1.206778,-0.17996383,-0.34727785,-0.24320069,-0.9802368,75.0
1103,0.35426337,-1.0304248,-0.11761618,-0.34727785,-0.24320069,-0.9802368,75.0
1104,0.35426337,-1.0304248,-0.11761618,-0.14337158,-0.29630128,-0.9802368,75.0
1105,0.53464365,-0.8610709,0.1511097,-0.14337158,-0.29630128,-0.9802368,75.0
1106,0.53464365,-0.8610709,0.1511097,-0.0722168,-0.35789797,-0.94412845,75.0
1107,0.5598194,-0.78175235,0.45061207,-0.0722168,-0.35789797,-0.94412845,75.0
1108,0.5598194,-0.78175235,0.45061207,-0.08496094,-0.41099855,-0.86553955,75.0
1109,0.6490274,-0.7292104,0.5886879,-0.08496094,-0.41099855,-0.86553955,75.0
1110,0.6490274,-0.7292104,0.5886879,-0.1359375,-0.4439209,-0.76677245,75.0
1111,0.6490274,-0.7292104,0.5886879,-0.1359375,-0.4439209,-0.76677245,76.0
1112,0.90113115,-0.72648335,0.56421185,-0.1359375,-0.4439209,-0.76677245,76.0
1113,0.90113115,-0.72648335,0.56421185,-0.1359375,-0.4630371,-0.6775635,76.0
1114,1.3320011,-0.80872583,0.44331264,-0.1359375,-0.4630371,-0.6775635,76.0
1115,1.3320011,-0.80872583,0.44331264,-0.07327881,-0.50870365,-0.60959476,76.0
1116,1.9883792,-0.9241414,0.21308517,-0.07327881,-0.50870365,-0.60959476,76.0
1117,1.9883792,-0.9241414,0.21308517,0.0031860352,-0.4885254,-0.5543701,76.0
1118,2.6459525,-1.0423894,-0.04232478,0.0031860352,-0.4885254,-0.5543701,76.0
1119,2.6459525,-1.0423894,-0.04232478,0.09664307,-0.4715332,-0.48321533,76.0
1120,3.0573993,-1.143311,-0.13764405,0.09664307,-0.4715332,-0.48321533,76.0
1121,3.0573993,-1.143311,-0.13764405,0.20390625,-0.48215333,-0.37382814,76.0
1122,3.0657072,-1.2095585,0.010172844,0.20390625,-0.48215333,-0.37382814,76.0
1123,3.0657072,-1.2095585,0.010172844,0.3971924,-0.42799073,-0.20709229,76.0
1124,1.9189963,-1.2188673,0.49024272,0.3971924,-0.42799073,-0.20709229,76.0
1125,1.9189963,-1.2188673,0.49024272,0.76464844,-0.3058594,0.095581055,76.0
1126,-0.46487617,-0.992733,1.0153143,0.76464844,-0.3058594,0.095581055,76.0
1127,-0.46487617,-0.992733,1.0153143,1.1575928,-0.3440918,0.46409914,76.0
1128,-2.2729263,-0.39472342,1.0152056,1.1575928,-0.3440918,0.46409914,76.0
1129,-2.2729263,-0.39472342,1.0152056,1.5749635,-0.44179687,0.7784546,76.0
1130,-2.1370666,0.261333,0.49197412,1.5749635,-0.44179687,0.7784546,76.0
1131,-2.1370666,0.261333,0.49197412,2.0061402,-0.36002198,1.0439576,76.0
1132,-0.8835181,0.64928865,-0.075683355,2.0061402,-0.36002198,1.0439576,76.0
1133,-0.8835181,0.64928865,-0.075683355,2.355542,-0.19328614,1.176709,76.0
1134,0.03285837,0.8409276,-0.42597628,2.355542,-0.19328614,1.176709,76.0
1135,0.03285837,0.8409276,-0.42597628,2.4553711,-0.011682129,1.2542359,76.0
1136,0.12279546,1.0135746,-0.5837498,2.4553711,-0.011682129,1.2542359,76.0
1137,0.12279546,1.0135746,-0.5837498,2.3215578,0.12531738,1.3264526,76.0
1138,-0.29920018,1.24366,-0.58891153,2.3215578,0.12531738,1.3264526,76.0
1139,-0.29920018,1.24366,-0.58891153,2.0167603,0.24320069,1.4167236,76.0
1140,-0.80132294,1.5249572,-0.46301174,2.0167603,0.24320069,1.4167236,76.0
1141,-0.80132294,1.5249572,-0.46301174,1.6471802,0.32072756,1.5473511,76.0
1142,-1.1634583,1.7472119,-0.30032873,1.6471802,0.32072756,1.5473511,76.0
1143,-1.1634583,1.7472119,-0.30032873,1.2786621,0.3802002,1.6917847,76.0
1144,-1.3171558,1.7858067,-0.19648862,1.2786621,0.3802002,1.6917847,76.0
1145,-1.3171558,1.7858067,-0.19648862,1.0174073,0.39400634,1.8351563,76.0
1146,-1.2660294,1.623738,-0.22800398,1.0174073,0.39400634,1.8351563,76.0
1147,-1.2660294,1.623738,-0.22800398,0.89421386,0.37382814,1.9392334,76.0
1148,-1.0212463,1.4168372,-0.41243243,0.89421386,0.37382814,1.9392334,76.0
1149,-1.0212463,1.4168372,-0.41243243,0.8867798,0.38975832,2.0156982,76.0
1150,-0.67963135,1.3032207,-0.6653218,0.8867798,0.38975832,2.0156982,76.0
1151,-0.67963135,1.3032207,-0.6653218,0.9600586,0.38657227,2.0295045,76.0
1152,-0.36184478,1.3026719,-0.876276,0.9600586,0.38657227,2.0295045,76.0
1153,-0.36184478,1.3026719,-0.876276,1.0747559,0.40462646,1.9636596,76.0
1154,-0.13448313,1.3904287,-0.9580765,1.0747559,0.40462646,1.9636596,76.0
1155,-0.13448313,1.3904287,-0.9580765,1.1129884,0.42692873,1.8585205,76.0
1156,-0.04309675,1.4990128,-0.89345074,1.1129884,0.42692873,1.8585205,76.0
1157,-0.04309675,1.4990128,-0.89345074,1.0099732,0.42692873,1.720459,76.0
1158,-0.004509136,1.5360878,-0.72491693,1.0099732,0.42692873,1.720459,76.0
1159,-0.004509136,1.5360878,-0.72491693,0.8007569,0.42905274,1.5473511,76.0
1160,0.08474718,1.4898932,-0.5093527,0.8007569,0.42905274,1.5473511,76.0
1161,0.08474718,1.4898932,-0.5093527,0.51932377,0.40144044,1.355127,76.0
1162,0.24296865,1.3875567,-0.33685207,0.51932377,0.40144044,1.355127,76.0
1163,0.24296865,1.3875567,-0.33685207,0.17841797,0.39294434,1.1395386,76.0
1164,0.5030297,1.254137,-0.26519728,0.17841797,0.39294434,1.1395386,76.0
1165,0.5030297,1.254137,-0.26519728,-0.1529297,0.37595215,0.90058595,76.0
1166,0.803437,1.1335099,-0.27189922,-0.1529297,0.37595215,0.90058595,76.0
1167,0.803437,1.1335099,-0.27189922,-0.4715332,0.34833986,0.6510132,76.0
1168,1.1131842,1.038827,-0.3036642,-0.4715332,0.34833986,0.6510132,76.0
1169,1.1131842,1.038827,-0.3036642,-0.79119873,0.270813,0.32816163,76.0
1170,1.4152179,0.85758746,-0.26412296,-0.79119873,0.270813,0.32816163,76.0
1171,1.4152179,0.85758746,-0.26412296,-0.99085695,0.18585205,-0.07434082,76.0
1172,1.4044644,0.44169736,-0.01051712,-0.99085695,0.18585205,-0.07434082,76.0
1173,1.4044644,0.44169736,-0.01051712,-0.98236084,0.07965088,-0.51826173,76.0
1174,0.9690914,-0.07068992,0.51099586,-0.98236084,0.07965088,-0.51826173,76.0
1175,0.9690914,-0.07068992,0.51099586,-0.9696167,-0.04991455,-0.9451904,76.0
1176,0.36840057,-0.47123706,1.1043048,-0.9696167,-0.04991455,-0.9451904,76.0
1177,0.36840057,-0.47123706,1.1043048,-0.903772,-0.12000733,-1.2595459,76.0
1178,-0.3851136,-0.7758056,1.5567837,-0.903772,-0.12000733,-1.2595459,76.0
1179,-0.3851136,-0.7758056,1.5567837,-0.66269535,-0.18903808,-1.4634522,76.0
1180,-1.173191,-0.94764644,1.8221726,-0.66269535,-0.18903808,-1.4634522,76.0
1181,-1.173191,-0.94764644,1.8221726,-0.2984253,-0.30161133,-1.5112427,76.0
1182,-1.5115386,-0.89152783,1.837975,-0.2984253,-0.30161133,-1.5112427,76.0
1183,-1.5115386,-0.89152783,1.837975,-0.028674318,-0.30373535,-1.4783204,76.0
1184,-1.2370874,-0.64498496,1.5462222,-0.028674318,-0.30373535,-1.4783204,76.0
1185,-1.2370874,-0.64498496,1.5462222,0.08602295,-0.32178956,-1.3944215,76.0
1186,-0.5758637,-0.30285323,0.93735623,0.08602295,-0.32178956,-1.3944215,76.0
1187,-0.5758637,-0.30285323,0.93735623,0.0063720704,-0.2516968,-1.2468017,76.0
1188,0.051003337,-0.019907102,0.16812229,0.0063720704,-0.2516968,-1.2468017,76.0
1189,0.051003337,-0.019907102,0.16812229,-0.35152587,0.022302246,-1.0959961,76.0
1190,0.050653756,0.02986288,-0.3888421,-0.35152587,0.022302246,-1.0959961,76.0
1191,0.050653756,0.02986288,-0.3888421,-0.8007569,0.18585205,-0.9483765,76.0
1192,-0.5794721,-0.13517952,-0.52210903,-0.8007569,0.18585205,-0.9483765,76.0
1193,-0.5794721,-0.13517952,-0.52210903,-1.264856,0.27293703,-0.84536135,76.0
1194,-1.2241734,-0.3322403,-0.3825922,-1.264856,0.27293703,-0.84536135,76.0
1195,-1.2241734,-0.3322403,-0.3825922,-1.6694825,0.36639404,-0.74447024,76.0
1196,-1.5674125,-0.48761842,-0.22086859,-1.6694825,0.36639404,-0.74447024,76.0
1197,-1.5674125,-0.48761842,-0.22086859,-1.8755127,0.38975832,-0.72323,76.0
1198,-1.6362908,-0.6628609,-0.14643359,-1.8755127,0.38975832,-0.72323,76.0
1199,-1.6362908,-0.6628609,-0.14643359,-1.9487915,0.36639404,-0.80181885,76.0
1200,-1.4332392,-0.8896759,-0.11487627,-1.9487915,0.36639404,-0.80181885,76.0
1201,-1.4332392,-0.8896759,-0.11487627,-1.8224121,0.25700685,-0.9420044,76.0
1202,-0.95082724,-1.1291723,-0.06310463,-1.8224121,0.25700685,-0.9420044,76.0
1203,-0.95082724,-1.1291723,-0.06310463,-1.5930176,0.14549561,-1.1522827,76.0
1204,-0.32333267,-1.2708794,-0.015669107,-1.5930176,0.14549561,-1.1522827,76.0
1205,-0.32333267,-1.2708794,-0.015669107,-1.3094605,0.08283692,-1.3498169,76.0
1206,0.18739104,-1.3121138,-0.009300232,-1.3094605,0.08283692,-1.3498169,76.0
1207,0.18739104,-1.3121138,-0.009300232,-0.98129886,0.03079834,-1.5611572,76.0
1208,0.49448073,-1.2879356,0.032904148,-0.98129886,0.03079834,-1.5611572,76.0
1209,0.49448073,-1.2879356,0.032904148,-0.80394286,-0.038232423,-1.7342652,76.0
1210,0.7506872,-1.2645649,0.13893318,-0.80394286,-0.038232423,-1.7342652,76.0
1211,0.7506872,-1.2645649,0.13893318,-0.74659425,-0.08602295,-1.8319702,76.0
1212,1.0270023,-1.3412418,0.27893233,-0.74659425,-0.08602295,-1.8319702,76.0
1213,1.0270023,-1.3412418,0.27893233,-0.727478,-0.115759276,-1.8383423,76.0
1214,1.2671952,-1.4766436,0.36411262,-0.727478,-0.115759276,-1.8383423,76.0
1215,1.2671952,-1.4766436,0.36411262,-0.7412842,-0.13275146,-1.7406372,76.0
1216,1.3978138,-1.6329751,0.32997417,-0.7412842,-0.13275146,-1.7406372,76.0
1217,1.3978138,-1.6329751,0.32997417,-0.6956177,-0.13487549,-1.5707153,76.0
1218,1.3978138,-1.6329751,0.32997417,-0.6956177,-0.13487549,-1.5707153,77.0
1219,1.5828873,-1.7831378,0.14028549,-0.6956177,-0.13487549,-1.5707153,77.0
1220,1.5828873,-1.7831378,0.14028549,-0.53525394,-0.17416993,-1.3795532,77.0
1221,2.0596936,-1.8383875,-0.2566557,-0.53525394,-0.17416993,-1.3795532,77.0
1222,2.0596936,-1.8383875,-0.2566557,-0.3058594,-0.15717773,-1.1374146,77.0
1223,2.5426035,-1.7801094,-0.69435024,-0.3058594,-0.15717773,-1.1374146,77.0
1224,2.5426035,-1.7801094,-0.69435024,-0.070092775,-0.14974366,-0.88253176,77.0
1225,2.719398,-1.6311674,-0.87275314,-0.070092775,-0.14974366,-0.88253176,77.0
1226,2.719398,-1.6311674,-0.87275314,0.090270996,-0.19434814,-0.61702883,77.0
1227,2.6769466,-1.4389062,-0.6652436,0.090270996,-0.19434814,-0.61702883,77.0
1228,2.6769466,-1.4389062,-0.6652436,0.21134034,-0.19753419,-0.33878174,77.0
1229,1.9102464,-1.2742696,-0.004216194,0.21134034,-0.19753419,-0.33878174,77.0
1230,1.9102464,-1.2742696,-0.004216194,0.43117675,-0.12000733,-0.0053100586,77.0
1231,-0.11856818,-0.99403715,0.8780968,0.43117675,-0.12000733,-0.0053100586,77.0
1232,-0.11856818,-0.99403715,0.8780968,0.68924564,-0.15930176,0.3451538,77.0
1233,-2.2660336,-0.5121975,1.2680657,0.68924564,-0.15930176,0.3451538,77.0
1234,-2.2660336,-0.5121975,1.2680657,1.0662597,-0.21558838,0.6446411,77.0
1235,-2.8951147,0.0081009865,0.9018426,1.0662597,-0.21558838,0.6446411,77.0
1236,-2.8951147,0.0081009865,0.9018426,1.5091187,-0.20709229,0.81987303,77.0
1237,-1.9498321,0.35535765,0.14602232,1.5091187,-0.20709229,0.81987303,77.0
1238,-1.9498321,0.35535765,0.14602232,1.9466676,-0.081774905,0.89208984,77.0
1239,-0.6193383,0.50605106,-0.6009555,1.9466676,-0.081774905,0.89208984,77.0
1240,-0.6193383,0.50605106,-0.6009555,2.270581,0.06903076,0.89846194,77.0
1241,0.11876273,0.5907297,-1.0859647,2.270581,0.06903076,0.89846194,77.0
1242,0.11876273,0.5907297,-1.0859647,2.345984,0.21134034,0.90695804,77.0
1243,0.03238809,0.7728157,-1.1413791,2.345984,0.21134034,0.90695804,77.0
1244,0.03238809,0.7728157,-1.1413791,2.1473877,0.3079834,0.9876709,77.0
1245,-0.47410178,1.0870638,-0.8262749,2.1473877,0.3079834,0.9876709,77.0
1246,-0.47410178,1.0870638,-0.8262749,1.8542725,0.3706421,1.1660889,77.0
1247,-0.9018035,1.4417458,-0.4186859,1.8542725,0.3706421,1.1660889,77.0
1248,-0.9018035,1.4417458,-0.4186859,1.5537232,0.44710693,1.3986695,77.0
1249,-1.0857617,1.7265291,-0.15279531,1.5537232,0.44710693,1.3986695,77.0
1250,-1.0857617,1.7265291,-0.15279531,1.2542359,0.4630371,1.6333741,77.0
1251,-1.0461972,1.8310769,-0.12887669,1.2542359,0.4630371,1.6333741,77.0
1252,-1.0461972,1.8310769,-0.12887669,0.996167,0.45029297,1.8617066,77.0
1253,-0.8319163,1.7265804,-0.3396492,0.996167,0.45029297,1.8617066,77.0
1254,-0.8319163,1.7265804,-0.3396492,0.8336792,0.45878908,2.0592408,77.0
1255,-0.55346024,1.5727072,-0.6555574,0.8336792,0.45878908,2.0592408,77.0
1256,-0.55346024,1.5727072,-0.6555574,0.75296634,0.3993164,2.1909301,77.0
1257,-0.2560861,1.4937491,-0.91789055,0.75296634,0.3993164,2.1909301,77.0
1258,-0.2560861,1.4937491,-0.91789055,0.7784546,0.4088745,2.2365968,77.0
1259,-0.0036115646,1.4914715,-0.9900255,0.7784546,0.4088745,2.2365968,77.0
1260,-0.0036115646,1.4914715,-0.9900255,0.8793457,0.3536499,2.1877441,77.0
1261,0.13158341,1.5248178,-0.90040684,0.8793457,0.3536499,2.1877441,77.0
1262,0.13158341,1.5248178,-0.90040684,0.9281983,0.362146,2.080481,77.0
1263,0.15429017,1.5814632,-0.7591438,0.9281983,0.362146,2.080481,77.0
1264,0.15429017,1.5814632,-0.7591438,0.8612915,0.36745605,1.9201173,77.0
1265,0.09347609,1.6038059,-0.58818674,0.8612915,0.36745605,1.9201173,77.0
1266,0.09347609,1.6038059,-0.58818674,0.6956177,0.3430298,1.725769,77.0
1267,0.08403379,1.5666142,-0.3943653,0.6956177,0.3430298,1.725769,77.0
1268,0.08403379,1.5666142,-0.3943653,0.44073486,0.31010744,1.4995606,77.0
1269,0.22022998,1.4887527,-0.20172262,0.44073486,0.31010744,1.4995606,77.0
1270,0.22022998,1.4887527,-0.20172262,0.13806152,0.29311523,1.26167,77.0
1271,0.39040518,1.3754627,-0.06231785,0.13806152,0.29311523,1.26167,77.0
1272,0.39040518,1.3754627,-0.06231785,-0.14868164,0.270813,1.0216553,77.0
1273,0.5112011,1.282438,-0.026978493,-0.14868164,0.270813,1.0216553,77.0
1274,0.5112011,1.282438,-0.026978493,-0.43754885,0.23151855,0.7657105,77.0
1275,0.66825044,1.1983016,-0.06352615,-0.43754885,0.23151855,0.7657105,77.0
1276,0.66825044,1.1983016,-0.06352615,-0.71367186,0.16461182,0.4609131,77.0
1277,0.8984187,0.98743767,-0.037857056,-0.71367186,0.16461182,0.4609131,77.0
1278,0.8984187,0.98743767,-0.037857056,-0.86978763,0.07434082,0.0541626,77.0
1279,0.9787203,0.591769,0.14499474,-0.86978763,0.07434082,0.0541626,77.0
1280,0.9787203,0.591769,0.14499474,-0.90695804,-0.028674318,-0.41949463,77.0
1281,0.71804714,0.10545862,0.45259237,-0.90695804,-0.028674318,-0.41949463,77.0
1282,0.71804714,0.10545862,0.45259237,-0.92501223,-0.18054199,-0.8772217,77.0
1283,0.2125603,-0.32893878,0.81732273,-0.92501223,-0.18054199,-0.8772217,77.0
1284,0.2125603,-0.32893878,0.81732273,-0.89846194,-0.32497558,-1.2457398,77.0
1285,-0.44787169,-0.70105386,1.244422,-0.89846194,-0.32497558,-1.2457398,77.0
1286,-0.44787169,-0.70105386,1.244422,-0.6669434,-0.4704712,-1.4900025,77.0
1287,-1.0287808,-1.0076327,1.6971736,-0.6669434,-0.4704712,-1.4900025,77.0
1288,-1.0287808,-1.0076327,1.6971736,-0.21558838,-0.6138428,-1.6482422,77.0
1289,-1.1679953,-1.192239,2.0268917,-0.21558838,-0.6138428,-1.6482422,77.0
1290,-1.1679953,-1.192239,2.0268917,0.31116945,-0.727478,-1.6546143,77.0
1291,-0.808969,-1.1615182,2.0429125,0.31116945,-0.727478,-1.6546143,77.0
1292,-0.808969,-1.1615182,2.0429125,0.6839356,-0.77526855,-1.621692,77.0
1293,-0.23245353,-0.93276685,1.5825112,0.6839356,-0.77526855,-1.621692,77.0
1294,-0.23245353,-0.93276685,1.5825112,0.82836914,-0.6425171,-1.545227,77.0
1295,0.04416412,-0.6307594,0.8136287,0.82836914,-0.6425171,-1.545227,77.0
1296,0.04416412,-0.6307594,0.8136287,0.73703617,-0.60109866,-1.4443359,77.0
1297,-0.15224195,-0.3517511,0.08593702,0.73703617,-0.60109866,-1.4443359,77.0
1298,-0.15224195,-0.3517511,0.08593702,0.36533204,-0.33984375,-1.3137085,77.0
1299,-0.71756995,-0.23191357,-0.20676303,0.36533204,-0.33984375,-1.3137085,77.0
1300,-0.71756995,-0.23191357,-0.20676303,-0.078588866,-0.22727051,-1.175647,77.0
1301,-1.3064901,-0.3612877,-0.047636986,-0.078588866,-0.22727051,-1.175647,77.0
1302,-1.3064901,-0.3612877,-0.047636986,-0.48215333,-0.14018555,-1.0991821,77.0
1303,-1.4439957,-0.6280805,0.16483235,-0.48215333,-0.14018555,-1.0991821,77.0
1304,-1.4439957,-0.6280805,0.16483235,-0.7827026,-0.04991455,-1.0418335,77.0
1305,-1.1649134,-0.8972764,0.1320858,-0.7827026,-0.04991455,-1.0418335,77.0
1306,-1.1649134,-0.8972764,0.1320858,-0.9600586,0.009558106,-1.0620117,77.0
1307,-0.7287569,-1.1169057,-0.095808506,-0.9600586,0.009558106,-1.0620117,77.0
1308,-0.7287569,-1.1169057,-0.095808506,-1.0875,0.012744141,-1.171399,77.0
1309,-0.277964,-1.3373722,-0.27260637,-1.0875,0.012744141,-1.171399,77.0
1310,-0.277964,-1.3373722,-0.27260637,-1.1034302,0.007434082,-1.3115845,77.0
1311,0.13839543,-1.5480227,-0.22448158,-1.1034302,0.007434082,-1.3115845,77.0
1312,0.13839543,-1.5480227,-0.22448158,-0.9897949,-0.028674318,-1.4241577,77.0
1313,0.42549908,-1.6920195,-0.008808851,-0.9897949,-0.028674318,-1.4241577,77.0
1314,0.42549908,-1.6920195,-0.008808851,-0.815625,-0.06796875,-1.5197388,77.0
1315,0.55590224,-1.7491846,0.19139051,-0.815625,-0.06796875,-1.5197388,77.0
1316,0.55590224,-1.7491846,0.19139051,-0.59047854,-0.10513916,-1.5558472,77.0
1317,0.59967786,-1.748713,0.29180884,-0.59047854,-0.10513916,-1.5558472,77.0
1318,0.59967786,-1.748713,0.29180884,-0.37382814,-0.14761963,-1.5239868,77.0
1319,0.6191466,-1.7370563,0.36239004,-0.37382814,-0.14761963,-1.5239868,77.0
1320,0.6191466,-1.7370563,0.36239004,-0.16567384,-0.16992188,-1.3869873,77.0
1321,0.632329,-1.6565275,0.41577864,-0.16567384,-0.16992188,-1.3869873,77.0
1322,0.632329,-1.6565275,0.41577864,0.0021240234,-0.18266602,-1.178833,77.0
1323,0.69189835,-1.4524436,0.36981773,0.0021240234,-0.18266602,-1.178833,77.0
1324,0.69189835,-1.4524436,0.36981773,0.12850343,-0.18054199,-0.9483765,77.0
1325,0.89114076,-1.1672773,0.14462137,0.12850343,-0.18054199,-0.9483765,77.0
1326,0.89114076,-1.1672773,0.14462137,0.19434814,-0.15611573,-0.7349121,77.0
1327,0.89114076,-1.1672773,0.14462137,0.19434814,-0.15611573,-0.7349121,78.0
1328,1.24448,-0.9474206,-0.22782087,0.19434814,-0.15611573,-0.7349121,78.0
1329,1.24448,-0.9474206,-0.22782087,0.24851075,-0.10407715,-0.5501221,78.0
1330,1.601712,-0.86361265,-0.57816744,0.24851075,-0.10407715,-0.5501221,78.0
1331,1.601712,-0.86361265,-0.57816744,0.26125488,-0.06265869,-0.36851808,78.0
1332,1.8028418,-0.8564663,-0.76159406,0.26125488,-0.06265869,-0.36851808,78.0
1333,1.8028418,-0.8564663,-0.76159406,0.20709229,-0.059472658,-0.19116211,78.0
1334,2.0425298,-0.818254,-0.82145786,0.20709229,-0.059472658,-0.19116211,78.0
1335,2.0425298,-0.818254,-0.82145786,0.1539917,-0.09133301,-0.053100586,78.0
1336,2.1061308,-0.84394646,-0.69115067,0.1539917,-0.09133301,-0.053100586,78.0
1337,2.1061308,-0.84394646,-0.69115067,0.32072756,0.0053100586,0.093457036,78.0
1338,0.8950243,-0.8595934,-0.22809124,0.32072756,0.0053100586,0.093457036,78.0
1339,0.8950243,-0.8595934,-0.22809124,0.634021,-0.0010620117,0.36851808,78.0
1340,-1.1747277,-0.5343666,0.23409176,0.634021,-0.0010620117,0.36851808,78.0
1341,-1.1747277,-0.5343666,0.23409176,0.94412845,-0.14761963,0.6510132,78.0
1342,-2.0322871,0.046652317,0.25878215,0.94412845,-0.14761963,0.6510132,78.0
1343,-2.0322871,0.046652317,0.25878215,1.356189,-0.23045655,0.8591675,78.0
1344,-1.1979731,0.46731472,-0.04152155,1.356189,-0.23045655,0.8591675,78.0
1345,-1.1979731,0.46731472,-0.04152155,1.8723267,-0.19541016,0.905896,78.0
1346,0.053120613,0.5466299,-0.27197456,1.8723267,-0.19541016,0.905896,78.0
1347,0.053120613,0.5466299,-0.27197456,2.3799684,-0.093457036,0.8687256,78.0
1348,0.5772377,0.47457218,-0.3026626,2.3799684,-0.093457036,0.8687256,78.0
1349,0.5772377,0.47457218,-0.3026626,2.5626342,0.032922365,0.85704345,78.0
1350,0.2406354,0.53052425,-0.22021842,2.5626342,0.032922365,0.85704345,78.0
1351,0.2406354,0.53052425,-0.22021842,2.4681153,0.10301514,0.9197022,78.0
1352,-0.3575039,0.86893845,-0.11045194,2.4681153,0.10301514,0.9197022,78.0
1353,-0.3575039,0.86893845,-0.11045194,2.179248,0.1901001,1.0981201,78.0
1354,-0.7922164,1.3842502,0.028862476,2.179248,0.1901001,1.0981201,78.0
1355,-0.7922164,1.3842502,0.028862476,1.7884277,0.31010744,1.3147706,78.0
1356,-1.0822717,1.811038,0.1732974,1.7884277,0.31010744,1.3147706,78.0
1357,-1.0822717,1.811038,0.1732974,1.3731812,0.41737062,1.6036377,78.0
1358,-1.2720551,1.9556665,0.25661898,1.3731812,0.41737062,1.6036377,78.0
1359,-1.2720551,1.9556665,0.25661898,0.96430665,0.41843262,1.8659546,78.0
1360,-1.1880299,1.8141427,0.18312716,0.96430665,0.41843262,1.8659546,78.0
1361,-1.1880299,1.8141427,0.18312716,0.7126099,0.46516114,2.1303957,78.0
1362,-0.89906895,1.708138,0.032646894,0.7126099,0.46516114,2.1303957,78.0
1363,-0.89906895,1.708138,0.032646894,0.6287109,0.49277344,2.2408447,78.0
1364,-0.396074,1.6573429,-0.37033033,0.6287109,0.49277344,2.2408447,78.0
1365,-0.396074,1.6573429,-0.37033033,0.49489745,0.5501221,2.440503,78.0
1366,-0.17334114,1.7003982,-0.52799034,0.49489745,0.5501221,2.440503,78.0
1367,-0.17334114,1.7003982,-0.52799034,0.50870365,0.5703003,2.440503,78.0
1368,-0.12425642,1.724369,-0.81797314,0.50870365,0.5703003,2.440503,78.0
1369,-0.12425642,1.724369,-0.81797314,0.6637573,0.5957886,2.2546508,78.0
1370,-0.13966392,1.678299,-0.7970176,0.6637573,0.5957886,2.2546508,78.0
1371,-0.13966392,1.678299,-0.7970176,0.69986576,0.59897465,2.1261475,78.0
1372,-0.46649188,1.5831786,-0.6805463,0.69986576,0.59897465,2.1261475,78.0
1373,-0.46649188,1.5831786,-0.6805463,0.67650145,0.61702883,1.6248779,78.0
1374,-0.43182388,1.41177,-0.56732535,0.67650145,0.61702883,1.6248779,78.0
1375,-0.43182388,1.41177,-0.56732535,0.6446411,0.60109866,1.4124756,78.0
1376,-0.61810315,1.1093843,-0.28014183,0.6446411,0.60109866,1.4124756,78.0
1377,-0.61810315,1.1093843,-0.28014183,0.39082032,0.49277344,0.81987303,78.0
1378,-0.47594005,0.9755202,-0.2779584,0.39082032,0.49277344,0.81987303,78.0
1379,-0.47594005,0.9755202,-0.2779584,0.26868898,0.45666504,0.6244629,78.0
1380,-0.030581117,0.99112177,-0.5292883,0.26868898,0.45666504,0.6244629,78.0
1381,-0.030581117,0.99112177,-0.5292883,-0.08602295,0.36745605,-0.026550293,78.0
1382,0.2362529,0.83651316,-0.62811804,-0.08602295,0.36745605,-0.026550293,78.0
1383,0.2362529,0.83651316,-0.62811804,-0.2166504,0.33878174,-0.26762697,78.0
1384,1.1205087,0.49412507,-0.97175694,-0.2166504,0.33878174,-0.26762697,78.0
1385,1.1205087,0.49412507,-0.97175694,-0.58304447,0.21134034,-1.0152832,78.0
1386,1.1085286,0.13317847,-0.85034275,-0.58304447,0.21134034,-1.0152832,78.0
1387,1.1085286,0.13317847,-0.85034275,-0.6605713,0.14230958,-1.2096313,78.0
1388,0.9928531,-0.6210817,-0.5022836,-0.6605713,0.14230958,-1.2096313,78.0
1389,0.9928531,-0.6210817,-0.5022836,-0.8421753,-0.13912354,-1.6567383,78.0
1390,0.6302322,-0.88861346,-0.18704414,-0.8421753,-0.13912354,-1.6567383,78.0
1391,0.6302322,-0.88861346,-0.18704414,-0.78376466,-0.23895264,-1.7278931,78.0
1392,-0.34337282,-1.3615623,0.6981187,-0.78376466,-0.23895264,-1.7278931,78.0
1393,-0.34337282,-1.3615623,0.6981187,-0.22833252,-0.54906005,-1.713025,78.0
1394,-0.67832375,-1.4114177,0.98387337,-0.22833252,-0.54906005,-1.713025,78.0
1395,-0.67832375,-1.4114177,0.98387337,0.07965088,-0.63826907,-1.6684204,78.0
1396,-1.1477737,-1.3323935,1.7412734,0.07965088,-0.63826907,-1.6684204,78.0
1397,-1.1477737,-1.3323935,1.7412734,0.9515625,-0.80606693,-1.4443359,78.0
1398,-0.91691285,-1.1972136,1.6201916,0.9515625,-0.80606693,-1.4443359,78.0
1399,-0.91691285,-1.1972136,1.6201916,1.1299804,-0.83049315,-1.3530029,78.0
1400,-0.06774661,-0.67426264,1.0276718,1.1299804,-0.83049315,-1.3530029,78.0
1401,-0.06774661,-0.67426264,1.0276718,1.1352905,-0.81031495,-1.1363525,78.0
1402,0.15459177,-0.5916805,0.63550425,1.1352905,-0.81031495,-1.1363525,78.0
1403,0.15459177,-0.5916805,0.63550425,1.0067872,-0.7508423,-1.0875,78.0
1404,0.22263584,-0.49717247,0.1363697,1.0067872,-0.7508423,-1.0875,78.0
1405,0.22263584,-0.49717247,0.1363697,0.44604492,-0.6552612,-1.0524536,78.0
1406,0.008565205,-0.6440637,0.3524797,0.44604492,-0.6552612,-1.0524536,78.0
1407,0.008565205,-0.6440637,0.3524797,0.26868898,-0.6064087,-1.0535157,78.0
1408,-0.6607016,-0.99554896,1.3836684,0.26868898,-0.6064087,-1.0535157,78.0
1409,-0.6607016,-0.99554896,1.3836684,-0.2623169,-0.48746338,-0.99935305,78.0
1410,-0.7164763,-1.0052893,1.4791515,-0.2623169,-0.48746338,-0.99935305,78.0
1411,-0.7164763,-1.0052893,1.4791515,-0.39082032,-0.4609131,-0.9834229,78.0
1412,-0.78043205,-1.2429156,1.5581381,-0.39082032,-0.4609131,-0.9834229,78.0
1413,-0.78043205,-1.2429156,1.5581381,-0.3706421,-0.4343628,-0.9515625,78.0
1414,-0.60238516,-1.2859828,1.2873553,-0.3706421,-0.4343628,-0.9515625,78.0
1415,-0.60238516,-1.2859828,1.2873553,-0.26656494,-0.42268068,-0.9420044,78.0
1416,-0.32366836,-1.5550194,1.103212,-0.26656494,-0.42268068,-0.9420044,78.0
1417,-0.32366836,-1.5550194,1.103212,0.16142578,-0.44498292,-0.9281983,78.0
1418,-0.17653722,-1.4509492,1.0119275,0.16142578,-0.44498292,-0.9281983,78.0
1419,-0.17653722,-1.4509492,1.0119275,0.26550293,-0.4056885,-0.93563235,78.0
1420,-0.17653722,-1.4509492,1.0119275,0.452417,-0.3695801,-0.9122681,78.0
1421,0.270135,-1.2887502,1.1484458,0.452417,-0.3695801,-0.9122681,78.0
1422,0.4091378,-1.1369448,1.0570623,0.452417,-0.3695801,-0.9122681,78.0
1423,0.4091378,-1.1369448,1.0570623,0.4598511,-0.3175415,-0.87615967,78.0
1424,0.66649485,-0.91709995,0.94817674,0.4598511,-0.3175415,-0.87615967,78.0
1425,0.66649485,-0.91709995,0.94817674,0.40356445,-0.21452637,-0.7126099,78.0
1426,0.5589405,-0.78606033,0.73068494,0.40356445,-0.21452637,-0.7126099,78.0
1427,0.5589405,-0.78606033,0.73068494,0.32178956,-0.12319336,-0.630835,78.0
1428,0.5589405,-0.78606033,0.73068494,0.32178956,-0.12319336,-0.630835,79.0
1429,0.46231353,-0.53070354,0.20271201,0.32178956,-0.12319336,-0.630835,79.0
1430,0.46231353,-0.53070354,0.20271201,0.13062744,0.0021240234,-0.41843262,79.0
1431,0.44895238,-0.46408892,-0.044593096,0.13062744,0.0021240234,-0.41843262,79.0
1432,0.44895238,-0.46408892,-0.044593096,0.08920898,0.046728518,-0.35789797,79.0
1433,0.6703924,-0.45128822,-0.5614069,0.08920898,0.046728518,-0.35789797,79.0
1434,0.6703924,-0.45128822,-0.5614069,-0.014868164,0.095581055,-0.2623169,79.0
1435,1.012974,-0.44484425,-1.0993452,-0.014868164,0.095581055,-0.2623169,79.0
1436,1.012974,-0.44484425,-1.0993452,-0.1359375,0.11151123,-0.18054199,79.0
1437,1.3849887,-0.40375137,-1.5408899,-0.1359375,0.11151123,-0.18054199,79.0
1438,1.3849887,-0.40375137,-1.5408899,-0.31223145,0.09239502,-0.13275146,79.0
1439,1.7916701,-0.38154602,-1.7507906,-0.31223145,0.09239502,-0.13275146,79.0
1440,1.7916701,-0.38154602,-1.7507906,-0.46622315,0.012744141,-0.14549561,79.0
1441,2.5202622,-0.68283653,-1.6072243,-0.46622315,0.012744141,-0.14549561,79.0
1442,2.5202622,-0.68283653,-1.6072243,-0.3090454,0.046728518,-0.26125488,79.0
1443,2.030187,-0.8472457,-1.0635383,-0.3090454,0.046728518,-0.26125488,79.0
1444,2.030187,-0.8472457,-1.0635383,0.015930176,-0.021240234,-0.27612305,79.0
1445,0.41348052,-1.4290781,-0.0211308,0.015930176,-0.021240234,-0.27612305,79.0
1446,0.41348052,-1.4290781,-0.0211308,0.8336792,-0.1263794,-0.23258057,79.0
1447,-1.386757,-1.6158209,0.7069845,0.8336792,-0.1263794,-0.23258057,79.0
1448,-1.386757,-1.6158209,0.7069845,1.7788696,-0.3419678,-0.16992188,79.0
1449,-1.5384096,-1.2374196,0.517321,1.7788696,-0.3419678,-0.16992188,79.0
1450,-1.5384096,-1.2374196,0.517321,2.611487,-0.34940186,-0.07434082,79.0
1451,-0.51794696,-0.66743803,-0.16395092,2.611487,-0.34940186,-0.07434082,79.0
1452,-0.51794696,-0.66743803,-0.16395092,3.2667482,-0.28355715,0.04460449,79.0
1453,0.24897242,-0.14678001,-0.7176597,3.2667482,-0.28355715,0.04460449,79.0
1454,0.24897242,-0.14678001,-0.7176597,3.5917237,-0.20921631,0.20921631,79.0
1455,0.23714185,0.4199419,-0.8062322,3.5917237,-0.20921631,0.20921631,79.0
1456,0.23714185,0.4199419,-0.8062322,3.4993286,-0.10513916,0.48321533,79.0
1457,-0.25280368,1.0926433,-0.43209505,3.4993286,-0.10513916,0.48321533,79.0
1458,-0.25280368,1.0926433,-0.43209505,3.075586,0.009558106,0.81243896,79.0
1459,-0.77078545,1.6641779,0.12663841,3.075586,0.009558106,0.81243896,79.0
1460,-0.77078545,1.6641779,0.12663841,2.541394,0.15823975,1.1374146,79.0
1461,-1.4621973,2.048005,0.7621505,2.541394,0.15823975,1.1374146,79.0
1462,-1.4621973,2.048005,0.7621505,1.7002808,0.23364258,1.5696534,79.0
1463,-1.446894,1.9141607,0.73509884,1.7002808,0.23364258,1.5696534,79.0
1464,-1.446894,1.9141607,0.73509884,1.4719483,0.22089843,1.6822265,79.0
1465,-1.4559772,1.7000542,0.55710983,1.4719483,0.22089843,1.6822265,79.0
1466,-1.4559772,1.7000542,0.55710983,1.1629028,0.2527588,1.8532104,79.0
1467,-1.2632924,1.4702849,0.19491887,1.1629028,0.2527588,1.8532104,79.0
1468,-1.2632924,1.4702849,0.19491887,1.0067872,0.24957275,1.9349854,79.0
1469,-1.0326066,1.3169017,-0.10793209,1.0067872,0.24957275,1.9349854,79.0
1470,-1.0326066,1.3169017,-0.10793209,1.0205933,0.24213867,1.9307374,79.0
1471,-0.7745106,1.2583432,-0.27448046,1.0205933,0.24213867,1.9307374,79.0
1472,-0.7745106,1.2583432,-0.27448046,1.1129884,0.23789063,1.8595825,79.0
1473,-0.48771155,1.3123507,-0.3563764,1.1129884,0.23789063,1.8595825,79.0
1474,-0.48771155,1.3123507,-0.3563764,1.1926392,0.2442627,1.7353271,79.0
1475,-0.23730063,1.4422269,-0.41637564,1.1926392,0.2442627,1.7353271,79.0
1476,-0.23730063,1.4422269,-0.41637564,1.1629028,0.270813,1.5813354,79.0
1477,-0.12555826,1.5857153,-0.42996335,1.1629028,0.270813,1.5813354,79.0
1478,-0.12555826,1.5857153,-0.42996335,0.9632446,0.2814331,1.4209718,79.0
1479,-0.027607262,1.6589653,-0.37955427,0.9632446,0.2814331,1.4209718,79.0
1480,-0.027607262,1.6589653,-0.37955427,0.6446411,0.27293703,1.2446778,79.0
1481,0.29888588,1.6408074,-0.30289888,0.6446411,0.27293703,1.2446778,79.0
1482,0.29888588,1.6408074,-0.30289888,0.2548828,0.2814331,1.0917481,79.0
1483,0.73349345,1.5416254,-0.26565886,0.2548828,0.2814331,1.0917481,79.0
1484,0.73349345,1.5416254,-0.26565886,-0.16992188,0.28780517,0.95581055,79.0
1485,1.017178,1.3705806,-0.29569364,-0.16992188,0.28780517,0.95581055,79.0
1486,1.017178,1.3705806,-0.29569364,-0.55543214,0.26550293,0.8379273,79.0
1487,1.2943578,1.0861617,-0.4252758,-0.55543214,0.26550293,0.8379273,79.0
1488,1.2943578,1.0861617,-0.4252758,-0.7986328,0.16992188,0.6605713,79.0
1489,1.7730472,0.7221277,-0.5911362,-0.7986328,0.16992188,0.6605713,79.0
1490,1.7730472,0.7221277,-0.5911362,-0.87403566,0.07752686,0.43754885,79.0
1491,2.0421073,0.31316358,-0.56073856,-0.87403566,0.07752686,0.43754885,79.0
1492,2.0421073,0.31316358,-0.56073856,-0.80181885,-0.058410645,0.19116211,79.0
1493,1.6405706,-0.024029672,-0.16432571,-0.80181885,-0.058410645,0.19116211,79.0
1494,1.6405706,-0.024029672,-0.16432571,-0.6818115,-0.2548828,-0.0180542,79.0
1495,0.5453179,-0.16502452,0.6055999,-0.6818115,-0.2548828,-0.0180542,79.0
1496,0.5453179,-0.16502452,0.6055999,-0.59047854,-0.48746338,-0.07540283,79.0
1497,-0.8749639,-0.19033265,1.5971754,-0.59047854,-0.48746338,-0.07540283,79.0
1498,-0.8749639,-0.19033265,1.5971754,-0.29205322,-0.6839356,-0.045666505,79.0
1499,-1.8643632,-0.19235396,2.4300108,-0.29205322,-0.6839356,-0.045666505,79.0
1500,-1.8643632,-0.19235396,2.4300108,0.18160401,-0.80181885,-0.052038576,79.0
1501,-2.1025379,-0.15608048,2.7542748,0.18160401,-0.80181885,-0.052038576,79.0
1502,-2.1025379,-0.15608048,2.7542748,0.6669434,-0.903772,-0.04141846,79.0
1503,-1.7773429,-0.048069954,2.5423603,0.6669434,-0.903772,-0.04141846,79.0
1504,-1.7773429,-0.048069954,2.5423603,1.0216553,-1.0089111,-0.038232423,79.0
1505,-1.1871331,0.13595808,1.9504533,1.0216553,-1.0089111,-0.038232423,79.0
1506,-1.1871331,0.13595808,1.9504533,1.1650269,-0.87191164,-0.1274414,79.0
1507,-0.78500926,0.40083194,1.2644031,1.1650269,-0.87191164,-0.1274414,79.0
1508,-0.78500926,0.40083194,1.2644031,0.95368654,-0.6637573,-0.17841797,79.0
1509,-0.9516524,0.6483633,0.79882723,0.95368654,-0.6637573,-0.17841797,79.0
1510,-0.9516524,0.6483633,0.79882723,0.51826173,-0.57561034,-0.27506104,79.0
1511,-1.3900206,0.7893205,0.6221551,0.51826173,-0.57561034,-0.27506104,79.0
1512,-1.3900206,0.7893205,0.6221551,-0.087084964,-0.4895874,-0.40037844,79.0
1513,-1.6022265,0.619872,0.6324042,-0.087084964,-0.4895874,-0.40037844,79.0
1514,-1.6022265,0.619872,0.6324042,-0.544812,-0.42161867,-0.5734863,79.0
1515,-1.4727846,0.10266027,0.6910064,-0.544812,-0.42161867,-0.5734863,79.0
1516,-1.4727846,0.10266027,0.6910064,-0.7423462,-0.3727661,-0.79332274,79.0
1517,-1.103179,-0.47612375,0.6447607,-0.7423462,-0.3727661,-0.79332274,79.0
1518,-1.103179,-0.47612375,0.6447607,-0.7497803,-0.35152587,-1.0322754,79.0
1519,-0.63127375,-0.9334259,0.5109135,-0.7497803,-0.35152587,-1.0322754,79.0
1520,-0.63127375,-0.9334259,0.5109135,-0.65844727,-0.34727785,-1.2977784,79.0
1521,-0.14663267,-1.175708,0.37141395,-0.65844727,-0.34727785,-1.2977784,79.0
1522,-0.14663267,-1.175708,0.37141395,-0.61702883,-0.39188233,-1.5431031,79.0
1523,0.39652443,-1.5141504,0.42006814,-0.61702883,-0.39188233,-1.5431031,79.0
1524,0.39652443,-1.5141504,0.42006814,-0.4056885,-0.31116945,-1.7820557,79.0
1525,0.8909013,-1.8374922,0.6682079,-0.4056885,-0.31116945,-1.7820557,79.0
1526,0.8909013,-1.8374922,0.6682079,-0.1274414,-0.3164795,-1.9806519,79.0
1527,1.211891,-1.7924669,0.7458577,-0.1274414,-0.3164795,-1.9806519,79.0
1528,1.211891,-1.7924669,0.7458577,-0.26656494,-0.33984375,-2.066675,79.0
1529,1.4454771,-1.673976,0.5342593,-0.26656494,-0.33984375,-2.066675,79.0
1530,1.4454771,-1.673976,0.5342593,-0.26550293,-0.36533204,-2.1176515,79.0
1531,1.5761571,-1.6961386,0.2568264,-0.26550293,-0.36533204,-2.1176515,79.0
1532,1.5761571,-1.6961386,0.2568264,-0.22302246,-0.3345337,-2.0443726,79.0
1533,1.5904912,-1.8145771,0.13400126,-0.22302246,-0.3345337,-2.0443726,79.0
1534,1.5904912,-1.8145771,0.13400126,-0.16248779,-0.30479738,-1.906311,79.0
1535,1.6179862,-1.8941545,0.009581327,-0.16248779,-0.30479738,-1.906311,79.0
1536,1.6179862,-1.8941545,0.009581327,-0.09133301,-0.24638672,-1.720459,79.0
1537,1.8350873,-1.899467,-0.3166759,-0.09133301,-0.24638672,-1.720459,79.0
1538,1.8350873,-1.899467,-0.3166759,-0.0637207,-0.19222413,-1.4984986,79.0
1539,2.2453282,-1.8645811,-0.80816257,-0.0637207,-0.19222413,-1.4984986,79.0
1540,2.2453282,-1.8645811,-0.80816257,-0.035046387,-0.124255374,-1.2436157,79.0
1541,2.6496072,-1.8303976,-1.195932,-0.035046387,-0.124255374,-1.2436157,79.0
1542,2.6496072,-1.8303976,-1.195932,-0.019116212,-0.08920898,-0.9866089,79.0
1543,2.8441854,-1.7457633,-1.3052686,-0.019116212,-0.08920898,-0.9866089,79.0
1544,2.8441854,-1.7457633,-1.3052686,-0.053100586,-0.060534667,-0.72854006,79.0
1545,2.8246403,-1.593205,-1.1234996,-0.053100586,-0.060534667,-0.72854006,79.0
1546,2.8246403,-1.593205,-1.1234996,-0.050976563,-0.04991455,-0.5033936,79.0
1547,2.2911086,-1.4868197,-0.62886566,-0.050976563,-0.04991455,-0.5033936,79.0
1548,2.2911086,-1.4868197,-0.62886566,0.16567384,0.012744141,-0.26444092,79.0
1549,2.2911086,-1.4868197,-0.62886566,0.16567384,0.012744141,-0.26444092,79.0
1550,0.54759645,-1.3547878,0.1387043,0.16567384,0.012744141,-0.26444092,79.0
1551,0.54759645,-1.3547878,0.1387043,0.53950197,-0.026550293,0.0361084,79.0
1552,-1.8781826,-0.95742655,0.75865626,0.53950197,-0.026550293,0.0361084,79.0
1553,-1.8781826,-0.95742655,0.75865626,0.9388184,-0.1720459,0.32922363,79.0
1554,-3.1681345,-0.33231068,0.8289709,0.9388184,-0.1720459,0.32922363,79.0
1555,-3.1681345,-0.33231068,0.8289709,1.4315919,-0.2548828,0.5511841,79.0
1556,-2.6257553,0.21579218,0.4836601,1.4315919,-0.2548828,0.5511841,79.0
1557,-2.6257553,0.21579218,0.4836601,1.9827759,-0.21452637,0.630835,79.0
1558,-1.269696,0.53116655,0.08602476,1.9827759,-0.21452637,0.630835,79.0
1559,-1.269696,0.53116655,0.08602476,2.4691772,-0.098767094,0.62764895,79.0
1560,-0.3395239,0.7091985,-0.22157335,2.4691772,-0.098767094,0.62764895,79.0
1561,-0.3395239,0.7091985,-0.22157335,2.6444092,0.023364259,0.62127686,79.0
1562,-0.21025443,0.9233527,-0.3675419,2.6444092,0.023364259,0.62127686,79.0
1563,-0.21025443,0.9233527,-0.3675419,2.4978516,0.10407715,0.6690674,79.0
1564,-0.5474882,1.2830181,-0.26399207,2.4978516,0.10407715,0.6690674,79.0
1565,-0.5474882,1.2830181,-0.26399207,2.2461548,0.18266602,0.8007569,79.0
1566,-0.94135976,1.7524519,0.008203268,2.2461548,0.18266602,0.8007569,79.0
1567,-0.94135976,1.7524519,0.008203268,1.9254273,0.28355715,0.9897949,79.0
1568,-1.1575067,2.1238732,0.23240495,1.9254273,0.28355715,0.9897949,79.0
1569,-1.1575067,2.1238732,0.23240495,1.5611572,0.41949463,1.174585,79.0
1570,-1.2657393,2.2604141,0.29147816,1.5611572,0.41949463,1.174585,79.0
1571,-1.2657393,2.2604141,0.29147816,1.1384766,0.4088745,1.4220337,79.0
