,accx,accy,accz,gyrox,gyroy,gyroz,heart rate
0,walk,walk,walk,walk,walk,walk,walk
1,-0.6272949,0.42313233,0.72402346,0.0,0.0,0.0,0.0
2,-0.6272949,0.42313233,0.72402346,-0.035046387,-0.038232423,-0.22833252,0.0
3,-0.46852297,0.48896974,0.41144532,-0.035046387,-0.038232423,-0.22833252,0.0
4,-0.46852297,0.48896974,0.41144532,-0.21452637,-0.016992187,-0.17841797,0.0
5,-0.2761001,0.49668115,0.34230325,-0.21452637,-0.016992187,-0.17841797,0.0
6,-0.2761001,0.49668115,0.34230325,-0.3175415,-0.019116212,-0.059472658,0.0
7,-0.22168574,0.23383176,0.37481916,-0.3175415,-0.019116212,-0.059472658,0.0
8,-0.22168574,0.23383176,0.37481916,-0.24320069,-0.02442627,-0.08920898,0.0
9,-0.22168574,0.23383176,0.37481916,-0.24320069,-0.02442627,-0.08920898,93.0
10,-0.23658931,-0.16481447,0.42039979,-0.24320069,-0.02442627,-0.08920898,93.0
11,-0.23658931,-0.16481447,0.42039979,-0.0722168,-0.038232423,-0.16036378,93.0
12,-0.18922263,-0.30309182,0.4310586,-0.0722168,-0.038232423,-0.16036378,93.0
13,-0.18922263,-0.30309182,0.4310586,0.016992187,-0.028674318,-0.107263185,93.0
14,-0.1503405,-0.14771026,0.31010568,0.016992187,-0.028674318,-0.107263185,93.0
15,-0.1503405,-0.14771026,0.31010568,0.057348635,-0.0180542,-0.026550293,93.0
16,-0.1503405,-0.14771026,0.31010568,0.13487549,-0.040356446,0.008496094,93.0
17,-0.15387839,0.06508374,0.16242778,0.13487549,-0.040356446,0.008496094,93.0
18,-0.14467251,0.27024326,0.12961268,0.13487549,-0.040356446,0.008496094,93.0
19,-0.14467251,0.27024326,0.12961268,0.098767094,-0.04141846,0.04460449,93.0
20,-0.15067452,0.39040112,0.1508581,0.098767094,-0.04141846,0.04460449,93.0
21,-0.15067452,0.39040112,0.1508581,0.032922365,-0.028674318,0.053100586,93.0
22,-0.1855421,0.34453523,0.09958053,0.032922365,-0.028674318,0.053100586,93.0
23,-0.1855421,0.34453523,0.09958053,0.009558106,-0.029736329,0.0637207,93.0
24,-0.18848497,0.24299878,0.022413492,0.009558106,-0.029736329,0.0637207,93.0
25,-0.18848497,0.24299878,0.022413492,0.010620117,-0.047790527,0.043542482,93.0
26,-0.11498475,0.12622273,-0.03430313,0.010620117,-0.047790527,0.043542482,93.0
27,-0.11498475,0.12622273,-0.03430313,0.04991455,-0.05628662,0.027612304,93.0
28,-0.05908984,0.10467696,-0.058167577,0.04991455,-0.05628662,0.027612304,93.0
29,-0.05908984,0.10467696,-0.058167577,-0.023364259,-0.02442627,0.026550293,93.0
30,-0.044561923,0.11257458,-0.15149015,-0.023364259,-0.02442627,0.026550293,93.0
31,-0.044561923,0.11257458,-0.15149015,-0.09133301,-0.008496094,-0.0010620117,93.0
32,-0.053947866,0.09986192,-0.26433182,-0.09133301,-0.008496094,-0.0010620117,93.0
33,-0.053947866,0.09986192,-0.26433182,-0.16779785,0.02442627,-0.007434082,93.0
34,-0.053947866,0.09986192,-0.26433182,-0.3791382,0.12850343,0.07540283,93.0
35,-0.12708163,0.109760165,-0.39238584,-0.3791382,0.12850343,0.07540283,93.0
36,-0.14116722,0.022500515,-0.6014697,-0.3791382,0.12850343,0.07540283,93.0
37,-0.14116722,0.022500515,-0.6014697,-0.49489745,0.16779785,0.2166504,93.0
38,-0.12731361,-0.29829597,-0.8886831,-0.49489745,0.16779785,0.2166504,93.0
39,-0.12731361,-0.29829597,-0.8886831,-0.28780517,0.078588866,0.028674318,93.0
40,-0.17929232,-0.570546,-1.0414274,-0.28780517,0.078588866,0.028674318,93.0
41,-0.17929232,-0.570546,-1.0414274,-0.012744141,-0.07646485,-0.05628662,93.0
42,-0.105054975,-0.41280884,-0.89412826,-0.012744141,-0.07646485,-0.05628662,93.0
43,-0.105054975,-0.41280884,-0.89412826,0.0180542,-0.19328614,-0.029736329,93.0
44,-0.0036850572,-0.13123584,-0.6014354,0.0180542,-0.19328614,-0.029736329,93.0
45,-0.0036850572,-0.13123584,-0.6014354,0.13806152,-0.35046387,-0.11469727,93.0
46,0.0080138445,0.022501558,-0.3904135,0.13806152,-0.35046387,-0.11469727,93.0
47,0.0080138445,0.022501558,-0.3904135,0.40356445,-0.540564,-0.090270996,93.0
48,0.1262353,0.023347944,-0.24267751,0.40356445,-0.540564,-0.090270996,93.0
49,0.1262353,0.023347944,-0.24267751,0.5649902,-0.6860596,-0.2081543,93.0
50,0.2977534,0.07083899,-0.044068754,0.5649902,-0.6860596,-0.2081543,93.0
51,0.2977534,0.07083899,-0.044068754,0.47365722,-0.7582764,-0.2548828,93.0
52,0.42351764,0.41381228,0.1692616,0.47365722,-0.7582764,-0.2548828,93.0
53,0.42351764,0.41381228,0.1692616,0.14337158,-0.67331547,-0.2347046,93.0
54,0.41698796,0.5158032,0.30042395,0.14337158,-0.67331547,-0.2347046,93.0
55,0.41698796,0.5158032,0.30042395,0.121069334,-0.7062378,-0.28674316,93.0
56,0.3114956,0.274105,0.39061993,0.121069334,-0.7062378,-0.28674316,93.0
57,0.3114956,0.274105,0.39061993,0.020178223,-0.66269535,-0.3993164,93.0
58,0.32168186,-0.16216135,0.5249593,0.020178223,-0.66269535,-0.3993164,93.0
59,0.32168186,-0.16216135,0.5249593,0.13381349,-0.6531372,-0.29311523,93.0
60,0.32168186,-0.16216135,0.5249593,0.54693604,-0.72216797,-0.20284425,93.0
61,0.3516814,-0.62030524,0.7397917,0.54693604,-0.72216797,-0.20284425,93.0
62,0.31940666,-0.6545206,0.9850707,0.54693604,-0.72216797,-0.20284425,93.0
63,0.31940666,-0.6545206,0.9850707,0.7657105,-0.72960204,-0.121069334,93.0
64,0.30626994,-0.29005933,1.1643627,0.7657105,-0.72960204,-0.121069334,93.0
65,0.30626994,-0.29005933,1.1643627,0.81881106,-0.71367186,-0.009558106,93.0
66,0.31285042,0.10327971,1.2275839,0.81881106,-0.71367186,-0.009558106,93.0
67,0.31285042,0.10327971,1.2275839,0.6775635,-0.6287109,0.07327881,93.0
68,0.2772823,0.27516526,1.1739006,0.6775635,-0.6287109,0.07327881,93.0
69,0.2772823,0.27516526,1.1739006,0.47365722,-0.5076416,0.11682129,93.0
70,0.20207489,0.19802526,0.99206245,0.47365722,-0.5076416,0.11682129,93.0
71,0.20207489,0.19802526,0.99206245,0.34090576,-0.40993652,0.15186767,93.0
72,0.085561275,0.12618145,0.7004249,0.34090576,-0.40993652,0.15186767,93.0
73,0.085561275,0.12618145,0.7004249,0.22302246,-0.32178956,0.16354981,93.0
74,-0.02399483,0.12505406,0.40056205,0.22302246,-0.32178956,0.16354981,93.0
75,-0.02399483,0.12505406,0.40056205,0.11363526,-0.21558838,0.1709839,93.0
76,-0.14236481,0.06464285,0.2213285,0.11363526,-0.21558838,0.1709839,93.0
77,-0.14236481,0.06464285,0.2213285,0.09133301,-0.1274414,0.17629395,93.0
78,-0.14236481,0.06464285,0.2213285,0.03186035,-0.06159668,0.1731079,93.0
79,-0.21939723,-0.010382891,0.058776617,0.03186035,-0.06159668,0.1731079,93.0
80,-0.24207053,0.072601914,-0.11336684,0.03186035,-0.06159668,0.1731079,93.0
81,-0.24207053,0.072601914,-0.11336684,-0.090270996,-0.016992187,0.16779785,93.0
82,-0.24986982,0.23713428,-0.26598644,-0.090270996,-0.016992187,0.16779785,93.0
83,-0.24986982,0.23713428,-0.26598644,-0.2814331,0.012744141,0.1539917,93.0
84,-0.2846859,0.3249613,-0.35457373,-0.2814331,0.012744141,0.1539917,93.0
85,-0.2846859,0.3249613,-0.35457373,-0.52250975,0.043542482,0.1274414,93.0
86,-0.3650168,0.20544022,-0.42323422,-0.52250975,0.043542482,0.1274414,93.0
87,-0.3650168,0.20544022,-0.42323422,-0.6064087,0.047790527,0.107263185,93.0
88,-0.45558763,-0.058389544,-0.52074075,-0.6064087,0.047790527,0.107263185,93.0
89,-0.45558763,-0.058389544,-0.52074075,-0.5564942,0.013806152,0.070092775,93.0
90,-0.5094408,-0.1792556,-0.59734213,-0.5564942,0.013806152,0.070092775,93.0
91,-0.5094408,-0.1792556,-0.59734213,-0.54693604,-0.032922365,0.045666505,93.0
92,-0.5761317,-0.090328336,-0.5984547,-0.54693604,-0.032922365,0.045666505,93.0
93,-0.5761317,-0.090328336,-0.5984547,-0.5586182,-0.07115479,0.026550293,93.0
94,-0.6691329,0.015200734,-0.5789468,-0.5586182,-0.07115479,0.026550293,93.0
95,-0.6691329,0.015200734,-0.5789468,-0.51082766,-0.07752686,0.019116212,93.0
96,-0.68596554,-0.013535261,-0.60845774,-0.51082766,-0.07752686,0.019116212,93.0
97,-0.68596554,-0.013535261,-0.60845774,-0.39613038,-0.11682129,-0.027612304,93.0
98,-0.42866743,-0.10311335,-0.6786852,-0.39613038,-0.11682129,-0.027612304,93.0
99,-0.42866743,-0.10311335,-0.6786852,-0.3451538,-0.20284425,-0.12000733,93.0
100,0.14843571,-0.09457564,-0.6886757,-0.3451538,-0.20284425,-0.12000733,93.0
101,0.14843571,-0.09457564,-0.6886757,-0.5055176,-0.33771974,-0.29099122,93.0
102,0.7584946,0.11790639,-0.5241095,-0.5055176,-0.33771974,-0.29099122,93.0
103,0.7584946,0.11790639,-0.5241095,-1.0503296,-0.4364868,-0.4980835,93.0
104,1.0440394,0.3503188,-0.25116017,-1.0503296,-0.4364868,-0.4980835,93.0
105,1.0440394,0.3503188,-0.25116017,-1.7470093,-0.42268068,-0.68287355,93.0
106,0.881313,0.39994496,-0.05549358,-1.7470093,-0.42268068,-0.68287355,93.0
107,0.881313,0.39994496,-0.05549358,-2.4681153,-0.4163086,-0.8209351,93.0
108,0.5143522,0.38663077,-0.07398471,-2.4681153,-0.4163086,-0.8209351,93.0
109,0.5143522,0.38663077,-0.07398471,-3.240198,-0.39400634,-0.92076415,93.0
110,0.2863719,0.36505413,-0.2995198,-3.240198,-0.39400634,-0.92076415,93.0
111,0.2863719,0.36505413,-0.2995198,-3.979358,-0.39613038,-0.991919,93.0
112,0.29750574,0.21980214,-0.5908365,-3.979358,-0.39613038,-0.991919,93.0
113,0.29750574,0.21980214,-0.5908365,-4.5539064,-0.41206056,-1.0683838,93.0
114,0.41219893,-0.15789855,-0.7361946,-4.5539064,-0.41206056,-1.0683838,93.0
115,0.41219893,-0.15789855,-0.7361946,-4.7631226,-0.42374268,-1.1437867,93.0
116,0.4828231,-0.7887212,-0.6056671,-4.7631226,-0.42374268,-1.1437867,93.0
117,0.4828231,-0.7887212,-0.6056671,-4.425403,-0.38657227,-1.2128174,93.0
118,0.4235876,-1.5169145,-0.244043,-4.425403,-0.38657227,-1.2128174,93.0
119,0.4235876,-1.5169145,-0.244043,-3.6055298,-0.40144044,-1.2223755,93.0
120,0.29595017,-2.164667,0.14142331,-3.6055298,-0.40144044,-1.2223755,93.0
121,0.29595017,-2.164667,0.14142331,-2.3045654,-0.26868898,-1.1469727,93.0
122,0.09853992,-2.5023634,0.47589502,-2.3045654,-0.26868898,-1.1469727,93.0
123,0.09853992,-2.5023634,0.47589502,-0.8294312,-0.5012695,-1.1225464,93.0
124,-0.11818955,-2.068773,0.76794744,-0.8294312,-0.5012695,-1.1225464,93.0
125,-0.11818955,-2.068773,0.76794744,0.0180542,-0.5671143,-0.9876709,93.0
126,-0.23765467,-1.0584853,1.0117091,0.0180542,-0.5671143,-0.9876709,93.0
127,-0.23765467,-1.0584853,1.0117091,0.54375,-0.61702883,-0.87403566,93.0
128,-0.34400558,-0.09373641,1.2043624,0.54375,-0.61702883,-0.87403566,93.0
129,-0.34400558,-0.09373641,1.2043624,0.7349121,-0.6488892,-0.8007569,93.0
130,-0.40208435,0.5341784,1.2523327,0.7349121,-0.6488892,-0.8007569,93.0
131,-0.40208435,0.5341784,1.2523327,0.54906005,-0.59472656,-0.71367186,93.0
132,-0.34631348,0.62141,1.0795883,0.54906005,-0.59472656,-0.71367186,93.0
133,-0.34631348,0.62141,1.0795883,0.27399904,-0.540564,-0.67437744,93.0
134,-0.34631348,0.62141,1.0795883,0.27399904,-0.540564,-0.67437744,92.0
135,-0.20037842,0.28732586,0.8265979,0.27399904,-0.540564,-0.67437744,92.0
136,-0.20037842,0.28732586,0.8265979,0.115759276,-0.46516114,-0.6573853,92.0
137,-0.10261232,-0.0946877,0.64251614,0.115759276,-0.46516114,-0.6573853,92.0
138,-0.10261232,-0.0946877,0.64251614,-0.039294433,-0.39400634,-0.66588134,92.0
139,-0.11171633,-0.27030587,0.493322,-0.039294433,-0.39400634,-0.66588134,92.0
140,-0.11171633,-0.27030587,0.493322,-0.21983643,-0.28780517,-0.67650145,92.0
141,-0.16399467,-0.2442354,0.30212831,-0.21983643,-0.28780517,-0.67650145,92.0
142,-0.16399467,-0.2442354,0.30212831,-0.52038574,-0.16885987,-0.6924316,92.0
143,-0.20874703,-0.13745368,0.055630922,-0.52038574,-0.16885987,-0.6924316,92.0
144,-0.20874703,-0.13745368,0.055630922,-0.92713624,-0.045666505,-0.70198977,92.0
145,-0.19375545,-0.10378623,-0.21937466,-0.92713624,-0.045666505,-0.70198977,92.0
146,-0.19375545,-0.10378623,-0.21937466,-1.3625611,0.070092775,-0.6924316,92.0
147,-0.05900827,-0.24357593,-0.45408857,-1.3625611,0.070092775,-0.6924316,92.0
148,-0.05900827,-0.24357593,-0.45408857,-1.716211,0.15505372,-0.6711914,92.0
149,0.26260784,-0.5189209,-0.5738666,-1.716211,0.15505372,-0.6711914,92.0
150,0.26260784,-0.5189209,-0.5738666,-1.9732178,0.21134034,-0.631897,92.0
151,0.5580477,-0.76060796,-0.5681753,-1.9732178,0.21134034,-0.631897,92.0
152,0.5580477,-0.76060796,-0.5681753,-2.182434,0.27718505,-0.5533081,92.0
153,0.63731956,-0.8536768,-0.53326344,-2.182434,0.27718505,-0.5533081,92.0
154,0.63731956,-0.8536768,-0.53326344,-2.2939453,0.3355957,-0.47365722,92.0
155,0.5961471,-0.83468723,-0.5569452,-2.2939453,0.3355957,-0.47365722,92.0
156,0.5961471,-0.83468723,-0.5569452,-2.360852,0.3525879,-0.37382814,92.0
157,0.5505383,-0.8119025,-0.6051265,-2.360852,0.3525879,-0.37382814,92.0
158,0.5505383,-0.8119025,-0.6051265,-2.2865112,0.36745605,-0.271875,92.0
159,0.64248145,-0.8915019,-0.5277902,-2.2865112,0.36745605,-0.271875,92.0
160,0.64248145,-0.8915019,-0.5277902,-2.0295045,0.35683593,-0.1709839,92.0
161,0.85611165,-0.94257164,-0.3198884,-2.0295045,0.35683593,-0.1709839,92.0
162,0.85611165,-0.94257164,-0.3198884,-1.721521,0.3462158,-0.04885254,92.0
163,0.8428483,-0.7485275,-0.14515635,-1.721521,0.3462158,-0.04885254,92.0
164,0.8428483,-0.7485275,-0.14515635,-1.4761963,0.33771974,0.121069334,92.0
165,0.2855091,-0.24053335,-0.0730831,-1.4761963,0.33771974,0.121069334,92.0
166,0.2855091,-0.24053335,-0.0730831,-1.3222046,0.31329346,0.3419678,92.0
167,-0.5724106,0.21337175,-0.09518525,-1.3222046,0.31329346,0.3419678,92.0
168,-0.5724106,0.21337175,-0.09518525,-0.8591675,0.38338622,0.6074707,92.0
169,-1.2096009,0.25415707,-0.11837232,-0.8591675,0.38338622,0.6074707,92.0
170,-1.2096009,0.25415707,-0.11837232,0.0361084,0.27506104,0.8336792,92.0
171,-1.4121144,0.28344035,0.028349012,0.0361084,0.27506104,0.8336792,92.0
172,-1.4121144,0.28344035,0.028349012,0.7880127,0.025488282,1.0004151,92.0
173,-1.1269449,0.6349311,0.30805516,0.7880127,0.025488282,1.0004151,92.0
174,-1.1269449,0.6349311,0.30805516,1.2521118,-0.11044922,1.1629028,92.0
175,-0.5669368,1.0448589,0.51245975,1.2521118,-0.11044922,1.1629028,92.0
176,-0.5669368,1.0448589,0.51245975,1.5972656,-0.25913087,1.2563599,92.0
177,-0.14434534,1.4046738,0.56078565,1.5972656,-0.25913087,1.2563599,92.0
178,-0.14434534,1.4046738,0.56078565,1.6461182,-0.35471192,1.2914063,92.0
179,-0.038278997,1.7293787,0.52309144,1.6461182,-0.35471192,1.2914063,92.0
180,-0.038278997,1.7293787,0.52309144,1.4262818,-0.37701416,1.264856,92.0
181,-0.13233218,1.8506294,0.45735252,1.4262818,-0.37701416,1.264856,92.0
182,-0.13233218,1.8506294,0.45735252,1.1395386,-0.34727785,1.1937011,92.0
183,-0.17808253,1.4746077,0.30705643,1.1395386,-0.34727785,1.1937011,92.0
184,-0.17808253,1.4746077,0.30705643,1.2744141,-0.11469727,1.1448487,92.0
185,-0.16236347,0.49963242,0.048953295,1.2744141,-0.11469727,1.1448487,92.0
186,-0.16236347,0.49963242,0.048953295,2.2684572,0.0180542,1.089624,92.0
187,-0.27429998,-0.41400254,-0.23488522,2.2684572,0.0180542,1.089624,92.0
188,-0.27429998,-0.41400254,-0.23488522,3.4037476,-0.07540283,1.0641358,92.0
189,-0.36812162,-0.5277474,-0.46576458,3.4037476,-0.07540283,1.0641358,92.0
190,-0.36812162,-0.5277474,-0.46576458,4.071753,-0.11682129,1.1490967,92.0
191,-0.32052267,-0.029326797,-0.61792415,4.071753,-0.11682129,1.1490967,92.0
192,-0.32052267,-0.029326797,-0.61792415,4.4774413,-0.20921631,1.2053833,92.0
193,-0.3101169,0.69536185,-0.6869785,4.4774413,-0.20921631,1.2053833,92.0
194,-0.3101169,0.69536185,-0.6869785,4.3882327,-0.3812622,1.2138795,92.0
195,-0.29361355,1.5861235,-0.5391946,4.3882327,-0.3812622,1.2138795,92.0
196,-0.29361355,1.5861235,-0.5391946,3.5205688,-0.40462646,1.1990112,92.0
197,-0.14231277,2.1758935,-0.15343821,3.5205688,-0.40462646,1.1990112,92.0
198,-0.14231277,2.1758935,-0.15343821,2.636975,-0.30054933,1.1926392,92.0
199,-0.019563079,1.9528974,0.18580657,2.636975,-0.30054933,1.1926392,92.0
200,-0.019563079,1.9528974,0.18580657,2.2376587,-0.24744873,1.1480347,92.0
201,-0.057532787,1.219337,0.2695315,2.2376587,-0.24744873,1.1480347,92.0
202,-0.057532787,1.219337,0.2695315,1.9222412,-0.23258057,1.0726318,92.0
203,-0.225909,0.66106534,0.17648947,1.9222412,-0.23258057,1.0726318,92.0
204,-0.225909,0.66106534,0.17648947,1.5770874,-0.23895264,0.9781128,92.0
205,-0.44665742,0.433784,0.08314717,1.5770874,-0.23895264,0.9781128,92.0
206,-0.44665742,0.433784,0.08314717,1.4124756,-0.24851075,0.87403566,92.0
207,-0.6237322,0.27129483,-0.012376308,1.4124756,-0.24851075,0.87403566,92.0
208,-0.6237322,0.27129483,-0.012376308,1.4050416,-0.3069214,0.75615233,92.0
209,-0.7178335,0.2647165,-0.14166373,1.4050416,-0.3069214,0.75615233,92.0
210,-0.7178335,0.2647165,-0.14166373,1.2361816,-0.38232422,0.6669434,92.0
211,-0.7111809,0.55609703,-0.1760385,1.2361816,-0.38232422,0.6669434,92.0
212,-0.7111809,0.55609703,-0.1760385,0.9696167,-0.45666504,0.55968016,92.0
213,-0.5712763,0.7282516,-0.053037822,0.9696167,-0.45666504,0.55968016,92.0
214,-0.5712763,0.7282516,-0.053037822,0.72641605,-0.54375,0.43861085,92.0
215,-0.31859326,0.45924914,0.176332,0.72641605,-0.54375,0.43861085,92.0
216,-0.31859326,0.45924914,0.176332,0.4970215,-0.6180908,0.28461915,92.0
217,0.027815819,-0.1522417,0.40070915,0.4970215,-0.6180908,0.28461915,92.0
218,0.027815819,-0.1522417,0.40070915,0.42268068,-0.7072998,0.12531738,92.0
219,0.47401047,-0.75150526,0.5469345,0.42268068,-0.7072998,0.12531738,92.0
220,0.47401047,-0.75150526,0.5469345,0.5150757,-0.8294312,-0.045666505,92.0
221,1.0151825,-0.8684406,0.7956042,0.5150757,-0.8294312,-0.045666505,92.0
222,1.0151825,-0.8684406,0.7956042,0.3695801,-0.9515625,-0.21027832,92.0
223,1.0151825,-0.8684406,0.7956042,0.3695801,-0.9515625,-0.21027832,92.0
224,1.6761963,-0.6136124,1.0621792,0.3695801,-0.9515625,-0.21027832,92.0
225,1.6761963,-0.6136124,1.0621792,-0.29417726,-0.74022216,-0.4704712,92.0
226,2.4140406,-1.0638025,1.0926633,-0.29417726,-0.74022216,-0.4704712,92.0
227,2.4140406,-1.0638025,1.0926633,0.011682129,-0.814563,-0.5957886,92.0
228,2.4824166,-1.4951828,1.0459812,0.011682129,-0.814563,-0.5957886,92.0
229,2.4824166,-1.4951828,1.0459812,0.21134034,-0.8379273,-0.6446411,92.0
230,3.59858,-2.6739783,1.525286,0.21134034,-0.8379273,-0.6446411,92.0
231,3.59858,-2.6739783,1.525286,0.31329346,-0.7306641,-0.39506838,92.0
232,3.086652,-2.302952,1.5468524,0.31329346,-0.7306641,-0.39506838,92.0
233,3.086652,-2.302952,1.5468524,0.25806886,-0.631897,-0.18585205,92.0
234,1.5250711,-1.129117,1.0597599,0.25806886,-0.631897,-0.18585205,92.0
235,1.5250711,-1.129117,1.0597599,0.15823975,-0.11151123,0.4991455,92.0
236,0.49869466,-0.6083473,0.34561062,0.15823975,-0.11151123,0.4991455,92.0
237,0.49869466,-0.6083473,0.34561062,0.3971924,-0.0010620117,0.7614624,92.0
238,-1.6509222,-0.5515704,-1.3888681,0.3971924,-0.0010620117,0.7614624,92.0
239,-1.6509222,-0.5515704,-1.3888681,1.4953126,0.19647217,1.4390259,92.0
240,-1.5887065,-0.43787503,-1.5209944,1.4953126,0.19647217,1.4390259,92.0
241,-1.5887065,-0.43787503,-1.5209944,1.8627685,0.22089843,1.5962037,92.0
242,-0.96622884,-0.063117385,-1.2392931,1.8627685,0.22089843,1.5962037,92.0
243,-0.96622884,-0.063117385,-1.2392931,2.4691772,0.31435546,1.8468384,92.0
244,-0.32846403,0.26284838,-0.93303597,2.4691772,0.31435546,1.8468384,92.0
245,-0.32846403,0.26284838,-0.93303597,2.4596193,0.37701416,1.8744507,92.0
246,0.8231664,0.63596225,-0.24093556,2.4596193,0.37701416,1.8744507,92.0
247,0.8231664,0.63596225,-0.24093556,2.247217,0.5851685,1.897815,92.0
248,1.0691166,0.502056,-0.23365426,2.247217,0.5851685,1.897815,92.0
249,1.0691166,0.502056,-0.23365426,2.1941164,0.6690674,1.9445435,92.0
250,1.4847245,-0.19496167,-0.04964316,2.1941164,0.6690674,1.9445435,92.0
251,1.4847245,-0.19496167,-0.04964316,2.1155274,0.92076415,2.182434,92.0
252,1.4195545,-0.18481457,-0.25818372,2.1155274,0.92076415,2.182434,92.0
253,1.4195545,-0.18481457,-0.25818372,2.1187134,0.994043,2.2769532,92.0
254,1.1131461,-0.106787205,-0.4368937,2.1187134,0.994043,2.2769532,92.0
255,1.1131461,-0.106787205,-0.4368937,2.2769532,1.2128174,2.608301,92.0
256,1.0505388,0.082490206,-0.6387118,2.2769532,1.2128174,2.608301,92.0
257,1.0505388,0.082490206,-0.6387118,2.2928834,1.2860962,2.6996338,92.0
258,0.7838757,0.50808203,-0.9390578,2.2928834,1.2860962,2.6996338,92.0
259,0.7838757,0.50808203,-0.9390578,2.3013794,1.364685,2.812207,92.0
260,0.35704422,1.0089314,-1.3936048,2.3013794,1.364685,2.812207,92.0
261,0.35704422,1.0089314,-1.3936048,2.2875733,1.358313,2.8238893,92.0
262,-0.07294607,1.2911662,-1.6569247,2.2875733,1.358313,2.8238893,92.0
263,-0.07294607,1.2911662,-1.6569247,2.175,1.3625611,2.72937,92.0
264,-0.38783693,1.311534,-1.5746121,2.175,1.3625611,2.72937,92.0
265,-0.38783693,1.311534,-1.5746121,1.9041871,1.3742431,2.535022,92.0
266,-1.0871372,1.2042077,-1.3648045,1.9041871,1.3742431,2.535022,92.0
267,-1.0871372,1.2042077,-1.3648045,1.5951416,1.3381348,2.1888063,92.0
268,-0.9116409,0.9056879,-1.2485209,1.5951416,1.3381348,2.1888063,92.0
269,-0.9116409,0.9056879,-1.2485209,1.545227,1.3200806,2.069861,92.0
270,-1.2700598,0.53528035,-0.8895271,1.545227,1.3200806,2.069861,92.0
271,-1.2700598,0.53528035,-0.8895271,1.3827393,1.2988404,1.7363892,92.0
272,-0.91855025,0.31379557,-0.75474906,1.3827393,1.2988404,1.7363892,92.0
273,-0.91855025,0.31379557,-0.75474906,1.3200806,1.3009644,1.632312,92.0
274,-0.7446668,0.15682256,-0.58379185,1.3200806,1.3009644,1.632312,92.0
275,-0.7446668,0.15682256,-0.58379185,1.1607789,1.3190186,1.4273437,92.0
276,-0.62378526,0.16033351,-0.65848863,1.1607789,1.3190186,1.4273437,92.0
277,-0.62378526,0.16033351,-0.65848863,1.0046631,1.3275146,1.2234375,92.0
278,-0.5839404,0.13512719,-0.8801112,1.0046631,1.3275146,1.2234375,92.0
279,-0.5839404,0.13512719,-0.8801112,0.99085695,1.3094605,1.0248413,92.0
280,-0.52453756,0.0117150545,-0.983752,0.99085695,1.3094605,1.0248413,92.0
281,-0.52453756,0.0117150545,-0.983752,1.0938721,1.2181275,0.8623535,92.0
282,-0.38595092,-0.0021025538,-0.85616684,1.0938721,1.2181275,0.8623535,92.0
283,-0.38595092,-0.0021025538,-0.85616684,1.1352905,1.1565307,0.725354,92.0
284,-0.21448588,0.2185328,-0.64738464,1.1352905,1.1565307,0.725354,92.0
285,-0.21448588,0.2185328,-0.64738464,1.177771,1.1013062,0.59472656,92.0
286,-0.09335387,0.4448092,-0.38045645,1.177771,1.1013062,0.59472656,92.0
287,-0.09335387,0.4448092,-0.38045645,1.2170655,1.0078491,0.44498292,92.0
288,-0.09559381,0.4457888,0.025578737,1.2170655,1.0078491,0.44498292,92.0
289,-0.09559381,0.4457888,0.025578737,1.1724609,0.88253176,0.25700685,92.0
290,-0.3200053,0.16098893,0.88585615,1.1724609,0.88253176,0.25700685,92.0
291,-0.3200053,0.16098893,0.88585615,0.8262451,0.79119873,-0.17523193,92.0
292,-0.18672931,-0.20160437,1.0275204,0.8262451,0.79119873,-0.17523193,92.0
293,-0.18672931,-0.20160437,1.0275204,0.7147339,0.78164065,-0.270813,92.0
294,0.028228879,-0.67860526,1.3997141,0.7147339,0.78164065,-0.270813,92.0
295,0.028228879,-0.67860526,1.3997141,0.4088745,0.76358646,-0.43011475,92.0
296,0.17044687,-0.75157565,1.2374349,0.4088745,0.76358646,-0.43011475,92.0
297,0.17044687,-0.75157565,1.2374349,0.17416993,0.75615233,-0.57242435,92.0
298,0.17235601,-0.69693923,0.6857487,0.17416993,0.75615233,-0.57242435,92.0
299,0.17235601,-0.69693923,0.6857487,0.2081543,0.58410645,-0.5703003,92.0
300,0.138605,-0.529341,0.28009307,0.2081543,0.58410645,-0.5703003,92.0
301,0.138605,-0.529341,0.28009307,0.11469727,0.4343628,-0.5384399,92.0
302,0.11754906,-0.23847522,0.33405983,0.11469727,0.4343628,-0.5384399,92.0
303,0.11754906,-0.23847522,0.33405983,0.0010620117,0.32178956,-0.5320679,92.0
304,0.08974242,-0.11436415,0.6452997,0.0010620117,0.32178956,-0.5320679,92.0
305,0.08974242,-0.11436415,0.6452997,-0.038232423,0.24744873,-0.5012695,92.0
306,0.060172796,-0.18748741,0.771269,-0.038232423,0.24744873,-0.5012695,92.0
307,0.060172796,-0.18748741,0.771269,-0.012744141,0.16142578,-0.4609131,92.0
308,0.019756913,-0.15344451,0.5099595,-0.012744141,0.16142578,-0.4609131,92.0
309,0.019756913,-0.15344451,0.5099595,-0.052038576,0.10620117,-0.4619751,92.0
310,-0.004397154,0.041770756,0.06861216,-0.052038576,0.10620117,-0.4619751,92.0
311,-0.004397154,0.041770756,0.06861216,-0.05628662,0.058410645,-0.4630371,92.0
312,-0.004799485,0.19494005,-0.23503947,-0.05628662,0.058410645,-0.4630371,92.0
313,-0.004799485,0.19494005,-0.23503947,-0.039294433,0.009558106,-0.43011475,92.0
314,-0.030316591,0.23439443,-0.31001645,-0.039294433,0.009558106,-0.43011475,92.0
315,-0.030316591,0.23439443,-0.31001645,-0.008496094,-0.026550293,-0.38869628,92.0
316,-0.10334265,0.19829434,-0.22986126,-0.008496094,-0.026550293,-0.38869628,92.0
317,-0.10334265,0.19829434,-0.22986126,0.03079834,-0.050976563,-0.34090576,92.0
318,-0.19125569,0.12683615,-0.10567856,0.03079834,-0.050976563,-0.34090576,92.0
319,-0.19125569,0.12683615,-0.10567856,0.06478272,-0.059472658,-0.2793091,92.0
320,-1.1798234,-0.08889973,0.04940492,0.06478272,-0.059472658,-0.2793091,92.0
321,-1.1798234,-0.08889973,0.04940492,0.06796875,-0.06159668,-0.23151855,92.0
322,-1.0154042,-0.006971836,0.062033713,0.06796875,-0.06159668,-0.23151855,92.0
323,-1.0154042,-0.006971836,0.062033713,0.022302246,-0.045666505,-0.20921631,92.0
324,-0.8547183,-0.032945633,0.04401177,0.022302246,-0.045666505,-0.20921631,92.0
325,-0.8547183,-0.032945633,0.04401177,0.07540283,-0.0637207,-0.17947999,92.0
326,-0.7194192,-0.12568513,0.028068304,0.07540283,-0.0637207,-0.17947999,92.0
327,-0.7194192,-0.12568513,0.028068304,0.11469727,-0.08496094,-0.16779785,92.0
328,-0.6234968,-0.057725832,0.10093367,0.11469727,-0.08496094,-0.16779785,92.0
329,-0.6234968,-0.057725832,0.10093367,0.06478272,-0.10089111,-0.19328614,92.0
330,-0.5405699,0.08090675,0.26513416,0.06478272,-0.10089111,-0.19328614,92.0
331,-0.5405699,0.08090675,0.26513416,-0.04460449,-0.08602295,-0.23151855,92.0
332,-0.45177966,0.08125371,0.4625712,-0.04460449,-0.08602295,-0.23151855,92.0
333,-0.45177966,0.08125371,0.4625712,-0.10407715,-0.06478272,-0.27506104,92.0
334,-0.34228313,-0.07006785,0.61329424,-0.10407715,-0.06478272,-0.27506104,92.0
335,-0.34228313,-0.07006785,0.61329424,-0.124255374,-0.045666505,-0.33028564,92.0
336,-0.25439292,-0.20476034,0.63755924,-0.124255374,-0.045666505,-0.33028564,92.0
337,-0.25439292,-0.20476034,0.63755924,-0.10407715,-0.04248047,-0.35577393,92.0
338,-0.25823846,-0.1466452,0.499586,-0.10407715,-0.04248047,-0.35577393,92.0
339,-0.25823846,-0.1466452,0.499586,-0.10513916,-0.04460449,-0.38763428,92.0
340,-0.38022357,0.054510012,0.2717513,-0.10513916,-0.04460449,-0.38763428,92.0
341,-0.38022357,0.054510012,0.2717513,-0.12531738,-0.0637207,-0.43861085,92.0
342,-0.5396403,0.12307578,0.12619011,-0.12531738,-0.0637207,-0.43861085,92.0
343,-0.5396403,0.12307578,0.12619011,-0.070092775,-0.1083252,-0.47578126,92.0
344,-0.5396403,0.12307578,0.12619011,-0.070092775,-0.1083252,-0.47578126,91.0
345,-0.63687587,0.10140252,0.18746331,-0.070092775,-0.1083252,-0.47578126,91.0
346,-0.63687587,0.10140252,0.18746331,-0.06796875,-0.1263794,-0.5012695,91.0
347,-0.60065055,0.12208882,0.29142573,-0.06796875,-0.1263794,-0.5012695,91.0
348,-0.60065055,0.12208882,0.29142573,-0.095581055,-0.12956543,-0.4980835,91.0
349,-0.5445708,0.13154557,0.26762545,-0.095581055,-0.12956543,-0.4980835,91.0
350,-0.5445708,0.13154557,0.26762545,-0.08071289,-0.13806152,-0.4704712,91.0
351,-0.48649895,0.08933067,0.15188113,-0.08071289,-0.13806152,-0.4704712,91.0
352,-0.48649895,0.08933067,0.15188113,-0.0361084,-0.16673584,-0.43754885,91.0
353,-0.3743676,0.03036347,0.047737807,-0.0361084,-0.16673584,-0.43754885,91.0
354,-0.3743676,0.03036347,0.047737807,-0.02442627,-0.1709839,-0.41099855,91.0
355,-0.21973336,-0.029468983,-0.007720396,-0.02442627,-0.1709839,-0.41099855,91.0
356,-0.21973336,-0.029468983,-0.007720396,-0.020178223,-0.15611573,-0.4056885,91.0
357,-0.0055229664,-0.058218747,-0.07735552,-0.020178223,-0.15611573,-0.4056885,91.0
358,-0.0055229664,-0.058218747,-0.07735552,-0.025488282,-0.118945315,-0.40993652,91.0
359,0.25026906,-0.010832816,-0.24745572,-0.025488282,-0.118945315,-0.40993652,91.0
360,0.25026906,-0.010832816,-0.24745572,-0.004248047,-0.06478272,-0.3812622,91.0
361,0.42694867,0.11788404,-0.55365306,-0.004248047,-0.06478272,-0.3812622,91.0
362,0.42694867,0.11788404,-0.55365306,-0.010620117,-0.010620117,-0.3419678,91.0
363,0.38026738,0.15468323,-0.76601815,-0.010620117,-0.010620117,-0.3419678,91.0
364,0.38026738,0.15468323,-0.76601815,0.046728518,-0.010620117,-0.32816163,91.0
365,0.16869146,0.05663234,-0.6531222,0.046728518,-0.010620117,-0.32816163,91.0
366,0.16869146,0.05663234,-0.6531222,0.08496094,-0.043542482,-0.36427003,91.0
367,0.057377458,0.011309296,-0.23870867,0.08496094,-0.043542482,-0.36427003,91.0
368,0.057377458,0.011309296,-0.23870867,-0.014868164,-0.032922365,-0.452417,91.0
369,0.16816759,-0.11536664,0.2748778,-0.014868164,-0.032922365,-0.452417,91.0
370,0.16816759,-0.11536664,0.2748778,-0.10301514,0.0180542,-0.5341919,91.0
371,0.43482703,-0.39475912,0.6657518,-0.10301514,0.0180542,-0.5341919,91.0
372,0.43482703,-0.39475912,0.6657518,-0.12000733,0.07327881,-0.5787964,91.0
373,0.6812967,-0.5131584,0.7475185,-0.12000733,0.07327881,-0.5787964,91.0
374,0.6812967,-0.5131584,0.7475185,-0.13487549,0.11257324,-0.60216063,91.0
375,0.7199886,-0.35698667,0.5025192,-0.13487549,0.11257324,-0.60216063,91.0
376,0.7199886,-0.35698667,0.5025192,-0.16461182,0.13806152,-0.64995116,91.0
377,0.5794088,-0.033208963,0.17008176,-0.16461182,0.13806152,-0.64995116,91.0
378,0.5794088,-0.033208963,0.17008176,-0.24957275,0.16036378,-0.73597413,91.0
379,0.45500654,0.5131667,-0.029193372,-0.24957275,0.16036378,-0.73597413,91.0
380,0.45500654,0.5131667,-0.029193372,-0.50020754,0.22089843,-0.85491943,91.0
381,0.3802284,1.323302,-0.08840597,-0.50020754,0.22089843,-0.85491943,91.0
382,0.3802284,1.323302,-0.08840597,-0.9674927,0.3154175,-1.0450195,91.0
383,0.23230773,1.9698598,-0.14338103,-0.9674927,0.3154175,-1.0450195,91.0
384,0.23230773,1.9698598,-0.14338103,-1.5643433,0.49064943,-1.2712281,91.0
385,-0.023772955,1.7754729,-0.35595238,-1.5643433,0.49064943,-1.2712281,91.0
386,-0.023772955,1.7754729,-0.35595238,-1.8202881,0.6244629,-1.4400879,91.0
387,-0.30977765,0.96993876,-0.8036584,-1.8202881,0.6244629,-1.4400879,91.0
388,-0.30977765,0.96993876,-0.8036584,-1.8192261,0.60216063,-1.6769165,91.0
389,-0.48823962,0.5044422,-1.3485175,-1.8192261,0.60216063,-1.6769165,91.0
390,-0.48823962,0.5044422,-1.3485175,-1.9286133,0.5511841,-1.9158691,91.0
391,-0.58386564,0.63962555,-1.863543,-1.9286133,0.5511841,-1.9158691,91.0
392,-0.58386564,0.63962555,-1.863543,-2.3321779,0.49064943,-2.1962402,91.0
393,-0.59354514,0.7772279,-2.2304096,-2.3321779,0.49064943,-2.1962402,91.0
394,-0.59354514,0.7772279,-2.2304096,-2.814331,0.5033936,-2.451123,91.0
395,-0.457673,0.18282962,-2.2488663,-2.814331,0.5033936,-2.451123,91.0
396,-0.457673,0.18282962,-2.2488663,-3.0426636,0.5564942,-2.6560915,91.0
397,-0.3067634,-0.8243785,-1.9170496,-3.0426636,0.5564942,-2.6560915,91.0
398,-0.3067634,-0.8243785,-1.9170496,-2.9152222,0.452417,-2.8823,91.0
399,-0.29453182,-1.2839535,-1.4802217,-2.9152222,0.452417,-2.8823,91.0
400,-0.29453182,-1.2839535,-1.4802217,-2.7261841,0.35152587,-3.1074464,91.0
401,-0.3060844,-0.94627905,-1.0724587,-2.7261841,0.35152587,-3.1074464,91.0
402,-0.3060844,-0.94627905,-1.0724587,-2.5594482,0.2357666,-3.3368409,91.0
403,-0.2038275,-0.4762981,-0.63002515,-2.5594482,0.2357666,-3.3368409,91.0
404,-0.2038275,-0.4762981,-0.63002515,-2.3746583,0.20603028,-3.4823365,91.0
405,-0.09210253,-0.4059286,-0.15223789,-2.3746583,0.20603028,-3.4823365,91.0
406,-0.09210253,-0.4059286,-0.15223789,-2.165442,0.0010620117,-3.6087158,91.0
407,-0.07972455,-0.47927165,0.24853444,-2.165442,0.0010620117,-3.6087158,91.0
408,-0.07972455,-0.47927165,0.24853444,-2.0380006,-0.15930176,-3.7340333,91.0
409,-0.0639627,-0.49387872,0.6080682,-2.0380006,-0.15930176,-3.7340333,91.0
410,-0.0639627,-0.49387872,0.6080682,-1.9902099,-0.35789797,-3.9135132,91.0
411,0.11324638,-0.6705913,0.9301801,-1.9902099,-0.35789797,-3.9135132,91.0
412,0.11324638,-0.6705913,0.9301801,-1.9859619,-0.55755615,-4.032459,91.0
413,0.41884416,-0.80125576,1.0477695,-1.9859619,-0.55755615,-4.032459,91.0
414,0.41884416,-0.80125576,1.0477695,-2.1049073,-0.88253176,-4.236365,91.0
415,0.838713,-0.6904553,0.97250533,-2.1049073,-0.88253176,-4.236365,91.0
416,0.838713,-0.6904553,0.97250533,-2.4681153,-1.0535157,-4.4137206,91.0
417,1.3498766,-0.6678794,0.92256,-2.4681153,-1.0535157,-4.4137206,91.0
418,1.3498766,-0.6678794,0.92256,-2.897168,-1.2924683,-4.6048827,91.0
419,1.8152652,-0.705617,0.99612904,-2.897168,-1.2924683,-4.6048827,91.0
420,1.8152652,-0.705617,0.99612904,-3.528003,-1.4687623,-4.7461305,91.0
421,2.1570096,-0.72352684,1.0608925,-3.528003,-1.4687623,-4.7461305,91.0
422,2.1570096,-0.72352684,1.0608925,-4.3064575,-1.535669,-4.8438354,91.0
423,2.4114108,-0.9397712,1.0157917,-4.3064575,-1.535669,-4.8438354,91.0
424,2.4114108,-0.9397712,1.0157917,-4.9203005,-1.4613281,-4.887378,91.0
425,2.5763454,-1.5342388,0.953588,-4.9203005,-1.4613281,-4.887378,91.0
426,2.5763454,-1.5342388,0.953588,-5.170935,-1.3200806,-4.8247194,91.0
427,2.6273851,-2.3688095,1.0304973,-5.170935,-1.3200806,-4.8247194,91.0
428,2.6273851,-2.3688095,1.0304973,-4.972339,-1.1098022,-4.69834,91.0
429,2.5954018,-3.2083654,1.3003012,-4.972339,-1.1098022,-4.69834,91.0
430,2.5954018,-3.2083654,1.3003012,-4.180078,-0.86553955,-4.443457,91.0
431,2.482242,-4.1221,1.6459905,-4.180078,-0.86553955,-4.443457,91.0
432,2.482242,-4.1221,1.6459905,-2.5732543,-0.5809204,-3.9528077,91.0
433,2.0302396,-4.9895506,1.6829667,-2.5732543,-0.5809204,-3.9528077,91.0
434,2.0302396,-4.9895506,1.6829667,-0.33240968,-0.35152587,-3.3134766,91.0
435,0.89134264,-4.9621973,1.0294666,-0.33240968,-0.35152587,-3.3134766,91.0
436,0.89134264,-4.9621973,1.0294666,1.4942505,-0.39082032,-2.52334,91.0
437,-0.64446974,-3.434516,-0.033848584,1.4942505,-0.39082032,-2.52334,91.0
438,-0.64446974,-3.434516,-0.033848584,2.6773317,-0.54587406,-1.7119629,91.0
439,-0.64446974,-3.434516,-0.033848584,2.6773317,-0.54587406,-1.7119629,91.0
440,-1.7806149,-1.1393733,-0.6010535,2.6773317,-0.54587406,-1.7119629,91.0
441,-1.7806149,-1.1393733,-0.6010535,3.5481813,-0.57242435,-1.0343994,91.0
442,-2.2998827,0.7136116,-0.16342333,3.5481813,-0.57242435,-1.0343994,91.0
443,-2.2998827,0.7136116,-0.16342333,3.7478395,-0.542688,-0.46409914,91.0
444,-2.5311048,1.6160798,0.84806997,3.7478395,-0.542688,-0.46409914,91.0
445,-2.5311048,1.6160798,0.84806997,3.1743531,-0.4694092,-0.046728518,91.0
446,-2.6492124,1.723247,1.5617324,3.1743531,-0.4694092,-0.046728518,91.0
447,-2.6492124,1.723247,1.5617324,2.1080933,-0.3525879,0.20921631,91.0
448,-2.6387913,1.4996428,1.5440881,2.1080933,-0.3525879,0.20921631,91.0
449,-2.6387913,1.4996428,1.5440881,0.7657105,-0.18479005,0.2803711,91.0
450,-2.488389,1.174324,0.91479933,0.7657105,-0.18479005,0.2803711,91.0
451,-2.488389,1.174324,0.91479933,-0.48321533,0.047790527,0.29417726,91.0
452,-2.2187996,0.6960511,0.09501076,-0.48321533,0.047790527,0.29417726,91.0
453,-2.2187996,0.6960511,0.09501076,-1.2276856,0.1529297,0.24744873,91.0
454,-1.8664582,0.1971364,-0.4923141,-1.2276856,0.1529297,0.24744873,91.0
455,-1.8664582,0.1971364,-0.4923141,-1.4963745,0.2177124,0.20921631,91.0
456,-1.4333766,-0.19506168,-0.7584387,-1.4963745,0.2177124,0.20921631,91.0
457,-1.4333766,-0.19506168,-0.7584387,-1.3986695,0.23895264,0.1720459,91.0
458,-0.9100801,-0.47672844,-0.8467412,-1.3986695,0.23895264,0.1720459,91.0
459,-0.9100801,-0.47672844,-0.8467412,-1.0482056,0.19328614,0.10620117,91.0
460,-0.27768564,-0.61872435,-0.89049107,-1.0482056,0.19328614,0.10620117,91.0
461,-0.27768564,-0.61872435,-0.89049107,-0.68499756,0.098767094,0.026550293,91.0
462,0.48778802,-0.6201258,-0.89375275,-0.68499756,0.098767094,0.026550293,91.0
463,0.48778802,-0.6201258,-0.89375275,-0.46409914,0.026550293,-0.052038576,91.0
464,1.3365439,-0.6210027,-0.7626219,-0.46409914,0.026550293,-0.052038576,91.0
465,1.3365439,-0.6210027,-0.7626219,-0.3440918,-0.038232423,-0.050976563,91.0
466,2.013388,-0.71118164,-0.5109398,-0.3440918,-0.038232423,-0.050976563,91.0
467,2.013388,-0.71118164,-0.5109398,-0.3058594,-0.08496094,0.04460449,91.0
468,2.210869,-0.76948214,-0.28669372,-0.3058594,-0.08496094,0.04460449,91.0
469,2.210869,-0.76948214,-0.28669372,-0.22089843,-0.12213135,0.24851075,91.0
470,1.8900821,-0.6443944,-0.16255811,-0.22089843,-0.12213135,0.24851075,91.0
471,1.8900821,-0.6443944,-0.16255811,0.026550293,-0.18372802,0.544812,91.0
472,1.13897,-0.20802021,-0.17023203,0.026550293,-0.18372802,0.544812,91.0
473,1.13897,-0.20802021,-0.17023203,0.35895997,-0.26444092,0.9600586,91.0
474,0.0043156147,0.5588646,-0.3237711,0.35895997,-0.26444092,0.9600586,91.0
475,0.0043156147,0.5588646,-0.3237711,0.7051758,-0.34727785,1.4305298,91.0
476,-1.0873313,1.3702726,-0.5782063,0.7051758,-0.34727785,1.4305298,91.0
477,-1.0873313,1.3702726,-0.5782063,1.1915772,-0.4598511,1.8871949,91.0
478,-1.2945477,1.835073,-0.7643473,1.1915772,-0.4598511,1.8871949,91.0
479,-1.2945477,1.835073,-0.7643473,1.7841797,-0.53950197,2.2971313,91.0
480,-0.30348486,1.896244,-0.7927644,1.7841797,-0.53950197,2.2971313,91.0
481,-0.30348486,1.896244,-0.7927644,2.2132325,-0.53950197,2.6019287,91.0
482,1.1999855,1.9023466,-0.75141126,2.2132325,-0.53950197,2.6019287,91.0
483,1.1999855,1.9023466,-0.75141126,2.3757203,-0.43967286,2.795215,91.0
484,2.2212067,2.0925071,-0.71350694,2.3757203,-0.43967286,2.795215,91.0
485,2.2212067,2.0925071,-0.71350694,2.241907,-0.24851075,2.9247804,91.0
486,2.3011718,2.3408148,-0.65674305,2.241907,-0.24851075,2.9247804,91.0
487,2.3011718,2.3408148,-0.65674305,1.8383423,-0.07540283,2.9566407,91.0
488,1.6448803,2.484163,-0.54606104,1.8383423,-0.07540283,2.9566407,91.0
489,1.6448803,2.484163,-0.54606104,1.3009644,0.045666505,2.9375246,91.0
490,0.7102158,2.485475,-0.39198804,1.3009644,0.045666505,2.9375246,91.0
491,0.7102158,2.485475,-0.39198804,0.75509036,0.087084964,2.8780518,91.0
492,-0.12673712,2.3685436,-0.18468416,0.75509036,0.087084964,2.8780518,91.0
493,-0.12673712,2.3685436,-0.18468416,0.3727661,0.07752686,2.7750366,91.0
494,-0.661607,2.1817124,0.034540296,0.3727661,0.07752686,2.7750366,91.0
495,-0.661607,2.1817124,0.034540296,0.22727051,0.033984374,2.6348512,91.0
496,-0.84513044,1.9589442,0.20551312,0.22727051,0.033984374,2.6348512,91.0
497,-0.84513044,1.9589442,0.20551312,0.2782471,-0.0021240234,2.4797974,91.0
498,-0.7638118,1.7686568,0.25698864,0.2782471,-0.0021240234,2.4797974,91.0
499,-0.7638118,1.7686568,0.25698864,0.44179687,-0.03186035,2.3119996,91.0
500,-0.6279563,1.6885462,0.1438477,0.44179687,-0.03186035,2.3119996,91.0
501,-0.6279563,1.6885462,0.1438477,0.5883545,-0.059472658,2.1388917,91.0
502,-0.6017302,1.6545479,-0.046408653,0.5883545,-0.059472658,2.1388917,91.0
503,-0.6017302,1.6545479,-0.046408653,0.75615233,-0.0722168,1.9551636,91.0
504,-0.6915648,1.5867364,-0.14262009,0.75615233,-0.0722168,1.9551636,91.0
505,-0.6915648,1.5867364,-0.14262009,0.91014403,-0.09770508,1.7512573,91.0
506,-0.85156727,1.5128951,-0.08392036,0.91014403,-0.09770508,1.7512573,91.0
507,-0.85156727,1.5128951,-0.08392036,0.9876709,-0.121069334,1.539917,91.0
508,-0.96641004,1.429347,0.074953556,0.9876709,-0.121069334,1.539917,91.0
509,-0.96641004,1.429347,0.074953556,1.0184692,-0.12213135,1.3264526,91.0
510,-0.95960265,1.3240561,0.20904732,1.0184692,-0.12213135,1.3264526,91.0
511,-0.95960265,1.3240561,0.20904732,1.0248413,-0.11469727,1.1044922,91.0
512,-0.8693545,1.1751142,0.21641994,1.0248413,-0.11469727,1.1044922,91.0
513,-0.8693545,1.1751142,0.21641994,1.0237793,-0.090270996,0.8687256,91.0
514,-0.74935323,1.0035434,0.09144652,1.0237793,-0.090270996,0.8687256,91.0
515,-0.74935323,1.0035434,0.09144652,0.9855469,-0.07752686,0.62127686,91.0
516,-0.65324235,0.82789564,-0.08587599,0.9855469,-0.07752686,0.62127686,91.0
517,-0.65324235,0.82789564,-0.08587599,0.8973999,-0.06690674,0.36745605,91.0
518,-0.5226183,0.6212399,-0.1896236,0.8973999,-0.06690674,0.36745605,91.0
519,-0.5226183,0.6212399,-0.1896236,0.79226077,-0.078588866,0.08071289,91.0
520,-0.21517715,0.37333465,-0.18624473,0.79226077,-0.078588866,0.08071289,91.0
521,-0.21517715,0.37333465,-0.18624473,0.6669434,-0.118945315,-0.22939454,91.0
522,0.27430603,0.12866044,-0.11648846,0.6669434,-0.118945315,-0.22939454,91.0
523,0.27430603,0.12866044,-0.11648846,0.541626,-0.14337158,-0.56180423,91.0
524,0.7425161,-0.08659792,-0.007643819,0.541626,-0.14337158,-0.56180423,91.0
525,0.7425161,-0.08659792,-0.007643819,0.41418457,-0.18479005,-0.92713624,91.0
526,0.7425161,-0.08659792,-0.007643819,0.41418457,-0.18479005,-0.92713624,91.0
527,1.0216252,-0.2926669,0.12313306,0.41418457,-0.18479005,-0.92713624,91.0
528,1.0216252,-0.2926669,0.12313306,0.26762697,-0.22302246,-1.3009644,91.0
529,1.0586576,-0.5301542,0.26750064,0.26762697,-0.22302246,-1.3009644,91.0
530,1.0586576,-0.5301542,0.26750064,0.10620117,-0.24744873,-1.6535523,91.0
531,0.86174536,-0.7788353,0.43079746,0.10620117,-0.24744873,-1.6535523,91.0
532,0.86174536,-0.7788353,0.43079746,-0.039294433,-0.2538208,-1.9487915,91.0
533,0.54856384,-1.0193453,0.59123224,-0.039294433,-0.2538208,-1.9487915,91.0
534,0.54856384,-1.0193453,0.59123224,-0.12319336,-0.2516968,-2.1877441,91.0
535,0.36122656,-1.2451761,0.72232664,-0.12319336,-0.2516968,-2.1877441,91.0
536,0.36122656,-1.2451761,0.72232664,-0.12956543,-0.2177124,-2.3321779,91.0
537,0.3473431,-1.4336531,0.7977343,-0.12956543,-0.2177124,-2.3321779,91.0
538,0.3473431,-1.4336531,0.7977343,-0.107263185,-0.17735596,-2.3874023,91.0
539,0.45726895,-1.5285387,0.7353432,-0.107263185,-0.17735596,-2.3874023,91.0
540,0.45726895,-1.5285387,0.7353432,-0.093457036,-0.16461182,-2.4001465,91.0
541,0.5612986,-1.493583,0.50903875,-0.093457036,-0.16461182,-2.4001465,91.0
542,0.5612986,-1.493583,0.50903875,-0.21134034,-0.15186767,-2.3024414,91.0
543,0.27628493,-1.4096614,0.2879195,-0.21134034,-0.15186767,-2.3024414,91.0
544,0.27628493,-1.4096614,0.2879195,-0.35789797,-0.12956543,-2.0932252,91.0
545,-0.291533,-1.3754098,0.28894156,-0.35789797,-0.12956543,-2.0932252,91.0
546,-0.291533,-1.3754098,0.28894156,-0.36002198,-0.14761963,-1.8627685,91.0
547,-0.4615345,-1.3661848,0.5551889,-0.36002198,-0.14761963,-1.8627685,91.0
548,-0.4615345,-1.3661848,0.5551889,-0.30373535,-0.18797608,-1.627002,91.0
549,-0.020643592,-1.2313756,0.7746199,-0.30373535,-0.18797608,-1.627002,91.0
550,-0.020643592,-1.2313756,0.7746199,-0.3791382,-0.22089843,-1.3668091,91.0
551,0.4584607,-0.98627234,0.6065612,-0.3791382,-0.22089843,-1.3668091,91.0
552,0.4584607,-0.98627234,0.6065612,-0.5161377,-0.21346436,-1.1437867,91.0
553,0.43821633,-0.8546673,0.18087882,-0.5161377,-0.21346436,-1.1437867,91.0
554,0.43821633,-0.8546673,0.18087882,-0.60959476,-0.1985962,-1.0205933,91.0
555,-0.046765804,-0.91185886,-0.12846589,-0.60959476,-0.1985962,-1.0205933,91.0
556,-0.046765804,-0.91185886,-0.12846589,-0.71791995,-0.17735596,-0.9505005,91.0
557,-0.72024953,-0.9612498,-0.14870775,-0.71791995,-0.17735596,-0.9505005,91.0
558,-0.72024953,-0.9612498,-0.14870775,-0.8581055,-0.1359375,-0.89208984,91.0
559,-1.4296665,-0.877728,-0.047494054,-0.8581055,-0.1359375,-0.89208984,91.0
560,-1.4296665,-0.877728,-0.047494054,-1.0067872,-0.07540283,-0.8358032,91.0
561,-2.046199,-0.771384,-0.046003044,-1.0067872,-0.07540283,-0.8358032,91.0
562,-2.046199,-0.771384,-0.046003044,-1.084314,-0.027612304,-0.79119873,91.0
563,-2.398153,-0.7117727,-0.1848005,-1.084314,-0.027612304,-0.79119873,91.0
564,-2.398153,-0.7117727,-0.1848005,-1.0864381,-0.0021240234,-0.75296634,91.0
565,-2.393083,-0.6519133,-0.34493512,-1.0864381,-0.0021240234,-0.75296634,91.0
566,-2.393083,-0.6519133,-0.34493512,-1.0662597,0.032922365,-0.7147339,91.0
567,-2.0720227,-0.5808935,-0.40755212,-1.0662597,0.032922365,-0.7147339,91.0
568,-2.0720227,-0.5808935,-0.40755212,-1.0705079,0.06903076,-0.6860596,91.0
569,-1.5597911,-0.5200981,-0.37967938,-1.0705079,0.06903076,-0.6860596,91.0
570,-1.5597911,-0.5200981,-0.37967938,-1.1002442,0.10089111,-0.66269535,91.0
571,-0.9943905,-0.5201068,-0.3169515,-1.1002442,0.10089111,-0.66269535,91.0
572,-0.9943905,-0.5201068,-0.3169515,-1.1321045,0.13487549,-0.62977296,91.0
573,-0.5092819,-0.55986,-0.24388105,-1.1321045,0.13487549,-0.62977296,91.0
574,-0.5092819,-0.55986,-0.24388105,-1.1522827,0.14549561,-0.59047854,91.0
575,-0.20748651,-0.55180645,-0.17103258,-1.1522827,0.14549561,-0.59047854,91.0
576,-0.20748651,-0.55180645,-0.17103258,-1.1841431,0.14549561,-0.5278198,91.0
577,-0.10198784,-0.49801254,-0.09755604,-1.1841431,0.14549561,-0.5278198,91.0
578,-0.10198784,-0.49801254,-0.09755604,-1.1873292,0.14018555,-0.43967286,91.0
579,-0.0545516,-0.4568696,0.0060250014,-1.1873292,0.14018555,-0.43967286,91.0
580,-0.0545516,-0.4568696,0.0060250014,-1.1437867,0.107263185,-0.34727785,91.0
581,0.09921765,-0.45000505,0.13089423,-1.1437867,0.107263185,-0.34727785,91.0
582,0.09921765,-0.45000505,0.13089423,-1.0482056,0.070092775,-0.25063476,91.0
583,0.3339274,-0.45311928,0.2347691,-1.0482056,0.070092775,-0.25063476,91.0
584,0.3339274,-0.45311928,0.2347691,-0.8931519,0.023364259,-0.15930176,91.0
585,0.5329622,-0.44986105,0.2811014,-0.8931519,0.023364259,-0.15930176,91.0
586,0.5329622,-0.44986105,0.2811014,-0.6669434,-0.045666505,-0.090270996,91.0
587,0.7181423,-0.4236095,0.2895906,-0.6669434,-0.045666505,-0.090270996,91.0
588,0.7181423,-0.4236095,0.2895906,-0.40037844,-0.107263185,-0.047790527,91.0
589,0.9799826,-0.3814535,0.28853285,-0.40037844,-0.107263185,-0.047790527,91.0
590,0.9799826,-0.3814535,0.28853285,-0.14018555,-0.16142578,-0.04885254,91.0
591,1.3259294,-0.31917644,0.26297963,-0.14018555,-0.16142578,-0.04885254,91.0
592,1.3259294,-0.31917644,0.26297963,0.045666505,-0.19434814,-0.087084964,91.0
593,1.6440444,-0.23218441,0.19574746,0.045666505,-0.19434814,-0.087084964,91.0
594,1.6440444,-0.23218441,0.19574746,0.11469727,-0.19222413,-0.124255374,91.0
595,1.6917003,-0.09534216,0.061016917,0.11469727,-0.19222413,-0.124255374,91.0
596,1.6917003,-0.09534216,0.061016917,0.0361084,-0.18479005,-0.13806152,91.0
597,1.5340977,-0.037272215,-0.086550236,0.0361084,-0.18479005,-0.13806152,91.0
598,1.5340977,-0.037272215,-0.086550236,-0.04248047,-0.19116211,-0.16354981,91.0
599,1.2741287,-0.13660479,-0.15223579,-0.04248047,-0.19116211,-0.16354981,91.0
600,1.2741287,-0.13660479,-0.15223579,-0.09770508,-0.20496826,-0.13168946,91.0
601,0.73642945,-0.23888588,-0.14953522,-0.09770508,-0.20496826,-0.13168946,91.0
602,0.73642945,-0.23888588,-0.14953522,-0.124255374,-0.27718505,-0.08496094,91.0
603,0.19095027,-0.31337452,-0.15578541,-0.124255374,-0.27718505,-0.08496094,91.0
604,0.19095027,-0.31337452,-0.15578541,-0.04991455,-0.3451538,-0.029736329,91.0
605,-0.14437115,-0.40123677,-0.14633243,-0.04991455,-0.3451538,-0.029736329,91.0
606,-0.14437115,-0.40123677,-0.14633243,0.17841797,-0.3727661,0.11363526,91.0
607,-0.62372446,-0.35764694,-0.06344046,0.17841797,-0.3727661,0.11363526,91.0
608,-0.62372446,-0.35764694,-0.06344046,0.5033936,-0.40462646,0.33134767,91.0
609,-1.1637013,-0.1344328,0.040360913,0.5033936,-0.40462646,0.33134767,91.0
610,-1.1637013,-0.1344328,0.040360913,0.86341554,-0.4428589,0.57242435,91.0
611,-1.0961099,0.048117876,0.08519401,0.86341554,-0.4428589,0.57242435,91.0
612,-1.0961099,0.048117876,0.08519401,1.3455689,-0.4885254,0.815625,91.0
613,-0.2342732,0.23283029,0.058121026,1.3455689,-0.4885254,0.815625,91.0
614,-0.2342732,0.23283029,0.058121026,1.6939087,-0.48215333,1.0482056,91.0
615,0.8982016,0.6135225,-0.064489506,1.6939087,-0.48215333,1.0482056,91.0
616,0.8982016,0.6135225,-0.064489506,1.7969239,-0.39506838,1.2776002,91.0
617,1.5292058,1.1473122,-0.23307355,1.7969239,-0.39506838,1.2776002,91.0
618,1.5292058,1.1473122,-0.23307355,1.5993897,-0.26975098,1.4825684,91.0
619,1.2356327,1.7504671,-0.30605114,1.5993897,-0.26975098,1.4825684,91.0
620,1.2356327,1.7504671,-0.30605114,1.2627319,-0.16673584,1.6386842,91.0
621,0.38118196,2.1286573,-0.22053671,1.2627319,-0.16673584,1.6386842,91.0
622,0.38118196,2.1286573,-0.22053671,0.72641605,-0.093457036,1.8818848,91.0
623,-0.41404855,2.1188073,0.010399245,0.72641605,-0.093457036,1.8818848,91.0
624,-0.41404855,2.1188073,0.010399245,0.4248047,-0.12000733,1.9254273,91.0
625,-0.86090195,1.880312,0.25200838,0.4248047,-0.12000733,1.9254273,91.0
626,-0.86090195,1.880312,0.25200838,0.121069334,-0.098767094,2.0411866,91.0
627,-0.9402841,1.4791275,0.30102077,0.121069334,-0.098767094,2.0411866,91.0
628,-0.9402841,1.4791275,0.30102077,0.12850343,-0.10301514,2.0560548,91.0
629,-0.7287165,1.0702405,0.17797482,0.12850343,-0.10301514,2.0560548,91.0
630,-0.7287165,1.0702405,0.17797482,0.3355957,-0.07434082,2.0061402,91.0
631,-0.43272907,0.8937657,-0.012661651,0.3355957,-0.07434082,2.0061402,91.0
632,-0.43272907,0.8937657,-0.012661651,0.6446411,-0.07434082,1.8818848,91.0
633,-0.22847086,1.0233134,-0.1600927,0.6446411,-0.07434082,1.8818848,91.0
634,-0.22847086,1.0233134,-0.1600927,0.8219971,-0.0361084,1.7024049,91.0
635,-0.12180257,1.2411239,-0.20594281,0.8219971,-0.0361084,1.7024049,91.0
636,-0.12180257,1.2411239,-0.20594281,0.8889038,0.039294433,1.4868164,91.0
637,-0.12180257,1.2411239,-0.20594281,0.8889038,0.039294433,1.4868164,90.0
638,-0.10559636,1.3600256,-0.17770591,0.8889038,0.039294433,1.4868164,90.0
639,-0.10559636,1.3600256,-0.17770591,0.8464233,0.10620117,1.2499878,90.0
640,-0.17862992,1.381856,-0.13228925,0.8464233,0.10620117,1.2499878,90.0
641,-0.17862992,1.381856,-0.13228925,0.6510132,0.19328614,1.0237793,90.0
642,-0.35769886,1.3437783,-0.13168588,0.6510132,0.19328614,1.0237793,90.0
643,-0.35769886,1.3437783,-0.13168588,0.40037844,0.2548828,0.81987303,90.0
644,-0.5948139,1.2777569,-0.19571736,0.40037844,0.2548828,0.81987303,90.0
645,-0.5948139,1.2777569,-0.19571736,0.15611573,0.28780517,0.63614506,90.0
646,-0.7438077,1.1349863,-0.28837323,0.15611573,0.28780517,0.63614506,90.0
647,-0.7438077,1.1349863,-0.28837323,-0.03186035,0.29736328,0.47365722,90.0
648,-0.6928855,0.8453181,-0.35997105,-0.03186035,0.29736328,0.47365722,90.0
649,-0.6928855,0.8453181,-0.35997105,-0.098767094,0.2824951,0.31329346,90.0
650,-0.4994012,0.4608004,-0.33121413,-0.098767094,0.2824951,0.31329346,90.0
651,-0.4994012,0.4608004,-0.33121413,-0.045666505,0.24957275,0.1359375,90.0
652,-0.26690376,0.114087105,-0.2000421,-0.045666505,0.24957275,0.1359375,90.0
653,-0.26690376,0.114087105,-0.2000421,0.1274414,0.19116211,-0.06159668,90.0
654,0.15724117,-0.112404585,-0.084923804,0.1274414,0.19116211,-0.06159668,90.0
655,0.15724117,-0.112404585,-0.084923804,0.36427003,0.14549561,-0.35789797,90.0
656,0.86605173,-0.1664617,-0.12049031,0.36427003,0.14549561,-0.35789797,90.0
657,0.86605173,-0.1664617,-0.12049031,0.4959595,0.1359375,-0.632959,90.0
658,1.4155099,-0.22975135,-0.45990545,0.4959595,0.1359375,-0.632959,90.0
659,1.4155099,-0.22975135,-0.45990545,0.5894165,0.06265869,-0.8772217,90.0
660,1.4433577,-0.6746335,-1.2129316,0.5894165,0.06265869,-0.8772217,90.0
661,1.4433577,-0.6746335,-1.2129316,0.93775636,-0.06159668,-1.2329956,90.0
662,1.1149888,-1.1506687,-1.9656091,0.93775636,-0.06159668,-1.2329956,90.0
663,1.1149888,-1.1506687,-1.9656091,1.5951416,-0.29205322,-1.6248779,90.0
664,0.9851674,-0.9430326,-1.4333271,1.5951416,-0.29205322,-1.6248779,90.0
665,0.9851674,-0.9430326,-1.4333271,2.0645509,-0.06903076,-1.9233032,90.0
666,1.5399528,-0.39937234,1.4393492,2.0645509,-0.06903076,-1.9233032,90.0
667,1.5399528,-0.39937234,1.4393492,2.0241945,-0.23258057,-1.9148072,90.0
668,1.972575,0.43103933,4.5510397,2.0241945,-0.23258057,-1.9148072,90.0
669,1.972575,0.43103933,4.5510397,-1.2117554,-0.33665773,-2.092163,90.0
670,1.6624227,0.22154045,3.6640131,-1.2117554,-0.33665773,-2.092163,90.0
671,1.6624227,0.22154045,3.6640131,-2.6603394,-0.1178833,-2.0295045,90.0
672,0.5571232,-1.8598161,0.36342484,-2.6603394,-0.1178833,-2.0295045,90.0
673,0.5571232,-1.8598161,0.36342484,-1.4443359,-0.4088745,-1.9158691,90.0
674,-0.9109788,-3.2660146,-1.0829418,-1.4443359,-0.4088745,-1.9158691,90.0
675,-0.9109788,-3.2660146,-1.0829418,0.26975098,-0.5235718,-1.7289551,90.0
676,-2.06881,-2.8083928,-0.529769,0.26975098,-0.5235718,-1.7289551,90.0
677,-2.06881,-2.8083928,-0.529769,1.3806152,-0.5129517,-1.2754761,90.0
678,-2.4815373,-1.4188333,0.4230476,1.3806152,-0.5129517,-1.2754761,90.0
679,-2.4815373,-1.4188333,0.4230476,1.351941,-0.46516114,-0.814563,90.0
680,-1.7533939,-0.3633259,0.7090802,1.351941,-0.46516114,-0.814563,90.0
681,-1.7533939,-0.3633259,0.7090802,0.5649902,-0.2548828,-0.5235718,90.0
682,-0.5790945,-0.06473297,0.25154155,0.5649902,-0.2548828,-0.5235718,90.0
683,-0.5790945,-0.06473297,0.25154155,-0.15717773,-0.09239502,-0.4800293,90.0
684,0.20890456,-0.0046305656,-0.29392058,-0.15717773,-0.09239502,-0.4800293,90.0
685,0.20890456,-0.0046305656,-0.29392058,-0.9451904,0.07540283,-0.48321533,90.0
686,0.38965786,-0.111993015,-0.45524144,-0.9451904,0.07540283,-0.48321533,90.0
687,0.38965786,-0.111993015,-0.45524144,-1.3232666,0.14655761,-0.49277344,90.0
688,0.017927468,-0.30712378,-0.42369023,-1.3232666,0.14655761,-0.49277344,90.0
689,0.017927468,-0.30712378,-0.42369023,-1.722583,0.1444336,-0.48640138,90.0
690,-0.6459974,-0.30630696,-0.6125728,-1.722583,0.1444336,-0.48640138,90.0
691,-0.6459974,-0.30630696,-0.6125728,-2.1357057,0.14018555,-0.41524658,90.0
692,-1.1888438,-0.23635411,-0.7083444,-2.1357057,0.14018555,-0.41524658,90.0
693,-1.1888438,-0.23635411,-0.7083444,-2.1325195,0.16567384,-0.3175415,90.0
694,-1.3576669,-0.2085414,-0.24282297,-2.1325195,0.16567384,-0.3175415,90.0
695,-1.3576669,-0.2085414,-0.24282297,-2.095349,0.13487549,-0.26337892,90.0
696,-1.3278327,-0.074572325,0.07320988,-2.095349,0.13487549,-0.26337892,90.0
697,-1.3278327,-0.074572325,0.07320988,-1.8702027,0.098767094,-0.2347046,90.0
698,-1.3365705,-0.05503142,-0.1818862,-1.8702027,0.098767094,-0.2347046,90.0
699,-1.3365705,-0.05503142,-0.1818862,-1.2149414,0.053100586,-0.2899292,90.0
700,-1.2898496,-0.12431073,-0.37271845,-1.2149414,0.053100586,-0.2899292,90.0
701,-1.2898496,-0.12431073,-0.37271845,-0.5968506,-0.023364259,-0.35789797,90.0
702,-1.0246043,0.010133982,-0.20538911,-0.5968506,-0.023364259,-0.35789797,90.0
703,-1.0246043,0.010133982,-0.20538911,-0.38444826,-0.0637207,-0.38232422,90.0
704,-0.6935849,0.18654954,0.018513411,-0.38444826,-0.0637207,-0.38232422,90.0
705,-0.6935849,0.18654954,0.018513411,-0.40462646,-0.081774905,-0.37382814,90.0
706,-0.5244236,0.19363654,0.13166864,-0.40462646,-0.081774905,-0.37382814,90.0
707,-0.5244236,0.19363654,0.13166864,-0.46834716,-0.12000733,-0.34940186,90.0
708,-0.47675323,0.082179785,0.23616987,-0.46834716,-0.12000733,-0.34940186,90.0
709,-0.47675323,0.082179785,0.23616987,-0.4980835,-0.15505372,-0.32072756,90.0
710,-0.41192007,-0.068094015,0.35828406,-0.4980835,-0.15505372,-0.32072756,90.0
711,-0.41192007,-0.068094015,0.35828406,-0.3706421,-0.20390625,-0.31010744,90.0
712,-0.24556398,-0.2455641,0.44287723,-0.3706421,-0.20390625,-0.31010744,90.0
713,-0.24556398,-0.2455641,0.44287723,-0.19116211,-0.2442627,-0.31329346,90.0
714,0.116024494,-0.39994252,0.5072681,-0.19116211,-0.2442627,-0.31329346,90.0
715,0.116024494,-0.39994252,0.5072681,0.033984374,-0.3090454,-0.3451538,90.0
716,0.34780002,-0.44803023,0.5084634,0.033984374,-0.3090454,-0.3451538,90.0
717,0.34780002,-0.44803023,0.5084634,0.1359375,-0.3154175,-0.3525879,90.0
718,1.3294973,-0.6572523,0.5846394,0.1359375,-0.3154175,-0.3525879,90.0
719,1.3294973,-0.6572523,0.5846394,0.34090576,-0.33028564,-0.4056885,90.0
720,1.433532,-0.67780375,0.5224845,0.34090576,-0.33028564,-0.4056885,90.0
721,1.433532,-0.67780375,0.5224845,0.35577393,-0.32816163,-0.41099855,90.0
722,2.3602533,-0.9246161,0.3931219,0.35577393,-0.32816163,-0.41099855,90.0
723,2.3602533,-0.9246161,0.3931219,0.20390625,-0.31010744,-0.4258667,90.0
724,2.2221627,-0.909163,0.28854537,0.20390625,-0.31010744,-0.4258667,90.0
725,2.2221627,-0.909163,0.28854537,0.08602295,-0.2888672,-0.40250245,90.0
726,2.3509846,-1.093334,0.018214226,0.08602295,-0.2888672,-0.40250245,90.0
727,2.3509846,-1.093334,0.018214226,-0.11469727,-0.3079834,-0.3164795,90.0
728,1.9647477,-1.0485687,-0.0066688657,-0.11469727,-0.3079834,-0.3164795,90.0
729,1.9647477,-1.0485687,-0.0066688657,-0.10301514,-0.2984253,-0.2984253,90.0
730,1.3018274,-1.2511597,-0.08710998,-0.10301514,-0.2984253,-0.2984253,90.0
731,1.3018274,-1.2511597,-0.08710998,0.12956543,-0.27506104,-0.16354981,90.0
732,0.7995919,-1.1321657,-0.058042526,0.12956543,-0.27506104,-0.16354981,90.0
733,0.7995919,-1.1321657,-0.058042526,0.30054933,-0.27612305,-0.12000733,90.0
734,-0.47842944,-0.9212842,-0.10682219,0.30054933,-0.27612305,-0.12000733,90.0
735,-0.47842944,-0.9212842,-0.10682219,0.5979126,-0.16673584,0.21983643,90.0
736,-0.9527631,-0.5812044,-0.09164673,0.5979126,-0.16673584,0.21983643,90.0
737,-0.9527631,-0.5812044,-0.09164673,0.635083,-0.14655761,0.38657227,90.0
738,-1.8615147,-0.12903833,-0.08728224,0.635083,-0.14655761,0.38657227,90.0
739,-1.8615147,-0.12903833,-0.08728224,1.1108643,-0.1083252,0.81243896,90.0
740,-1.3032866,0.070683,-0.071388245,1.1108643,-0.1083252,0.81243896,90.0
741,-1.3032866,0.070683,-0.071388245,1.2829102,-0.07646485,0.93563235,90.0
742,-1.3032866,0.070683,-0.071388245,1.2829102,-0.07646485,0.93563235,88.0
743,0.764988,0.5473912,-0.31941527,1.2829102,-0.07646485,0.93563235,88.0
744,0.764988,0.5473912,-0.31941527,1.0906861,0.115759276,1.3795532,88.0
745,1.2452791,0.8507669,-0.4638574,1.0906861,0.115759276,1.3795532,88.0
746,1.2452791,0.8507669,-0.4638574,0.7720825,0.16992188,1.5473511,88.0
747,1.3967359,1.5742049,-0.7685469,0.7720825,0.16992188,1.5473511,88.0
748,1.3967359,1.5742049,-0.7685469,-0.35789797,0.24213867,2.086853,88.0
749,0.9203428,1.716444,-0.6797667,-0.35789797,0.24213867,2.086853,88.0
750,0.9203428,1.716444,-0.6797667,-0.5363159,0.23151855,2.247217,88.0
751,0.22008765,1.7842269,-0.46822745,-0.5363159,0.23151855,2.247217,88.0
752,0.22008765,1.7842269,-0.46822745,-0.44073486,0.16248779,2.4638672,88.0
753,0.1089803,1.847401,-0.117892504,-0.44073486,0.16248779,2.4638672,88.0
754,0.1089803,1.847401,-0.117892504,-0.23682861,0.15823975,2.5583863,88.0
755,0.61115885,1.8201206,0.06943112,-0.23682861,0.15823975,2.5583863,88.0
756,0.61115885,1.8201206,0.06943112,0.093457036,0.14655761,2.6327271,88.0
757,1.161156,1.722454,-0.0076386984,0.093457036,0.14655761,2.6327271,88.0
758,1.161156,1.722454,-0.0076386984,0.55755615,0.14337158,2.447937,88.0
759,1.0405948,1.9087126,-0.21315442,0.55755615,0.14337158,2.447937,88.0
760,1.0405948,1.9087126,-0.21315442,0.85704345,0.19222413,2.1495118,88.0
761,0.68534446,1.9111133,-0.29779404,0.85704345,0.19222413,2.1495118,88.0
762,0.68534446,1.9111133,-0.29779404,0.88040775,0.21346436,2.0210083,88.0
763,-0.20786452,2.035812,-0.3544828,0.88040775,0.21346436,2.0210083,88.0
764,-0.20786452,2.035812,-0.3544828,0.7508423,0.21452637,1.7395753,88.0
765,-1.0826979,2.0799801,-0.31204084,0.7508423,0.21452637,1.7395753,88.0
766,-1.0826979,2.0799801,-0.31204084,0.48640138,0.23364258,1.4698242,88.0
767,-1.7342857,2.0602,-0.18975717,0.48640138,0.23364258,1.4698242,88.0
768,-1.7342857,2.0602,-0.18975717,0.2177124,0.22302246,1.2128174,88.0
769,-2.1098409,1.937015,-0.11020416,0.2177124,0.22302246,1.2128174,88.0
770,-2.1098409,1.937015,-0.11020416,0.11257324,0.21877442,0.9568726,88.0
771,-2.1996646,1.7098415,-0.14420581,0.11257324,0.21877442,0.9568726,88.0
772,-2.1996646,1.7098415,-0.14420581,0.18797608,0.2262085,0.71367186,88.0
773,-2.0962186,1.3892722,-0.2279501,0.18797608,0.2262085,0.71367186,88.0
774,-2.0962186,1.3892722,-0.2279501,0.24532472,0.24744873,0.47471926,88.0
775,-1.8503269,1.1020184,-0.3000847,0.24532472,0.24744873,0.47471926,88.0
776,-1.8503269,1.1020184,-0.3000847,0.27399904,0.27399904,0.23151855,88.0
777,-1.4966311,0.8793931,-0.2888959,0.27399904,0.27399904,0.23151855,88.0
778,-1.4966311,0.8793931,-0.2888959,0.16779785,0.32497558,0.04248047,88.0
779,-0.9869778,0.66685677,-0.18606055,0.16779785,0.32497558,0.04248047,88.0
780,-0.9869778,0.66685677,-0.18606055,-0.004248047,0.36745605,-0.16885987,88.0
781,-0.264863,0.33393717,-0.07570392,-0.004248047,0.36745605,-0.16885987,88.0
782,-0.264863,0.33393717,-0.07570392,-0.16673584,0.44923097,-0.37595215,88.0
783,0.6572746,-0.09354353,-0.04076338,-0.16673584,0.44923097,-0.37595215,88.0
784,0.6572746,-0.09354353,-0.04076338,-0.26762697,0.47471926,-0.6605713,88.0
785,1.5882099,-0.39799142,-0.108196616,-0.26762697,0.47471926,-0.6605713,88.0
786,1.5882099,-0.39799142,-0.108196616,-0.5511841,0.51932377,-0.95368654,88.0
787,2.2704825,-0.6118622,-0.14715302,-0.5511841,0.51932377,-0.95368654,88.0
788,2.2704825,-0.6118622,-0.14715302,-0.8442993,0.56180423,-1.2351197,88.0
789,2.5681806,-0.78873277,-0.062375724,-0.8442993,0.56180423,-1.2351197,88.0
790,2.5681806,-0.78873277,-0.062375724,-1.1459106,0.58623046,-1.5006226,88.0
791,2.365604,-0.85480213,-0.01841867,-1.1459106,0.58623046,-1.5006226,88.0
792,2.365604,-0.85480213,-0.01841867,-1.4167236,0.6510132,-1.6758546,88.0
793,1.6225613,-0.9501748,0.008861303,-1.4167236,0.6510132,-1.6758546,88.0
794,1.6225613,-0.9501748,0.008861303,-1.538855,0.65207523,-1.8171021,88.0
795,0.81214833,-1.0800741,0.105929375,-1.538855,0.65207523,-1.8171021,88.0
796,0.81214833,-1.0800741,0.105929375,-1.5962037,0.6690674,-1.9615357,88.0
797,0.40446723,-1.2192719,0.16100085,-1.5962037,0.6690674,-1.9615357,88.0
798,0.40446723,-1.2192719,0.16100085,-1.5696534,0.7062378,-2.083667,88.0
799,0.40132046,-1.3964869,0.07722598,-1.5696534,0.7062378,-2.083667,88.0
800,0.40132046,-1.3964869,0.07722598,-1.6153198,0.7338501,-2.2132325,88.0
801,0.6590936,-1.564089,-0.1230703,-1.6153198,0.7338501,-2.2132325,88.0
802,0.6590936,-1.564089,-0.1230703,-1.812854,0.71579593,-2.3258057,88.0
803,0.74491405,-1.6001604,-0.41480148,-1.812854,0.71579593,-2.3258057,88.0
804,0.74491405,-1.6001604,-0.41480148,-2.2408447,0.70942384,-2.3130615,88.0
805,0.11523056,-1.6144301,-0.48341584,-2.2408447,0.70942384,-2.3130615,88.0
806,0.11523056,-1.6144301,-0.48341584,-2.5785644,0.6966797,-2.1951783,88.0
807,-0.711673,-1.8736119,-0.05843675,-2.5785644,0.6966797,-2.1951783,88.0
808,-0.711673,-1.8736119,-0.05843675,-2.5976808,0.5968506,-1.9668458,88.0
809,-0.69292235,-2.2083623,0.41610456,-2.5976808,0.5968506,-1.9668458,88.0
810,-0.69292235,-2.2083623,0.41610456,-2.2174804,0.5766724,-1.6439942,88.0
811,-0.048966885,-2.3030791,0.36624545,-2.2174804,0.5766724,-1.6439942,88.0
812,-0.048966885,-2.3030791,0.36624545,-1.6365601,0.6287109,-1.2404298,88.0
813,0.25226927,-2.0996165,-0.023104727,-1.6365601,0.6287109,-1.2404298,88.0
814,0.25226927,-2.0996165,-0.023104727,-1.1034302,0.60322267,-0.8612915,88.0
815,-0.072732925,-1.5548519,-0.17951894,-1.1034302,0.60322267,-0.8612915,88.0
816,-0.072732925,-1.5548519,-0.17951894,-0.9239502,0.5235718,-0.5628662,88.0
817,-0.7244706,-0.74201393,0.011963427,-0.9239502,0.5235718,-0.5628662,88.0
818,-0.7244706,-0.74201393,0.011963427,-1.0736939,0.5161377,-0.3090454,88.0
819,-1.5019886,-0.065595865,0.22856486,-1.0736939,0.5161377,-0.3090454,88.0
820,-1.5019886,-0.065595865,0.22856486,-1.2329956,0.5501221,-0.13699952,88.0
821,-2.2931192,0.26793337,0.23529327,-1.2329956,0.5501221,-0.13699952,88.0
822,-2.2931192,0.26793337,0.23529327,-1.3391968,0.5979126,0.0021240234,88.0
823,-2.9013777,0.3627354,0.025844514,-1.3391968,0.5979126,0.0021240234,88.0
824,-2.9013777,0.3627354,0.025844514,-1.3954834,0.62127686,0.095581055,88.0
825,-3.0485682,0.35700965,-0.29454654,-1.3954834,0.62127686,0.095581055,88.0
826,-3.0485682,0.35700965,-0.29454654,-1.3689331,0.62127686,0.1178833,88.0
827,-2.6660275,0.35167217,-0.5650196,-1.3689331,0.62127686,0.1178833,88.0
828,-2.6660275,0.35167217,-0.5650196,-1.363623,0.5894165,0.06478272,88.0
829,-1.9427707,0.37102282,-0.6583512,-1.363623,0.5894165,0.06478272,88.0
830,-1.9427707,0.37102282,-0.6583512,-1.4177856,0.5564942,-0.03079834,88.0
831,-1.1525197,0.3624555,-0.59543097,-1.4177856,0.5564942,-0.03079834,88.0
832,-1.1525197,0.3624555,-0.59543097,-1.4889405,0.5033936,-0.16992188,88.0
833,-0.50933266,0.2810533,-0.45782673,-1.4889405,0.5033936,-0.16992188,88.0
834,-0.50933266,0.2810533,-0.45782673,-1.540979,0.45454103,-0.32922363,88.0
835,-0.1029129,0.10859513,-0.2966447,-1.540979,0.45454103,-0.32922363,88.0
836,-0.1029129,0.10859513,-0.2966447,-1.5282348,0.39188233,-0.48427734,88.0
837,0.09550166,-0.12313366,-0.15513802,-1.5282348,0.39188233,-0.48427734,88.0
838,0.09550166,-0.12313366,-0.15513802,-1.4273437,0.33028564,-0.6287109,88.0
839,0.18201661,-0.3639977,-0.054359436,-1.4273437,0.33028564,-0.6287109,88.0
840,0.18201661,-0.3639977,-0.054359436,-1.2552979,0.24851075,-0.75509036,88.0
841,0.20318174,-0.6179805,0.017840624,-1.2552979,0.24851075,-0.75509036,88.0
842,0.20318174,-0.6179805,0.017840624,-0.9897949,0.14655761,-0.8485474,88.0
843,0.22243309,-0.87629354,0.09769535,-0.9897949,0.14655761,-0.8485474,88.0
844,0.22243309,-0.87629354,0.09769535,-0.62764895,0.021240234,-0.93350834,88.0
845,0.22243309,-0.87629354,0.09769535,-0.62764895,0.021240234,-0.93350834,88.0
846,0.303154,-1.1054294,0.229316,-0.62764895,0.021240234,-0.93350834,88.0
847,0.303154,-1.1054294,0.229316,-0.19647217,-0.10089111,-0.98873293,88.0
848,0.4960022,-1.3028738,0.36279845,-0.19647217,-0.10089111,-0.98873293,88.0
849,0.4960022,-1.3028738,0.36279845,0.3345337,-0.22196046,-1.0227174,88.0
850,0.8681519,-1.4969256,0.41779006,0.3345337,-0.22196046,-1.0227174,88.0
851,0.8681519,-1.4969256,0.41779006,0.92076415,-0.3334717,-1.0418335,88.0
852,1.4173853,-1.6796083,0.3589635,0.92076415,-0.3334717,-1.0418335,88.0
853,1.4173853,-1.6796083,0.3589635,1.447522,-0.39188233,-0.996167,88.0
854,1.7632296,-1.709446,0.23193395,1.447522,-0.39188233,-0.996167,88.0
855,1.7632296,-1.709446,0.23193395,1.7278931,-0.3971924,-0.84323734,88.0
856,1.5214357,-1.4748077,0.04156524,1.7278931,-0.3971924,-0.84323734,88.0
857,1.5214357,-1.4748077,0.04156524,1.7140869,-0.4598511,-0.5766724,88.0
858,1.2165627,-1.1341553,-0.14675272,1.7140869,-0.4598511,-0.5766724,88.0
859,1.2165627,-1.1341553,-0.14675272,1.5908936,-0.5543701,-0.3164795,88.0
860,1.1871662,-0.8427491,-0.15631819,1.5908936,-0.5543701,-0.3164795,88.0
861,1.1871662,-0.8427491,-0.15631819,1.3806152,-0.5809204,-0.06584473,88.0
862,1.0427383,-0.69371843,0.021161318,1.3806152,-0.5809204,-0.06584473,88.0
863,1.0427383,-0.69371843,0.021161318,1.2977784,-0.68499756,0.13699952,88.0
864,0.79593384,-0.7779608,0.2156229,1.2977784,-0.68499756,0.13699952,88.0
865,0.79593384,-0.7779608,0.2156229,1.5101807,-0.6796875,0.29523927,88.0
866,0.3075235,-0.83909225,0.32784504,1.5101807,-0.6796875,0.29523927,88.0
867,0.3075235,-0.83909225,0.32784504,2.0252564,-0.67650145,0.50020754,88.0
868,-0.30135667,-0.6459198,0.27165103,2.0252564,-0.67650145,0.50020754,88.0
869,-0.30135667,-0.6459198,0.27165103,2.6624634,-0.724292,0.7306641,88.0
870,-0.21601212,-0.40632343,0.03738916,2.6624634,-0.724292,0.7306641,88.0
871,-0.21601212,-0.40632343,0.03738916,3.3878174,-0.72004396,0.96218264,88.0
872,0.5681815,-0.1315527,-0.1528157,3.3878174,-0.72004396,0.96218264,88.0
873,0.5681815,-0.1315527,-0.1528157,3.9581177,-0.68499756,1.2064453,88.0
874,1.4392254,0.3266673,-0.21320713,3.9581177,-0.68499756,1.2064453,88.0
875,1.4392254,0.3266673,-0.21320713,4.3022094,-0.5957886,1.4613281,88.0
876,2.0949106,0.9220028,-0.26490164,4.3022094,-0.5957886,1.4613281,88.0
877,2.0949106,0.9220028,-0.26490164,4.3563724,-0.44604492,1.6970948,88.0
878,2.3328986,1.5613327,-0.3421948,4.3563724,-0.44604492,1.6970948,88.0
879,2.3328986,1.5613327,-0.3421948,4.050513,-0.22939454,1.9233032,88.0
880,2.0714946,2.144452,-0.42321873,4.050513,-0.22939454,1.9233032,88.0
881,2.0714946,2.144452,-0.42321873,3.451538,-0.02442627,2.1335816,88.0
882,1.3789485,2.574656,-0.46502757,3.451538,-0.02442627,2.1335816,88.0
883,1.3789485,2.574656,-0.46502757,2.6582153,0.1529297,2.3119996,88.0
884,0.44685984,2.8015583,-0.4357915,2.6582153,0.1529297,2.3119996,88.0
885,0.44685984,2.8015583,-0.4357915,1.8171021,0.26019287,2.4744873,88.0
886,-0.40000725,2.7551994,-0.406641,1.8171021,0.26019287,2.4744873,88.0
887,-0.40000725,2.7551994,-0.406641,1.2160034,0.32816163,2.5796266,88.0
888,-0.9514878,2.5450897,-0.48693383,1.2160034,0.32816163,2.5796266,88.0
889,-0.9514878,2.5450897,-0.48693383,0.8219971,0.33028564,2.6380372,88.0
890,-1.2403407,2.3747191,-0.634652,0.8219971,0.33028564,2.6380372,88.0
891,-1.2403407,2.3747191,-0.634652,0.6531372,0.3345337,2.6635253,88.0
892,-1.3587523,2.2196362,-0.74643016,0.6531372,0.3345337,2.6635253,88.0
893,-1.3587523,2.2196362,-0.74643016,0.6988037,0.31223145,2.623169,88.0
894,-1.3663841,2.0569835,-0.7675421,0.6988037,0.31223145,2.623169,88.0
895,-1.3663841,2.0569835,-0.7675421,0.81987303,0.28674316,2.524402,88.0
896,-1.2976362,1.9019954,-0.74501514,0.81987303,0.28674316,2.524402,88.0
897,-1.2976362,1.9019954,-0.74501514,0.9589966,0.24532472,2.3640382,88.0
898,-1.1780992,1.7840232,-0.7538247,0.9589966,0.24532472,2.3640382,88.0
899,-1.1780992,1.7840232,-0.7538247,1.081128,0.22302246,2.173938,88.0
900,-1.0358387,1.6822845,-0.7945149,1.081128,0.22302246,2.173938,88.0
901,-1.0358387,1.6822845,-0.7945149,1.179895,0.19647217,1.9519776,88.0
902,-0.8776944,1.5750878,-0.844059,1.179895,0.19647217,1.9519776,88.0
903,-0.8776944,1.5750878,-0.844059,1.2117554,0.17629395,1.7045288,88.0
904,-0.6848216,1.4589105,-0.8862214,1.2117554,0.17629395,1.7045288,88.0
905,-0.6848216,1.4589105,-0.8862214,1.175647,0.16036378,1.4347779,88.0
906,-0.41517907,1.3277974,-0.90697527,1.175647,0.16036378,1.4347779,88.0
907,-0.41517907,1.3277974,-0.90697527,1.0662597,0.14230958,1.1490967,88.0
908,-0.10553193,1.1598577,-0.9107852,1.0662597,0.14230958,1.1490967,88.0
909,-0.10553193,1.1598577,-0.9107852,0.89846194,0.1263794,0.85598147,88.0
910,-1.8225847,-1.6191232,3.1298313,0.89846194,0.1263794,0.85598147,88.0
911,-1.8225847,-1.6191232,3.1298313,0.6977417,0.10407715,0.54375,88.0
912,-0.9611196,-1.2983747,2.4481034,0.6977417,0.10407715,0.54375,88.0
913,-0.9611196,-1.2983747,2.4481034,0.4630371,0.070092775,0.21027832,88.0
914,-0.025109038,-1.0987705,1.955956,0.4630371,0.070092775,0.21027832,88.0
915,-0.025109038,-1.0987705,1.955956,0.15930176,0.04991455,-0.12956543,88.0
916,0.6801447,-0.97119176,1.5901066,0.15930176,0.04991455,-0.12956543,88.0
917,0.6801447,-0.97119176,1.5901066,-0.19222413,0.039294433,-0.44498292,88.0
918,0.80413777,-0.93942904,1.3579373,-0.19222413,0.039294433,-0.44498292,88.0
919,0.80413777,-0.93942904,1.3579373,-0.5256958,0.0031860352,-0.7540283,88.0
920,0.47150844,-1.0429739,1.3379856,-0.5256958,0.0031860352,-0.7540283,88.0
921,0.47150844,-1.0429739,1.3379856,-0.7678345,-0.06159668,-1.0290893,88.0
922,0.1149753,-1.2473185,1.5753446,-0.7678345,-0.06159668,-1.0290893,88.0
923,0.1149753,-1.2473185,1.5753446,-0.86978763,-0.118945315,-1.2499878,88.0
924,-0.037609577,-1.4522617,1.9796238,-0.86978763,-0.118945315,-1.2499878,88.0
925,-0.037609577,-1.4522617,1.9796238,-0.8931519,-0.17735596,-1.449646,88.0
926,0.03696555,-1.6322806,2.3390214,-0.8931519,-0.17735596,-1.449646,88.0
927,0.03696555,-1.6322806,2.3390214,-0.7890747,-0.23258057,-1.6684204,88.0
928,0.23843473,-1.825661,2.4781752,-0.7890747,-0.23258057,-1.6684204,88.0
929,0.23843473,-1.825661,2.4781752,-0.56605226,-0.27718505,-1.8797607,88.0
930,0.18665844,-2.0166688,2.4609094,-0.56605226,-0.27718505,-1.8797607,88.0
931,0.18665844,-2.0166688,2.4609094,-0.2177124,-0.34727785,-2.0210083,88.0
932,-0.37987247,-2.1207447,2.4902973,-0.2177124,-0.34727785,-2.0210083,88.0
933,-0.37987247,-2.1207447,2.4902973,0.20496826,-0.48109132,-2.085791,88.0
934,-1.1207559,-2.1499648,2.7139907,0.20496826,-0.48109132,-2.085791,88.0
935,-1.1207559,-2.1499648,2.7139907,0.76677245,-0.65632325,-2.075171,88.0
936,-1.3757551,-2.2343762,3.180287,0.76677245,-0.65632325,-2.075171,88.0
937,-1.3757551,-2.2343762,3.180287,1.6121339,-0.8379273,-1.989148,88.0
938,-0.7628966,-2.3495739,3.840897,1.6121339,-0.8379273,-1.989148,88.0
939,-0.7628966,-2.3495739,3.840897,2.7676027,-0.9451904,-1.8022339,88.0
940,0.293296,-2.149703,4.332776,2.7676027,-0.9451904,-1.8022339,88.0
941,0.293296,-2.149703,4.332776,3.7658937,-1.0036011,-1.544165,88.0
942,0.96133363,-1.4036493,4.022642,3.7658937,-1.0036011,-1.544165,88.0
943,0.96133363,-1.4036493,4.022642,4.145032,-1.0567017,-1.2552979,88.0
944,0.9270137,-0.3297553,2.7510605,4.145032,-1.0567017,-1.2552979,88.0
945,0.9270137,-0.3297553,2.7510605,3.8243043,-1.0184692,-1.0354614,88.0
946,0.44960657,0.9097676,1.242157,3.8243043,-1.0184692,-1.0354614,88.0
947,0.44960657,0.9097676,1.242157,2.6900756,-0.905896,-0.9781128,88.0
948,-0.052900195,2.2602117,0.17547607,2.6900756,-0.905896,-0.9781128,88.0
949,-0.052900195,2.2602117,0.17547607,1.089624,-0.56180423,-0.98448485,88.0
950,-0.50666344,2.79523,-0.3011837,1.089624,-0.56180423,-0.98448485,88.0
951,-0.50666344,2.79523,-0.3011837,1.089624,-0.56180423,-0.98448485,87.0
952,-0.50666344,2.79523,-0.3011837,-0.71367186,-0.29099122,-0.92926025,87.0
953,-0.90254754,1.9513328,-0.34495068,-0.71367186,-0.29099122,-0.92926025,87.0
954,-0.90254754,1.9513328,-0.34495068,-2.0932252,-0.19328614,-0.9218262,87.0
955,-0.92017037,0.21553397,-0.5483608,-2.0932252,-0.19328614,-0.9218262,87.0
956,-0.92017037,0.21553397,-0.5483608,-2.4022706,0.046728518,-0.66481936,87.0
957,-0.71620226,-1.5723116,-1.057756,-2.4022706,0.046728518,-0.66481936,87.0
958,-0.71620226,-1.5723116,-1.057756,-1.8500245,0.10195313,-0.5692383,87.0
959,-0.5082401,-2.4181156,-1.3821421,-1.8500245,0.10195313,-0.5692383,87.0
960,-0.5082401,-2.4181156,-1.3821421,-1.5038086,0.12850343,-0.46622315,87.0
961,-0.27241236,-2.3203812,-1.2512455,-1.5038086,0.12850343,-0.46622315,87.0
962,-0.27241236,-2.3203812,-1.2512455,-1.5303589,0.19116211,-0.3993164,87.0
963,-0.09094018,-1.8958802,-0.8329668,-1.5303589,0.19116211,-0.3993164,87.0
964,-0.09094018,-1.8958802,-0.8329668,-1.6578003,0.25063476,-0.32603762,87.0
965,-0.032969475,-1.5779228,-0.5434241,-1.6578003,0.25063476,-0.32603762,87.0
966,-0.032969475,-1.5779228,-0.5434241,-1.6599244,0.27399904,-0.24957275,87.0
967,-0.10618514,-1.4381809,-0.5736551,-1.6599244,0.27399904,-0.24957275,87.0
968,-0.10618514,-1.4381809,-0.5736551,-1.5558472,0.27506104,-0.19222413,87.0
969,-0.2914545,-1.3773026,-0.757215,-1.5558472,0.27506104,-0.19222413,87.0
970,-0.2914545,-1.3773026,-0.757215,-1.3922974,0.27399904,-0.1709839,87.0
971,-0.46891797,-1.3654528,-0.8729472,-1.3922974,0.27399904,-0.1709839,87.0
972,-0.46891797,-1.3654528,-0.8729472,-1.1490967,0.24638672,-0.16567384,87.0
973,-0.5513551,-1.3223548,-0.9019952,-1.1490967,0.24638672,-0.16567384,87.0
974,-0.5513551,-1.3223548,-0.9019952,-0.7975708,0.18691407,-0.14230958,87.0
975,-0.46902597,-1.1587138,-0.9181051,-0.7975708,0.18691407,-0.14230958,87.0
976,-0.46902597,-1.1587138,-0.9181051,-0.35471192,0.10407715,-0.1178833,87.0
977,-0.13659763,-0.9310603,-0.9556513,-0.35471192,0.10407715,-0.1178833,87.0
978,-0.13659763,-0.9310603,-0.9556513,0.16036378,0.038232423,-0.09770508,87.0
979,0.39892507,-0.7366333,-0.9858589,0.16036378,0.038232423,-0.09770508,87.0
980,0.39892507,-0.7366333,-0.9858589,0.6467652,-0.012744141,-0.07434082,87.0
981,0.8817866,-0.5416012,-0.96284485,0.6467652,-0.012744141,-0.07434082,87.0
982,0.8817866,-0.5416012,-0.96284485,0.95581055,-0.0637207,-0.039294433,87.0
983,1.1530856,-0.2651291,-0.92734385,0.95581055,-0.0637207,-0.039294433,87.0
984,1.1530856,-0.2651291,-0.92734385,1.0046631,-0.10195313,0.0180542,87.0
985,1.2405715,0.06447172,-0.9599538,1.0046631,-0.10195313,0.0180542,87.0
986,1.2405715,0.06447172,-0.9599538,0.84323734,-0.17416993,0.07752686,87.0
987,1.2942638,0.25497103,-1.0638003,0.84323734,-0.17416993,0.07752686,87.0
988,1.2942638,0.25497103,-1.0638003,0.66481936,-0.27399904,0.121069334,87.0
989,1.4229722,0.19728756,-1.0749784,0.66481936,-0.27399904,0.121069334,87.0
990,1.4229722,0.19728756,-1.0749784,0.5607422,-0.41737062,0.15505372,87.0
991,1.4988759,0.013286591,-0.92328835,0.5607422,-0.41737062,0.15505372,87.0
992,1.4988759,0.013286591,-0.92328835,0.48321533,-0.5671143,0.17735596,87.0
993,1.5390543,-0.20477581,-0.6794753,0.48321533,-0.5671143,0.17735596,87.0
994,1.5390543,-0.20477581,-0.6794753,0.5692383,-0.68712157,0.2262085,87.0
995,1.4591243,-0.38081312,-0.3678968,0.5692383,-0.68712157,0.2262085,87.0
996,1.4591243,-0.38081312,-0.3678968,0.9165161,-0.7349121,0.3430298,87.0
997,0.699697,-0.16534424,-0.03518653,0.9165161,-0.7349121,0.3430298,87.0
998,0.699697,-0.16534424,-0.03518653,1.2829102,-0.82730716,0.541626,87.0
999,-0.6978595,0.5558348,0.1232059,1.2829102,-0.82730716,0.541626,87.0
1000,-0.6978595,0.5558348,0.1232059,1.544165,-0.98129886,0.79969484,87.0
1001,-1.541857,1.216958,0.042742014,1.544165,-0.98129886,0.79969484,87.0
1002,-1.541857,1.216958,0.042742014,2.0156982,-1.174585,1.0259033,87.0
1003,-1.1440082,1.4607248,-0.10572338,2.0156982,-1.174585,1.0259033,87.0
1004,-1.1440082,1.4607248,-0.10572338,2.5998046,-1.3264526,1.1671509,87.0
1005,-0.074691355,1.5297494,-0.15188837,2.5998046,-1.3264526,1.1671509,87.0
1006,-0.074691355,1.5297494,-0.15188837,3.1000123,-1.3965454,1.269104,87.0
1007,0.9411136,1.6761923,-0.10881543,3.1000123,-1.3965454,1.269104,87.0
1008,0.9411136,1.6761923,-0.10881543,3.4026856,-1.4220337,1.3211426,87.0
1009,1.6346414,1.9851675,-0.054422855,3.4026856,-1.4220337,1.3211426,87.0
1010,1.6346414,1.9851675,-0.054422855,3.352771,-1.3710572,1.3816773,87.0
1011,1.9050642,2.3382564,0.041373968,3.352771,-1.3710572,1.3816773,87.0
1012,1.9050642,2.3382564,0.041373968,3.059656,-1.2871583,1.4145997,87.0
1013,1.7042882,2.5715327,0.26644874,3.059656,-1.2871583,1.4145997,87.0
1014,1.7042882,2.5715327,0.26644874,2.618921,-1.1894531,1.4592041,87.0
1015,1.1301298,2.6131465,0.6032469,2.618921,-1.1894531,1.4592041,87.0
1016,1.1301298,2.6131465,0.6032469,2.1272094,-1.1034302,1.5208008,87.0
1017,0.44968486,2.461843,0.86221194,2.1272094,-1.1034302,1.5208008,87.0
1018,0.44968486,2.461843,0.86221194,1.7374512,-1.0322754,1.5739014,87.0
1019,-0.06408024,2.1783366,0.87152004,1.7374512,-1.0322754,1.5739014,87.0
1020,-0.06408024,2.1783366,0.87152004,1.5866455,-0.9600586,1.6100098,87.0
1021,-0.35296106,1.919122,0.64652014,1.5866455,-0.9600586,1.6100098,87.0
1022,-0.35296106,1.919122,0.64652014,1.632312,-0.90270996,1.627002,87.0
1023,-0.48551822,1.8150705,0.33219433,1.632312,-0.90270996,1.627002,87.0
1024,-0.48551822,1.8150705,0.33219433,1.7438233,-0.8464233,1.62594,87.0
1025,-0.48452044,1.8605281,0.09076786,1.7438233,-0.8464233,1.62594,87.0
1026,-0.48452044,1.8605281,0.09076786,1.8255981,-0.7784546,1.5993897,87.0
1027,-0.34331703,1.9386423,-0.0051078796,1.8255981,-0.7784546,1.5993897,87.0
1028,-0.34331703,1.9386423,-0.0051078796,1.8755127,-0.68712157,1.540979,87.0
1029,-0.12121129,1.9892073,0.022879124,1.8755127,-0.68712157,1.540979,87.0
1030,-0.12121129,1.9892073,0.022879124,1.8043579,-0.5809204,1.4634522,87.0
1031,0.073343515,1.9807214,0.11826658,1.8043579,-0.5809204,1.4634522,87.0
1032,0.073343515,1.9807214,0.11826658,1.634436,-0.4619751,1.3699951,87.0
1033,0.19640684,1.9014595,0.21436405,1.634436,-0.4619751,1.3699951,87.0
1034,0.19640684,1.9014595,0.21436405,1.4230957,-0.33771974,1.26167,87.0
1035,0.28665423,1.7608161,0.24442816,1.4230957,-0.33771974,1.26167,87.0
1036,0.28665423,1.7608161,0.24442816,1.2000732,-0.2177124,1.1427246,87.0
1037,0.455837,1.5824323,0.15457582,1.2000732,-0.2177124,1.1427246,87.0
1038,0.455837,1.5824323,0.15457582,0.9717407,-0.12213135,0.99722904,87.0
1039,0.455837,1.5824323,0.15457582,0.76464844,-0.028674318,0.83898926,87.0
1040,0.7048917,1.386893,-0.017477036,0.76464844,-0.028674318,0.83898926,87.0
1041,0.9735813,1.1754813,-0.116117954,0.76464844,-0.028674318,0.83898926,87.0
1042,0.9735813,1.1754813,-0.116117954,0.57561034,0.040356446,0.65844727,87.0
1043,1.2719314,0.9762006,-0.07269192,0.57561034,0.040356446,0.65844727,87.0
1044,1.2719314,0.9762006,-0.07269192,0.33665773,0.09239502,0.4619751,87.0
1045,1.5843177,0.81012297,0.068421364,0.33665773,0.09239502,0.4619751,87.0
1046,1.5843177,0.81012297,0.068421364,0.0637207,0.13487549,0.25063476,87.0
1047,1.7966046,0.6320462,0.22894335,0.0637207,0.13487549,0.25063476,87.0
1048,1.7966046,0.6320462,0.22894335,-0.20390625,0.14337158,0.025488282,87.0
1049,1.7844882,0.40873766,0.3852911,-0.20390625,0.14337158,0.025488282,87.0
1050,1.7844882,0.40873766,0.3852911,-0.45560303,0.098767094,-0.21983643,87.0
1051,1.604495,0.10820341,0.53024197,-0.45560303,0.098767094,-0.21983643,87.0
1052,1.604495,0.10820341,0.53024197,-0.60322267,-0.0031860352,-0.51932377,87.0
1053,1.484292,-0.2954929,0.69327307,-0.60322267,-0.0031860352,-0.51932377,87.0
1054,1.484292,-0.2954929,0.69327307,-0.54375,-0.1359375,-0.8485474,87.0
1055,1.3476143,-0.69410896,0.9050946,-0.54375,-0.1359375,-0.8485474,87.0
1056,1.3476143,-0.69410896,0.9050946,-0.3069214,-0.2527588,-1.1820191,87.0
1057,0.4927888,-0.89508224,1.1504431,-0.3069214,-0.2527588,-1.1820191,87.0
1058,0.4927888,-0.89508224,1.1504431,-0.029736329,-0.30373535,-1.3381348,87.0
1059,0.4927888,-0.89508224,1.1504431,-0.029736329,-0.30373535,-1.3381348,88.0
1060,-1.4754834,-0.81755495,1.3817677,-0.029736329,-0.30373535,-1.3381348,88.0
1061,-1.4754834,-0.81755495,1.3817677,0.32497558,-0.38551027,-1.3668091,88.0
1062,-3.430643,-0.61650753,1.6179628,0.32497558,-0.38551027,-1.3668091,88.0
1063,-3.430643,-0.61650753,1.6179628,0.84536135,-0.41843262,-1.2584839,88.0
1064,-3.9205031,-0.52378464,1.7697611,0.84536135,-0.41843262,-1.2584839,88.0
1065,-3.9205031,-0.52378464,1.7697611,1.449646,-0.38869628,-1.1193603,88.0
1066,-2.7430675,-0.4530244,1.5825324,1.449646,-0.38869628,-1.1193603,88.0
1067,-2.7430675,-0.4530244,1.5825324,1.8744507,-0.29099122,-0.991919,88.0
1068,-0.88787436,-0.20002937,0.8345928,1.8744507,-0.29099122,-0.991919,88.0
1069,-0.88787436,-0.20002937,0.8345928,1.9944581,-0.18479005,-0.9430664,88.0
1070,0.5267,0.23242044,-0.30974293,1.9944581,-0.18479005,-0.9430664,88.0
1071,0.5267,0.23242044,-0.30974293,1.8627685,-0.1274414,-0.994043,88.0
1072,1.0945292,0.723058,-1.2381268,1.8627685,-0.1274414,-0.994043,88.0
1073,1.0945292,0.723058,-1.2381268,1.2468017,-0.078588866,-1.0864381,88.0
1074,0.8642831,1.1237345,-1.4174914,1.2468017,-0.078588866,-1.0864381,88.0
1075,0.8642831,1.1237345,-1.4174914,0.14230958,0.06265869,-1.170337,88.0
1076,0.06497383,1.1534798,-0.8521695,0.14230958,0.06265869,-1.170337,88.0
1077,0.06497383,1.1534798,-0.8521695,-1.1140503,0.2357666,-1.2244996,88.0
1078,-0.9319444,0.5334163,-0.056455135,-1.1140503,0.2357666,-1.2244996,88.0
1079,-0.9319444,0.5334163,-0.056455135,-2.0040162,0.28355715,-1.1490967,88.0
1080,-1.7069204,-0.489429,0.38562202,-2.0040162,0.28355715,-1.1490967,88.0
1081,-1.7069204,-0.489429,0.38562202,-2.3173096,0.18160401,-0.99510497,88.0
1082,-1.941098,-1.3143215,0.29312897,-2.3173096,0.18160401,-0.99510497,88.0
1083,-1.941098,-1.3143215,0.29312897,-2.3640382,0.15186767,-0.90058595,88.0
1084,-1.664829,-1.749443,-0.0803895,-2.3640382,0.15186767,-0.90058595,88.0
1085,-1.664829,-1.749443,-0.0803895,-2.269519,0.18372802,-0.83686525,88.0
1086,-1.2579374,-1.9834168,-0.3097458,-2.269519,0.18372802,-0.83686525,88.0
1087,-1.2579374,-1.9834168,-0.3097458,-1.9264892,0.19753419,-0.7943848,88.0
1088,-0.9701195,-2.0835352,-0.23256254,-1.9264892,0.19753419,-0.7943848,88.0
1089,-0.9701195,-2.0835352,-0.23256254,-1.4623902,0.21452637,-0.7593384,88.0
1090,-0.8254852,-1.9824654,0.012094498,-1.4623902,0.21452637,-0.7593384,88.0
1091,-0.8254852,-1.9824654,0.012094498,-1.083252,0.24744873,-0.7306641,88.0
1092,-0.7539429,-1.7030256,0.19276905,-1.083252,0.24744873,-0.7306641,88.0
1093,-0.7539429,-1.7030256,0.19276905,-0.7975708,0.271875,-0.6956177,88.0
1094,-0.6840137,-1.3501402,0.19221592,-0.7975708,0.271875,-0.6956177,88.0
1095,-0.6840137,-1.3501402,0.19221592,-0.5787964,0.25063476,-0.6552612,88.0
1096,-0.53032863,-1.0320165,0.06573582,-0.5787964,0.25063476,-0.6552612,88.0
1097,-0.53032863,-1.0320165,0.06573582,-0.41524658,0.21346436,-0.631897,88.0
1098,-0.29373315,-0.8169462,-0.05512619,-0.41524658,0.21346436,-0.631897,88.0
1099,-0.29373315,-0.8169462,-0.05512619,-0.3462158,0.16567384,-0.60216063,88.0
1100,-0.071021676,-0.74225324,-0.10596657,-0.3462158,0.16567384,-0.60216063,88.0
1101,-0.071021676,-0.74225324,-0.10596657,-0.32816163,0.121069334,-0.56180423,88.0
1102,0.07595855,-0.7856239,-0.11199522,-0.32816163,0.121069334,-0.56180423,88.0
1103,0.07595855,-0.7856239,-0.11199522,-0.26550293,0.06159668,-0.52675784,88.0
1104,0.22381616,-0.858443,-0.08724022,-0.26550293,0.06159668,-0.52675784,88.0
1105,0.22381616,-0.858443,-0.08724022,-0.1444336,-0.011682129,-0.50445557,88.0
1106,0.4673586,-0.8897574,-0.06892538,-0.1444336,-0.011682129,-0.50445557,88.0
1107,0.4673586,-0.8897574,-0.06892538,-0.009558106,-0.070092775,-0.4970215,88.0
1108,0.8040993,-0.8545793,-0.083265305,-0.009558106,-0.070092775,-0.4970215,88.0
1109,0.8040993,-0.8545793,-0.083265305,0.093457036,-0.121069334,-0.52038574,88.0
1110,1.1564387,-0.79124403,-0.14938784,0.093457036,-0.121069334,-0.52038574,88.0
1111,1.1564387,-0.79124403,-0.14938784,0.1359375,-0.15930176,-0.5501221,88.0
1112,1.3681319,-0.70245326,-0.23893166,0.1359375,-0.15930176,-0.5501221,88.0
1113,1.3681319,-0.70245326,-0.23893166,0.09133301,-0.19222413,-0.5607422,88.0
1114,1.3816638,-0.64444554,-0.33127022,0.09133301,-0.19222413,-0.5607422,88.0
1115,1.3816638,-0.64444554,-0.33127022,-0.008496094,-0.2442627,-0.53737795,88.0
1116,1.2053554,-0.68147445,-0.38974762,-0.008496094,-0.2442627,-0.53737795,88.0
1117,1.2053554,-0.68147445,-0.38974762,-0.1178833,-0.30054933,-0.44604492,88.0
1118,0.8699117,-0.7784194,-0.41481352,-0.1178833,-0.30054933,-0.44604492,88.0
1119,0.8699117,-0.7784194,-0.41481352,-0.16248779,-0.40356445,-0.32709962,88.0
1120,0.5939641,-0.8884826,-0.4274931,-0.16248779,-0.40356445,-0.32709962,88.0
1121,0.5939641,-0.8884826,-0.4274931,-0.027612304,-0.51188964,-0.17947999,88.0
1122,0.3184452,-0.9331982,-0.3635769,-0.027612304,-0.51188964,-0.17947999,88.0
1123,0.3184452,-0.9331982,-0.3635769,0.3440918,-0.5809204,0.033984374,88.0
1124,-0.26351786,-0.7644541,-0.21431112,0.3440918,-0.5809204,0.033984374,88.0
1125,-0.26351786,-0.7644541,-0.21431112,0.8687256,-0.6754395,0.29630128,88.0
1126,-0.9256458,-0.27683425,-0.093214035,0.8687256,-0.6754395,0.29630128,88.0
1127,-0.9256458,-0.27683425,-0.093214035,1.4018555,-0.7625244,0.6138428,88.0
1128,-1.0707656,0.4096117,-0.08115101,1.4018555,-0.7625244,0.6138428,88.0
1129,-1.0707656,0.4096117,-0.08115101,1.8585205,-0.83898926,0.9409424,88.0
1130,-0.41963744,1.0650184,-0.17737198,1.8585205,-0.83898926,0.9409424,88.0
1131,-0.41963744,1.0650184,-0.17737198,2.1346436,-0.84748536,1.2510499,88.0
1132,0.6673417,1.5398932,-0.33547688,2.1346436,-0.84748536,1.2510499,88.0
1133,0.6673417,1.5398932,-0.33547688,2.1728761,-0.8358032,1.4868164,88.0
1134,1.5821643,1.8383964,-0.43779087,2.1728761,-0.8358032,1.4868164,88.0
1135,1.5821643,1.8383964,-0.43779087,1.9594116,-0.77314454,1.6684204,88.0
1136,1.9389372,1.9881854,-0.35102654,1.9594116,-0.77314454,1.6684204,88.0
1137,1.9389372,1.9881854,-0.35102654,1.6503662,-0.6966797,1.81073,88.0
1138,1.8439598,2.0067716,-0.035752773,1.6503662,-0.6966797,1.81073,88.0
1139,1.8439598,2.0067716,-0.035752773,1.3976074,-0.6053467,1.9349854,88.0
1140,1.5890231,1.9912083,0.3229847,1.3976074,-0.6053467,1.9349854,88.0
1141,1.5890231,1.9912083,0.3229847,1.0906861,-0.50445557,2.0358765,88.0
1142,1.2516265,2.0033426,0.43468142,1.0906861,-0.50445557,2.0358765,88.0
1143,1.2516265,2.0033426,0.43468142,0.8092529,-0.41524658,2.1208375,88.0
1144,0.8506174,1.9123422,0.2601843,0.8092529,-0.41524658,2.1208375,88.0
1145,0.8506174,1.9123422,0.2601843,0.6860596,-0.37489015,2.1452637,88.0
1146,0.50084305,1.6905427,-0.016742706,0.6860596,-0.37489015,2.1452637,88.0
1147,0.50084305,1.6905427,-0.016742706,0.72641605,-0.36320803,2.1388917,88.0
1148,0.50084305,1.6905427,-0.016742706,0.72641605,-0.36320803,2.1388917,88.0
1149,0.3189969,1.4674122,-0.17491722,0.72641605,-0.36320803,2.1388917,88.0
1150,0.3189969,1.4674122,-0.17491722,0.88040775,-0.3419678,2.1027832,88.0
1151,0.3756323,1.376298,-0.16465282,0.88040775,-0.3419678,2.1027832,88.0
1152,0.3756323,1.376298,-0.16465282,1.0375855,-0.28568116,2.0305665,88.0
1153,0.5735283,1.436866,-0.09595585,1.0375855,-0.28568116,2.0305665,88.0
1154,0.5735283,1.436866,-0.09595585,1.1204224,-0.20284425,1.9243653,88.0
1155,0.66944265,1.5614924,-0.1115551,1.1204224,-0.20284425,1.9243653,88.0
1156,0.66944265,1.5614924,-0.1115551,1.1013062,-0.12319336,1.7969239,88.0
1157,0.5124216,1.6253781,-0.22645092,1.1013062,-0.12319336,1.7969239,88.0
1158,0.5124216,1.6253781,-0.22645092,0.9674927,-0.07115479,1.6482422,88.0
1159,0.16394138,1.5918431,-0.32339716,0.9674927,-0.07115479,1.6482422,88.0
1160,0.16394138,1.5918431,-0.32339716,0.7678345,-0.04248047,1.5016845,88.0
1161,-0.22569513,1.48241,-0.30073452,0.7678345,-0.04248047,1.5016845,88.0
1162,-0.22569513,1.48241,-0.30073452,0.5713623,-0.038232423,1.3625611,88.0
1163,-0.5019064,1.3333158,-0.20904446,0.5713623,-0.038232423,1.3625611,88.0
1164,-0.5019064,1.3333158,-0.20904446,0.42692873,-0.040356446,1.2329956,88.0
1165,-0.5751457,1.1403103,-0.14240646,0.42692873,-0.040356446,1.2329956,88.0
1166,-0.5751457,1.1403103,-0.14240646,0.3791382,-0.026550293,1.089624,88.0
1167,-0.48857117,0.91389656,-0.16208172,0.3791382,-0.026550293,1.089624,88.0
1168,-0.48857117,0.91389656,-0.16208172,0.41524658,-0.014868164,0.8995239,88.0
1169,-0.26293945,0.72951794,-0.22938442,0.41524658,-0.014868164,0.8995239,88.0
1170,-0.26293945,0.72951794,-0.22938442,0.43967286,0.0,0.6573853,88.0
1171,0.13466787,0.58068466,-0.29045343,0.43967286,0.0,0.6573853,88.0
1172,0.13466787,0.58068466,-0.29045343,0.45135498,0.023364259,0.36320803,88.0
1173,0.63910675,0.43406677,-0.28388882,0.45135498,0.023364259,0.36320803,88.0
1174,0.63910675,0.43406677,-0.28388882,0.41312256,0.045666505,0.019116212,88.0
1175,1.1234436,0.2826538,-0.19866848,0.41312256,0.045666505,0.019116212,88.0
1176,1.1234436,0.2826538,-0.19866848,0.27506104,0.06584473,-0.36002198,88.0
1177,1.455298,0.12938213,-0.093260765,0.27506104,0.06584473,-0.36002198,88.0
1178,1.455298,0.12938213,-0.093260765,0.06796875,0.09133301,-0.74871826,88.0
1179,1.4395313,-0.027817726,0.024585724,0.06796875,0.09133301,-0.74871826,88.0
1180,1.4395313,-0.027817726,0.024585724,-0.1539917,0.12000733,-1.0970582,88.0
1181,0.99957466,-0.19837761,0.16125774,-0.1539917,0.12000733,-1.0970582,88.0
1182,0.99957466,-0.19837761,0.16125774,-0.31010744,0.12850343,-1.4135376,88.0
1183,0.42657614,-0.3879013,0.3043604,-0.31010744,0.12850343,-1.4135376,88.0
1184,0.42657614,-0.3879013,0.3043604,-0.3717041,0.11469727,-1.6970948,88.0
1185,0.005042553,-0.5622988,0.38472366,-0.3717041,0.11469727,-1.6970948,88.0
1186,0.005042553,-0.5622988,0.38472366,-0.40037844,0.10407715,-1.8893188,88.0
1187,-0.2340641,-0.71076393,0.36280823,-0.40037844,0.10407715,-1.8893188,88.0
1188,-0.2340641,-0.71076393,0.36280823,-0.33134767,0.078588866,-2.0210083,88.0
1189,-0.4022169,-0.8089924,0.32425547,-0.33134767,0.078588866,-2.0210083,88.0
1190,-0.4022169,-0.8089924,0.32425547,-0.26975098,0.058410645,-2.0454347,88.0
1191,-0.81454706,-0.82489157,0.342144,-0.26975098,0.058410645,-2.0454347,88.0
1192,-0.81454706,-0.82489157,0.342144,-0.24001466,0.058410645,-1.9286133,88.0
1193,-1.3516741,-0.8052745,0.43648386,-0.24001466,0.058410645,-1.9286133,88.0
1194,-1.3516741,-0.8052745,0.43648386,-0.10513916,0.0361084,-1.7629395,88.0
1195,-1.2549114,-0.7965145,0.5418749,-0.10513916,0.0361084,-1.7629395,88.0
1196,-1.2549114,-0.7965145,0.5418749,0.06265869,0.029736329,-1.6142578,88.0
1197,-0.19051361,-0.8156295,0.51088,0.06265869,0.029736329,-1.6142578,88.0
1198,-0.19051361,-0.8156295,0.51088,0.13487549,0.083898924,-1.4740723,88.0
1199,1.1660829,-0.8392956,0.27630663,0.13487549,0.083898924,-1.4740723,88.0
1200,1.1660829,-0.8392956,0.27630663,0.035046387,0.1444336,-1.351941,88.0
1201,1.8276415,-0.802125,0.0016970634,0.035046387,0.1444336,-1.351941,88.0
1202,1.8276415,-0.802125,0.0016970634,-0.3090454,0.22302246,-1.268042,88.0
1203,1.3398595,-0.69215155,-0.057639122,-0.3090454,0.22302246,-1.268042,88.0
1204,1.3398595,-0.69215155,-0.057639122,-0.89421386,0.29311523,-1.1597168,88.0
1205,-0.020299911,-0.63101625,0.0957222,-0.89421386,0.29311523,-1.1597168,88.0
1206,-0.020299911,-0.63101625,0.0957222,-1.4156617,0.32709962,-0.9685547,88.0
1207,-1.5767384,-0.70680285,0.22634554,-1.4156617,0.32709962,-0.9685547,88.0
1208,-1.5767384,-0.70680285,0.22634554,-1.6429322,0.25063476,-0.7880127,88.0
1209,-2.0758924,-0.7904422,0.27323914,-1.6429322,0.25063476,-0.7880127,88.0
1210,-2.0758924,-0.7904422,0.27323914,-1.6578003,0.22302246,-0.70198977,88.0
1211,-3.2597256,-0.98407507,-0.047448635,-1.6578003,0.22302246,-0.70198977,88.0
1212,-3.2597256,-0.98407507,-0.047448635,-1.4337158,0.17735596,-0.56605226,88.0
1213,-2.9416063,-0.99768496,-0.09766388,-1.4337158,0.17735596,-0.56605226,88.0
1214,-2.9416063,-0.99768496,-0.09766388,-1.2807862,0.17416993,-0.54906005,88.0
1215,-2.8591444,-1.0095494,-0.31914663,-1.2807862,0.17416993,-0.54906005,88.0
1216,-2.8591444,-1.0095494,-0.31914663,-0.75721437,0.18479005,-0.55755615,88.0
1217,-2.4576526,-0.90314734,-0.23087883,-0.75721437,0.18479005,-0.55755615,88.0
1218,-2.4576526,-0.90314734,-0.23087883,-0.62127686,0.18903808,-0.5766724,88.0
1219,-2.213705,-0.70259595,-0.06132698,-0.62127686,0.18903808,-0.5766724,88.0
1220,-2.213705,-0.70259595,-0.06132698,-0.38657227,0.19541016,-0.6510132,88.0
1221,-1.8400071,-0.59845376,0.009849548,-0.38657227,0.19541016,-0.6510132,88.0
1222,-1.8400071,-0.59845376,0.009849548,-0.37382814,0.18585205,-0.6786255,88.0
1223,-1.4385217,-0.41201496,0.15429068,-0.37382814,0.18585205,-0.6786255,88.0
1224,-1.4385217,-0.41201496,0.15429068,-0.5171997,0.15611573,-0.7391602,88.0
1225,-1.1550533,-0.44456565,0.16776848,-0.5171997,0.15611573,-0.7391602,88.0
1226,-1.1550533,-0.44456565,0.16776848,-0.54906005,0.1444336,-0.7614624,88.0
1227,-0.73401576,-0.70138013,0.25457573,-0.54906005,0.1444336,-0.7614624,88.0
1228,-0.73401576,-0.70138013,0.25457573,-0.51188964,0.11363526,-0.7699585,88.0
1229,-0.568365,-0.8133868,0.27907562,-0.51188964,0.11363526,-0.7699585,88.0
1230,-0.568365,-0.8133868,0.27907562,-0.4598511,0.09133301,-0.7614624,88.0
1231,-0.07425983,-1.086354,0.32853413,-0.4598511,0.09133301,-0.7614624,88.0
1232,-0.07425983,-1.086354,0.32853413,-0.19541016,0.012744141,-0.721106,88.0
1233,0.15118784,-1.0413244,0.28913355,-0.19541016,0.012744141,-0.721106,88.0
1234,0.15118784,-1.0413244,0.28913355,-0.08283692,-0.020178223,-0.7062378,88.0
1235,1.1678131,-1.1306791,0.3440876,-0.08283692,-0.020178223,-0.7062378,88.0
1236,1.1678131,-1.1306791,0.3440876,0.2347046,-0.10620117,-0.6680054,88.0
1237,1.3768408,-1.0509545,0.31017017,0.2347046,-0.10620117,-0.6680054,88.0
1238,1.3768408,-1.0509545,0.31017017,0.32178956,-0.12319336,-0.6488892,88.0
1239,2.1098711,-1.0523481,0.25663233,0.32178956,-0.12319336,-0.6488892,88.0
1240,2.1098711,-1.0523481,0.25663233,0.42161867,-0.14549561,-0.58304447,88.0
1241,2.5072207,-0.9165733,0.13235664,0.42161867,-0.14549561,-0.58304447,88.0
1242,2.5072207,-0.9165733,0.13235664,0.35683593,-0.16354981,-0.452417,88.0
1243,2.3835843,-0.6638739,-0.018187046,0.35683593,-0.16354981,-0.452417,88.0
1244,2.3835843,-0.6638739,-0.018187046,0.19647217,-0.19328614,-0.26656494,88.0
1245,1.8587961,-0.378792,-0.093895435,0.19647217,-0.19328614,-0.26656494,88.0
1246,1.8587961,-0.378792,-0.093895435,0.0541626,-0.2347046,-0.028674318,88.0
1247,1.1756356,-0.13547993,-0.088214874,0.0541626,-0.2347046,-0.028674318,88.0
1248,1.1756356,-0.13547993,-0.088214874,0.058410645,-0.31116945,0.1901001,88.0
1249,0.6476984,0.030715227,-0.06894827,0.058410645,-0.31116945,0.1901001,88.0
1250,0.6476984,0.030715227,-0.06894827,0.12850343,-0.3791382,0.38763428,88.0
1251,0.20680618,0.118566334,-0.045722485,0.12850343,-0.3791382,0.38763428,88.0
1252,0.20680618,0.118566334,-0.045722485,0.29417726,-0.38232422,0.61065674,88.0
1253,-0.6739228,0.3672896,-0.038140774,0.29417726,-0.38232422,0.61065674,88.0
1254,-0.6739228,0.3672896,-0.038140774,0.38444826,-0.38551027,0.8708496,88.0
1255,-1.8611352,0.85682,-0.161592,0.38444826,-0.38551027,0.8708496,88.0
1256,-1.8611352,0.85682,-0.161592,0.45029297,-0.41737062,1.1692749,88.0
1257,-2.2467818,1.1882026,-0.41247702,0.45029297,-0.41737062,1.1692749,88.0
1258,-2.2467818,1.1882026,-0.41247702,0.7126099,-0.49383545,1.3933594,88.0
1259,-1.3459363,1.2407477,-0.6699352,0.7126099,-0.49383545,1.3933594,88.0
1260,-1.3459363,1.2407477,-0.6699352,0.99722904,-0.5341919,1.5346069,88.0
1261,0.07702303,1.2891313,-0.88243294,0.99722904,-0.5341919,1.5346069,88.0
1262,0.07702303,1.2891313,-0.88243294,1.264856,-0.51082766,1.5834595,88.0
1263,1.2410495,1.3765565,-0.94968414,1.264856,-0.51082766,1.5834595,88.0
1264,1.2410495,1.3765565,-0.94968414,1.4804443,-0.47365722,1.535669,88.0
1265,1.2410495,1.3765565,-0.94968414,1.4804443,-0.47365722,1.535669,88.0
1266,1.7394583,1.4962647,-0.7702818,1.4804443,-0.47365722,1.535669,88.0
1267,1.7394583,1.4962647,-0.7702818,1.4358399,-0.37489015,1.4793824,88.0
1268,1.6585588,1.5378566,-0.4166894,1.4358399,-0.37489015,1.4793824,88.0
1269,1.6585588,1.5378566,-0.4166894,1.1820191,-0.2803711,1.4528321,88.0
1270,1.429203,1.4803708,-0.06008482,1.1820191,-0.2803711,1.4528321,88.0
1271,1.429203,1.4803708,-0.06008482,0.93350834,-0.22408448,1.3869873,88.0
1272,1.2499785,1.506135,0.14573097,0.93350834,-0.22408448,1.3869873,88.0
1273,1.2499785,1.506135,0.14573097,0.55755615,-0.19116211,1.3530029,88.0
1274,1.0759354,1.4772835,0.13853312,0.55755615,-0.19116211,1.3530029,88.0
1275,1.0759354,1.4772835,0.13853312,0.20072022,-0.17735596,1.3073364,88.0
1276,0.8764343,1.2025177,-0.03143406,0.20072022,-0.17735596,1.3073364,88.0
1277,0.8764343,1.2025177,-0.03143406,0.11151123,-0.16567384,1.2457398,88.0
1278,0.603662,0.8374901,-0.232337,0.11151123,-0.16567384,1.2457398,88.0
1279,0.603662,0.8374901,-0.232337,0.22833252,-0.20496826,1.1639649,88.0
1280,0.25574446,0.68333435,-0.34518385,0.22833252,-0.20496826,1.1639649,88.0
1281,0.25574446,0.68333435,-0.34518385,0.3717041,-0.20709229,1.0970582,88.0
1282,0.25574446,0.68333435,-0.34518385,0.5246338,-0.22302246,1.0131592,88.0
1283,-0.10414457,0.742517,-0.30946016,0.5246338,-0.22302246,1.0131592,88.0
1284,-0.9872098,1.197444,0.009634018,0.5246338,-0.22302246,1.0131592,88.0
1285,-0.9872098,1.197444,0.009634018,0.61065674,-0.22514649,0.91864014,88.0
1286,-0.9872098,1.197444,0.009634018,0.6435791,-0.22408448,0.811377,88.0
1287,-0.9872098,1.197444,0.009634018,0.6595093,-0.23045655,0.7041138,88.0
1288,-0.9473362,1.0340176,-0.00960207,0.6595093,-0.23045655,0.7041138,88.0
1289,-0.9473362,1.0340176,-0.00960207,0.6860596,-0.22196046,0.5851685,88.0
1290,-0.83639693,0.9258833,-0.077151775,0.6860596,-0.22196046,0.5851685,88.0
1291,-0.83639693,0.9258833,-0.077151775,0.71367186,-0.20072022,0.45878908,88.0
1292,-0.69397116,0.83586025,-0.16671419,0.71367186,-0.20072022,0.45878908,88.0
1293,-0.69397116,0.83586025,-0.16671419,0.75509036,-0.15080567,0.32922363,88.0
1294,-0.5406871,0.7299185,-0.23807096,0.75509036,-0.15080567,0.32922363,88.0
1295,-0.5406871,0.7299185,-0.23807096,0.80606693,-0.095581055,0.18160401,88.0
1296,-4.535382,-3.0111582,-4.011612,0.80606693,-0.095581055,0.18160401,88.0
1297,-4.535382,-3.0111582,-4.011612,0.80181885,-0.04248047,-0.0063720704,88.0
1298,-3.2129734,-2.504471,-3.2223754,0.80181885,-0.04248047,-0.0063720704,88.0
1299,-3.2129734,-2.504471,-3.2223754,0.72216797,0.020178223,-0.23258057,88.0
1300,-1.8096853,-2.1795535,-2.6267653,0.72216797,0.020178223,-0.23258057,88.0
1301,-1.8096853,-2.1795535,-2.6267653,0.6042847,0.078588866,-0.5076416,88.0
1302,-0.43754315,-1.9264188,-2.154818,0.6042847,0.078588866,-0.5076416,88.0
1303,-0.43754315,-1.9264188,-2.154818,0.39400634,0.14124756,-0.8050049,88.0
1304,0.66731167,-1.7163181,-1.7576678,0.39400634,0.14124756,-0.8050049,88.0
1305,0.66731167,-1.7163181,-1.7576678,0.04460449,0.22196046,-1.0736939,88.0
1306,1.226989,-1.5332962,-1.3952823,0.04460449,0.22196046,-1.0736939,88.0
1307,1.226989,-1.5332962,-1.3952823,-0.3802002,0.29523927,-1.268042,88.0
1308,1.1721674,-1.4197888,-1.0846584,-0.3802002,0.29523927,-1.268042,88.0
1309,1.1721674,-1.4197888,-1.0846584,-0.7986328,0.3355957,-1.3784913,88.0
1310,0.8206563,-1.4513096,-0.8361715,-0.7986328,0.3355957,-1.3784913,88.0
1311,0.8206563,-1.4513096,-0.8361715,-1.0492676,0.3419678,-1.4199097,88.0
1312,0.45289946,-1.5359867,-0.62272143,-1.0492676,0.3419678,-1.4199097,88.0
1313,0.45289946,-1.5359867,-0.62272143,-1.1947632,0.31329346,-1.3848633,88.0
1314,0.21504164,-1.5840994,-0.46693933,-1.1947632,0.31329346,-1.3848633,88.0
1315,0.21504164,-1.5840994,-0.46693933,-1.1522827,0.28355715,-1.3147706,88.0
1316,0.024523497,-1.5870671,-0.38793135,-1.1522827,0.28355715,-1.3147706,88.0
1317,0.024523497,-1.5870671,-0.38793135,-1.0110352,0.25063476,-1.1841431,88.0
1318,-0.60438013,-1.4466922,-0.3267025,-1.0110352,0.25063476,-1.1841431,88.0
1319,-0.60438013,-1.4466922,-0.3267025,-0.82730716,0.2347046,-0.9483765,88.0
1320,-0.60438013,-1.4466922,-0.3267025,-0.4991455,0.16779785,-0.70305175,88.0
1321,-1.6314412,-1.2045218,-0.16217989,-0.4991455,0.16779785,-0.70305175,88.0
1322,-1.1150651,-0.7112858,0.29139867,-0.4991455,0.16779785,-0.70305175,88.0
1323,-1.1150651,-0.7112858,0.29139867,-0.18585205,0.0637207,-0.47896728,88.0
1324,-1.1150651,-0.7112858,0.29139867,-0.023364259,0.07540283,-0.27506104,88.0
1325,-1.1150651,-0.7112858,0.29139867,0.0031860352,0.13487549,-0.1529297,88.0
1326,-0.269933,-0.43484902,0.05501835,0.0031860352,0.13487549,-0.1529297,88.0
1327,-0.269933,-0.43484902,0.05501835,-0.121069334,0.18160401,-0.12000733,88.0
1328,-0.31310225,-0.20868242,-0.17977683,-0.121069334,0.18160401,-0.12000733,88.0
1329,-0.31310225,-0.20868242,-0.17977683,-0.41312256,0.22302246,-0.13806152,88.0
1330,-0.86381185,-0.08652592,-0.28616765,-0.41312256,0.22302246,-0.13806152,88.0
1331,-0.86381185,-0.08652592,-0.28616765,-0.72641605,0.270813,-0.14974366,88.0
1332,-1.441843,-0.087311506,-0.238419,-0.72641605,0.270813,-0.14974366,88.0
1333,-1.441843,-0.087311506,-0.238419,-0.90058595,0.26975098,-0.15505372,88.0
1334,-1.8313308,-0.115955114,-0.15649448,-0.90058595,0.26975098,-0.15505372,88.0
1335,-1.8313308,-0.115955114,-0.15649448,-0.9834229,0.26019287,-0.12213135,88.0
1336,-1.996742,-0.1378324,-0.15474881,-0.9834229,0.26019287,-0.12213135,88.0
1337,-1.996742,-0.1378324,-0.15474881,-0.9303223,0.24320069,-0.09451904,88.0
1338,-1.8957822,-0.18082261,-0.22982933,-0.9303223,0.24320069,-0.09451904,88.0
1339,-1.8957822,-0.18082261,-0.22982933,-0.7827026,0.22408448,-0.095581055,88.0
1340,-1.5820311,-0.18702865,-0.29947627,-0.7827026,0.22408448,-0.095581055,88.0
1341,-1.5820311,-0.18702865,-0.29947627,-0.65419924,0.2166504,-0.118945315,88.0
1342,-1.1865112,-0.15120983,-0.29246187,-0.65419924,0.2166504,-0.118945315,88.0
1343,-1.1865112,-0.15120983,-0.29246187,-0.5703003,0.2177124,-0.16885987,88.0
1344,-0.81029296,-0.0938195,-0.23370093,-0.5703003,0.2177124,-0.16885987,88.0
1345,-0.81029296,-0.0938195,-0.23370093,-0.5894165,0.21877442,-0.23151855,88.0
1346,-0.5110518,0.10170221,-0.1649881,-0.5894165,0.21877442,-0.23151855,88.0
1347,-0.5110518,0.10170221,-0.1649881,-0.70198977,0.22939454,-0.28674316,88.0
1348,-0.32665157,0.09773147,-0.14547926,-0.70198977,0.22939454,-0.28674316,88.0
1349,-0.32665157,0.09773147,-0.14547926,-0.8241211,0.22727051,-0.3451538,88.0
1350,-0.18055952,-0.017798662,-0.13797766,-0.8241211,0.22727051,-0.3451538,88.0
1351,-0.18055952,-0.017798662,-0.13797766,-0.8878418,0.21346436,-0.39188233,88.0
1352,-0.09840274,-0.053948402,-0.10029912,-0.8878418,0.21346436,-0.39188233,88.0
1353,-0.09840274,-0.053948402,-0.10029912,-0.8973999,0.19222413,-0.4354248,88.0
1354,-0.14029443,-0.09534383,-0.030373573,-0.8973999,0.19222413,-0.4354248,88.0
1355,-0.14029443,-0.09534383,-0.030373573,-0.813501,0.16779785,-0.46409914,88.0
1356,-0.20666909,-0.26271307,0.0451836,-0.813501,0.16779785,-0.46409914,88.0
1357,-0.20666909,-0.26271307,0.0451836,-0.6881836,0.118945315,-0.5012695,88.0
1358,-0.08944416,-0.3763082,0.11632264,-0.6881836,0.118945315,-0.5012695,88.0
1359,-0.08944416,-0.3763082,0.11632264,-0.5543701,0.06690674,-0.54587406,88.0
1360,-0.08944416,-0.3763082,0.11632264,-0.5543701,0.06690674,-0.54587406,88.0
1361,0.28529286,-0.46950364,0.17694485,-0.5543701,0.06690674,-0.54587406,88.0
1362,0.28529286,-0.46950364,0.17694485,-0.41312256,0.014868164,-0.6149048,88.0
1363,0.789721,-0.5684986,0.21593332,-0.41312256,0.014868164,-0.6149048,88.0
1364,0.789721,-0.5684986,0.21593332,-0.27612305,-0.025488282,-0.69986576,88.0
1365,1.2645527,-0.6454606,0.25625497,-0.27612305,-0.025488282,-0.69986576,88.0
1366,1.2645527,-0.6454606,0.25625497,-0.18372802,-0.046728518,-0.7890747,88.0
1367,1.6408292,-0.6961658,0.25705475,-0.18372802,-0.046728518,-0.7890747,88.0
1368,1.6408292,-0.6961658,0.25705475,-0.1529297,-0.045666505,-0.8464233,88.0
1369,1.8632005,-0.7042961,0.15807301,-0.1529297,-0.045666505,-0.8464233,88.0
1370,1.8632005,-0.7042961,0.15807301,-0.2166504,-0.046728518,-0.8527954,88.0
1371,1.9817348,-0.69544387,0.012725502,-0.2166504,-0.046728518,-0.8527954,88.0
1372,1.9817348,-0.69544387,0.012725502,-0.3175415,-0.059472658,-0.83898926,88.0
1373,2.0406613,-0.75125265,-0.09804714,-0.3175415,-0.059472658,-0.83898926,88.0
1374,2.0406613,-0.75125265,-0.09804714,-0.39613038,-0.06478272,-0.77739257,88.0
1375,-26214.76,2.3864734,0.24392557,-0.39613038,-0.06478272,-0.77739257,88.0
1376,-26214.76,2.3864734,0.24392557,-0.362146,-0.121069334,-0.7041138,88.0
1377,5252.816,-2.1781626,-6.691383,-0.362146,-0.121069334,-0.7041138,88.0
1378,5252.816,-2.1781626,-6.691383,-0.2782471,-0.14337158,-0.58623046,88.0
1379,4201.988,-1.9660897,-5.3299866,-0.2782471,-0.14337158,-0.58623046,88.0
1380,4201.988,-1.9660897,-5.3299866,-0.06584473,-0.15823975,-0.3812622,88.0
1381,3360.4812,-1.5934772,-4.263867,-0.06584473,-0.15823975,-0.3812622,88.0
1382,3360.4812,-1.5934772,-4.263867,0.1539917,-0.19647217,-0.08602295,88.0
1383,2686.6182,-1.0969133,-3.483286,0.1539917,-0.19647217,-0.08602295,88.0
1384,2686.6182,-1.0969133,-3.483286,0.56817627,-0.30479738,0.24744873,88.0
1385,2148.011,-0.80786514,-2.8287792,0.56817627,-0.30479738,0.24744873,88.0
1386,2148.011,-0.80786514,-2.8287792,1.2075074,-0.4078125,0.53737795,88.0
1387,1718.406,-0.7985263,-2.1278915,1.2075074,-0.4078125,0.53737795,88.0
1388,1718.406,-0.7985263,-2.1278915,1.6854126,-0.41843262,0.78376466,88.0
1389,1375.6267,-0.7830348,-1.4981136,1.6854126,-0.41843262,0.78376466,88.0
1390,1375.6267,-0.7830348,-1.4981136,1.8765748,-0.27293703,0.9600586,88.0
1391,1101.4257,-0.5803828,-1.1767988,1.8765748,-0.27293703,0.9600586,88.0
1392,1101.4257,-0.5803828,-1.1767988,1.7395753,-0.13381349,1.0492676,88.0
1393,881.5485,-0.24066114,-1.1548667,1.7395753,-0.13381349,1.0492676,88.0
1394,881.5485,-0.24066114,-1.1548667,1.2499878,0.013806152,1.1331666,88.0
1395,705.13904,0.027234554,-1.1568279,1.2499878,0.013806152,1.1331666,88.0
1396,705.13904,0.027234554,-1.1568279,0.6180908,0.08071289,1.179895,88.0
1397,563.749,0.20512486,-0.94227123,0.6180908,0.08071289,1.179895,88.0
1398,563.749,0.20512486,-0.94227123,-0.06159668,0.10938721,1.2308716,88.0
1399,450.5266,0.22569656,-0.59661484,-0.06159668,0.10938721,1.2308716,88.0
1400,450.5266,0.22569656,-0.59661484,-0.4970215,0.06265869,1.3083985,88.0
1401,359.96375,0.05052805,-0.41062927,-0.4970215,0.06265869,1.3083985,88.0
1402,359.96375,0.05052805,-0.41062927,-0.5734863,-0.033984374,1.3710572,88.0
1403,287.67746,-0.18032932,-0.47509766,-0.5734863,-0.033984374,1.3710572,88.0
1404,287.67746,-0.18032932,-0.47509766,-0.34727785,-0.09664307,1.4061035,88.0
1405,229.98611,-0.3788705,-0.6083126,-0.34727785,-0.09664307,1.4061035,88.0
1406,229.98611,-0.3788705,-0.6083126,0.12531738,-0.1529297,1.4050416,88.0
1407,229.98611,-0.3788705,-0.6083126,0.64782715,-0.18797608,1.3742431,88.0
1408,183.90312,-0.4684043,-0.63733387,0.64782715,-0.18797608,1.3742431,88.0
1409,146.86923,-0.21744823,-0.30425167,0.64782715,-0.18797608,1.3742431,88.0
1410,146.86923,-0.21744823,-0.30425167,1.0959961,-0.19116211,1.3253907,88.0
1411,146.86923,-0.21744823,-0.30425167,1.273352,-0.16992188,1.2361816,88.0
1412,146.86923,-0.21744823,-0.30425167,1.2489258,-0.11257324,1.1395386,88.0
1413,117.31254,-0.10694218,-0.19058132,1.2489258,-0.11257324,1.1395386,88.0
1414,117.31254,-0.10694218,-0.19058132,1.1013062,-0.06903076,1.0120972,88.0
1415,93.675064,-0.06453323,-0.11751652,1.1013062,-0.06903076,1.0120972,88.0
1416,93.675064,-0.06453323,-0.11751652,0.8506714,0.0021240234,0.8750977,88.0
1417,74.83785,-0.06834984,-0.05752659,0.8506714,0.0021240234,0.8750977,88.0
1418,74.83785,-0.06834984,-0.05752659,0.58304447,0.078588866,0.73703617,88.0
1419,59.84616,-0.091178894,-0.020923615,0.58304447,0.078588866,0.73703617,88.0
1420,59.84616,-0.091178894,-0.020923615,0.32391357,0.16036378,0.6000366,88.0
1421,47.721573,-0.035772324,0.023422241,0.32391357,0.16036378,0.6000366,88.0
1422,47.721573,-0.035772324,0.023422241,0.095581055,0.25063476,0.45347902,88.0
1423,37.97305,0.1201005,0.12894249,0.095581055,0.25063476,0.45347902,88.0
1424,37.97305,0.1201005,0.12894249,-0.15823975,0.32391357,0.29099122,88.0
1425,30.862057,0.11024046,0.1515913,-0.15823975,0.32391357,0.29099122,88.0
1426,30.862057,0.11024046,0.1515913,-0.45029297,0.39294434,0.12000733,88.0
1427,25.395273,0.1471405,0.08129501,-0.45029297,0.39294434,0.12000733,88.0
1428,25.395273,0.1471405,0.08129501,-0.7986328,0.44179687,-0.07646485,88.0
1429,21.029915,0.21711445,-0.03113079,-0.7986328,0.44179687,-0.07646485,88.0
1430,21.029915,0.21711445,-0.03113079,-1.173523,0.47365722,-0.27718505,88.0
1431,17.239094,0.21766138,-0.10962105,-1.173523,0.47365722,-0.27718505,88.0
1432,17.239094,0.21766138,-0.10962105,-1.4145997,0.48427734,-0.45560303,88.0
1433,13.783181,0.14693165,-0.060328484,-1.4145997,0.48427734,-0.45560303,88.0
1434,13.783181,0.14693165,-0.060328484,-1.5091187,0.41206056,-0.630835,88.0
1435,10.832039,0.102189064,0.07945919,-1.5091187,0.41206056,-0.630835,88.0
1436,10.832039,0.102189064,0.07945919,-1.4921265,0.33878174,-0.7880127,88.0
1437,8.582538,0.0410285,0.20930672,-1.4921265,0.33878174,-0.7880127,88.0
1438,8.582538,0.0410285,0.20930672,-1.2839721,0.27293703,-0.9303223,88.0
1439,7.049185,-0.09915972,0.28158092,-1.2839721,0.27293703,-0.9303223,88.0
1440,7.049185,-0.09915972,0.28158092,-0.8857178,0.18585205,-1.1002442,88.0
1441,6.0245037,-0.23499203,0.2439413,-0.8857178,0.18585205,-1.1002442,88.0
1442,6.0245037,-0.23499203,0.2439413,-0.4598511,0.118945315,-1.2106934,88.0
1443,4.6979237,-0.14060593,0.14528751,-0.4598511,0.118945315,-1.2106934,88.0
1444,4.6979237,-0.14060593,0.14528751,-0.20603028,0.06903076,-1.1724609,88.0
1445,2.7907362,0.11846018,0.16126156,-0.20603028,0.06903076,-1.1724609,88.0
1446,2.7907362,0.11846018,0.16126156,-0.023364259,0.0021240234,-1.0365235,88.0
1447,1.2636557,0.20107937,0.37683678,-0.023364259,0.0021240234,-1.0365235,88.0
1448,1.2636557,0.20107937,0.37683678,0.22939454,-0.07434082,-0.8379273,88.0
1449,0.9145012,0.1106925,0.6144943,0.22939454,-0.07434082,-0.8379273,88.0
1450,0.9145012,0.1106925,0.6144943,0.42268068,-0.13381349,-0.59047854,88.0
1451,1.4557953,0.14159346,0.61436176,0.42268068,-0.13381349,-0.59047854,88.0
1452,1.4557953,0.14159346,0.61436176,0.46409914,-0.095581055,-0.3706421,88.0
1453,2.0250978,0.29067945,0.31852818,0.46409914,-0.095581055,-0.3706421,88.0
1454,2.0250978,0.29067945,0.31852818,0.3971924,-0.045666505,-0.23789063,88.0
1455,2.0877662,0.38251925,-0.07414436,0.3971924,-0.045666505,-0.23789063,88.0
1456,2.0877662,0.38251925,-0.07414436,0.24107666,0.0180542,-0.16992188,88.0
1457,1.6524029,0.44311285,-0.2864151,0.24107666,0.0180542,-0.16992188,88.0
1458,1.6524029,0.44311285,-0.2864151,-0.093457036,0.08602295,-0.13062744,88.0
1459,1.6524029,0.44311285,-0.2864151,-0.093457036,0.08602295,-0.13062744,89.0
1460,0.85971546,0.58953667,-0.24612427,-0.093457036,0.08602295,-0.13062744,89.0
1461,0.85971546,0.58953667,-0.24612427,-0.56817627,0.16354981,-0.118945315,89.0
1462,-0.06935692,0.6950793,-0.123254776,-0.56817627,0.16354981,-0.118945315,89.0
1463,-0.06935692,0.6950793,-0.123254776,-0.9228882,0.19328614,-0.12850343,89.0
1464,-0.81901073,0.6401453,-0.07858467,-0.9228882,0.19328614,-0.12850343,89.0
1465,-0.81901073,0.6401453,-0.07858467,-1.1161743,0.2081543,-0.14655761,89.0
1466,-1.197689,0.48706722,-0.14323902,-1.1161743,0.2081543,-0.14655761,89.0
1467,-1.197689,0.48706722,-0.14323902,-1.1321045,0.22408448,-0.18160401,89.0
1468,-1.2312107,0.35038376,-0.25980663,-1.1321045,0.22408448,-0.18160401,89.0
1469,-1.2312107,0.35038376,-0.25980663,-1.0184692,0.2347046,-0.24957275,89.0
1470,-0.99153614,0.2917328,-0.33848476,-1.0184692,0.2347046,-0.24957275,89.0
1471,-0.99153614,0.2917328,-0.33848476,-0.8889038,0.2538208,-0.35895997,89.0
1472,-0.6331215,0.2924683,-0.34570217,-0.8889038,0.2538208,-0.35895997,89.0
1473,-0.6331215,0.2924683,-0.34570217,-0.7965088,0.270813,-0.47365722,89.0
1474,-0.27766418,0.3055446,-0.27315617,-0.7965088,0.270813,-0.47365722,89.0
1475,-0.27766418,0.3055446,-0.27315617,-0.74871826,0.27718505,-0.5809204,89.0
1476,0.0049681664,0.37503886,-0.14418411,-0.74871826,0.27718505,-0.5809204,89.0
1477,0.0049681664,0.37503886,-0.14418411,-0.7858887,0.27718505,-0.6701294,89.0
1478,0.13269758,0.46685243,-0.030776978,-0.7858887,0.27718505,-0.6701294,89.0
1479,0.13269758,0.46685243,-0.030776978,-0.84536135,0.26762697,-0.721106,89.0
1480,0.12440729,0.45436573,0.009033203,-0.84536135,0.26762697,-0.721106,89.0
1481,0.12440729,0.45436573,0.009033203,-0.8400513,0.22833252,-0.74871826,89.0
1482,-0.069663525,0.43199825,0.015185356,-0.8400513,0.22833252,-0.74871826,89.0
1483,-0.069663525,0.43199825,0.015185356,-0.7349121,0.17735596,-0.77102053,89.0
1484,-0.115386486,0.3373711,0.057497025,-0.7349121,0.17735596,-0.77102053,89.0
1485,-0.115386486,0.3373711,0.057497025,-0.52888185,0.12319336,-0.8007569,89.0
1486,0.23970985,0.1251216,0.124097824,-0.52888185,0.12319336,-0.8007569,89.0
1487,0.23970985,0.1251216,0.124097824,-0.26762697,0.06265869,-0.8517334,89.0
1488,0.73703146,-0.052368402,0.18047905,-0.26762697,0.06265869,-0.8517334,89.0
1489,0.73703146,-0.052368402,0.18047905,-0.012744141,0.0180542,-0.9303223,89.0
1490,1.2572517,-0.19121122,0.19129467,-0.012744141,0.0180542,-0.9303223,89.0
1491,1.2572517,-0.19121122,0.19129467,0.18372802,-0.021240234,-1.0322754,89.0
1492,1.712564,-0.28810096,0.16748905,0.18372802,-0.021240234,-1.0322754,89.0
1493,1.712564,-0.28810096,0.16748905,0.26868898,-0.02442627,-1.1257324,89.0
1494,1.9980907,-0.36365962,0.08346653,0.26868898,-0.02442627,-1.1257324,89.0
1495,1.9980907,-0.36365962,0.08346653,0.24851075,-0.016992187,-1.1597168,89.0
1496,2.0940533,-0.4474461,-0.06685734,0.24851075,-0.016992187,-1.1597168,89.0
1497,2.0940533,-0.4474461,-0.06685734,0.19222413,-0.015930176,-1.1342286,89.0
1498,1.9758892,-0.52707314,-0.24289036,0.19222413,-0.015930176,-1.1342286,89.0
1499,1.9758892,-0.52707314,-0.24289036,0.07115479,-0.012744141,-1.0089111,89.0
1500,1.7332869,-0.6475496,-0.37047195,0.07115479,-0.012744141,-1.0089111,89.0
1501,1.7332869,-0.6475496,-0.37047195,0.043542482,-0.05522461,-0.84111327,89.0
1502,1.496542,-0.7672584,-0.38771057,0.043542482,-0.05522461,-0.84111327,89.0
1503,1.496542,-0.7672584,-0.38771057,0.053100586,-0.07540283,-0.6000366,89.0
1504,0.9350872,-0.6933112,-0.37438965,0.053100586,-0.07540283,-0.6000366,89.0
1505,0.9350872,-0.6933112,-0.37438965,0.08814698,-0.11151123,-0.29311523,89.0
1506,-0.39582634,-0.31741762,-0.41691875,0.08814698,-0.11151123,-0.29311523,89.0
1507,-0.39582634,-0.31741762,-0.41691875,0.12850343,-0.15611573,0.07115479,89.0
1508,-2.183238,0.16745281,-0.44260502,0.12850343,-0.15611573,0.07115479,89.0
1509,-2.183238,0.16745281,-0.44260502,0.29736328,-0.26975098,0.4619751,89.0
1510,-3.2407923,0.37401342,-0.36327553,0.29736328,-0.26975098,0.4619751,89.0
1511,-3.2407923,0.37401342,-0.36327553,0.61278075,-0.41949463,0.78164065,89.0
1512,-2.9082956,0.23268223,-0.24617481,0.61278075,-0.41949463,0.78164065,89.0
1513,-2.9082956,0.23268223,-0.24617481,0.95581055,-0.48321533,1.0036011,89.0
1514,-1.7816296,-0.04616642,-0.19752598,0.95581055,-0.48321533,1.0036011,89.0
1515,-1.7816296,-0.04616642,-0.19752598,1.2924683,-0.5033936,1.1257324,89.0
1516,-0.6278429,-0.31511927,-0.25045204,1.2924683,-0.5033936,1.1257324,89.0
1517,-0.6278429,-0.31511927,-0.25045204,1.5526612,-0.4970215,1.1565307,89.0
1518,0.28118515,-0.44383144,-0.31763458,1.5526612,-0.4970215,1.1565307,89.0
1519,0.28118515,-0.44383144,-0.31763458,1.5643433,-0.44073486,1.1490967,89.0
1520,0.840219,-0.4159174,-0.28671265,1.5643433,-0.44073486,1.1490967,89.0
1521,0.840219,-0.4159174,-0.28671265,1.442212,-0.36108398,1.1469727,89.0
1522,0.98405266,-0.2823677,-0.12187481,1.442212,-0.36108398,1.1469727,89.0
1523,0.98405266,-0.2823677,-0.12187481,1.2478638,-0.2899292,1.1660889,89.0
1524,0.79944897,-0.0723176,0.11620903,1.2478638,-0.2899292,1.1660889,89.0
1525,0.79944897,-0.0723176,0.11620903,0.9260742,-0.22196046,1.2149414,89.0
1526,0.43116093,0.091462135,0.30154896,0.9260742,-0.22196046,1.2149414,89.0
1527,0.43116093,0.091462135,0.30154896,0.5671143,-0.13699952,1.3307008,89.0
1528,-0.08158493,0.14643621,0.31081867,0.5671143,-0.13699952,1.3307008,89.0
1529,-0.08158493,0.14643621,0.31081867,0.25913087,-0.11151123,1.4581422,89.0
1530,-0.5066376,0.1621685,0.11994362,0.25913087,-0.11151123,1.4581422,89.0
1531,-0.5066376,0.1621685,0.11994362,0.10407715,-0.10301514,1.5813354,89.0
1532,-0.72600126,0.13858509,-0.082219124,0.10407715,-0.10301514,1.5813354,89.0
1533,-0.72600126,0.13858509,-0.082219124,0.13487549,-0.13275146,1.6567383,89.0
1534,-0.72600126,0.13858509,-0.082219124,0.26019287,-0.16036378,1.6790406,89.0
1535,-0.81072044,0.10629034,-0.1265173,0.26019287,-0.16036378,1.6790406,89.0
1536,-1.4464521,0.23458052,0.2618351,0.26019287,-0.16036378,1.6790406,89.0
1537,-1.4464521,0.23458052,0.2618351,0.44604492,-0.16885987,1.6631104,89.0
1538,-1.4464521,0.23458052,0.2618351,0.62552494,-0.16567384,1.6089478,89.0
1539,-1.4464521,0.23458052,0.2618351,0.6977417,-0.14974366,1.5208008,89.0
1540,-1.6075768,0.24594069,0.3074665,0.6977417,-0.14974366,1.5208008,89.0
1541,-1.6075768,0.24594069,0.3074665,0.6924316,-0.115759276,1.4156617,89.0
1542,-1.6075768,0.24594069,0.3074665,0.6924316,-0.115759276,1.4156617,89.0
1543,-1.7246604,0.24338341,0.25527477,0.6924316,-0.115759276,1.4156617,89.0
1544,-1.7246604,0.24338341,0.25527477,0.65844727,-0.09133301,1.2786621,89.0
1545,-1.721818,0.24601269,0.13949776,0.65844727,-0.09133301,1.2786621,89.0
1546,-1.721818,0.24601269,0.13949776,0.58410645,-0.06690674,1.1225464,89.0
1547,-1.586793,0.22587514,0.04118824,0.58410645,-0.06690674,1.1225464,89.0
1548,-1.586793,0.22587514,0.04118824,0.5171997,-0.033984374,0.9398804,89.0
1549,-1.3216314,0.13387394,0.029972076,0.5171997,-0.033984374,0.9398804,89.0
1550,-1.3216314,0.13387394,0.029972076,0.49277344,-0.0021240234,0.72854006,89.0
1551,-0.8634939,-0.020525455,0.10025883,0.49277344,-0.0021240234,0.72854006,89.0
1552,-0.8634939,-0.020525455,0.10025883,0.47684327,0.035046387,0.4619751,89.0
1553,-0.15997219,-0.18597603,0.16223812,0.47684327,0.035046387,0.4619751,89.0
1554,-0.15997219,-0.18597603,0.16223812,0.43011475,0.07752686,0.14124756,89.0
1555,0.7003422,-0.346498,0.19375515,0.43011475,0.07752686,0.14124756,89.0
1556,0.7003422,-0.346498,0.19375515,0.36639404,0.12956543,-0.2177124,89.0
1557,1.5422807,-0.45528698,0.21517277,0.36639404,0.12956543,-0.2177124,89.0
1558,1.5422807,-0.45528698,0.21517277,0.23258057,0.18054199,-0.60216063,89.0
1559,2.1371446,-0.4774618,0.23712826,0.23258057,0.18054199,-0.60216063,89.0
1560,2.1371446,-0.4774618,0.23712826,0.0,0.24213867,-0.93563235,89.0
1561,2.2338734,-0.44078302,0.26250553,0.0,0.24213867,-0.93563235,89.0
1562,2.2338734,-0.44078302,0.26250553,-0.2527588,0.29311523,-1.1968873,89.0
1563,1.9487929,-0.40125895,0.32339573,-0.2527588,0.29311523,-1.1968873,89.0
1564,1.9487929,-0.40125895,0.32339573,-0.44816896,0.3164795,-1.3912354,89.0
