,accx,accy,accz,gyrox,gyroy,gyroz,heart rate
0,walk,walk,walk,walk,walk,walk,walk
1,-5.0889525,-64.362625,38.32212,0.0,0.0,0.0,0.0
2,-5.0889525,-64.362625,38.32212,0.021240234,-0.032922365,-0.027612304,0.0
3,-5.0889525,-64.362625,38.32212,-0.04885254,-0.023364259,-0.02442627,0.0
4,-4.1111526,-51.43972,30.661907,-0.04885254,-0.023364259,-0.02442627,0.0
5,-3.3312192,-41.201057,24.641745,-0.04885254,-0.023364259,-0.02442627,0.0
6,-3.3312192,-41.201057,24.641745,-0.046728518,-0.014868164,-0.015930176,0.0
7,-2.6529026,-32.99124,19.74976,-0.046728518,-0.014868164,-0.015930176,0.0
8,-2.6529026,-32.99124,19.74976,-0.010620117,-0.03079834,-0.022302246,0.0
9,-2.081636,-26.392685,15.784828,-0.010620117,-0.03079834,-0.022302246,0.0
10,-2.081636,-26.392685,15.784828,0.0,-0.026550293,-0.028674318,0.0
11,-1.6781139,-21.132935,12.681282,0.0,-0.026550293,-0.028674318,0.0
12,-1.6781139,-21.132935,12.681282,-0.019116212,-0.010620117,-0.02442627,0.0
13,-1.3799667,-16.917797,10.226299,-0.019116212,-0.010620117,-0.02442627,0.0
14,-1.3799667,-16.917797,10.226299,-0.0010620117,-0.0053100586,-0.021240234,0.0
15,-1.0966249,-13.503952,8.169563,-0.0010620117,-0.0053100586,-0.021240234,0.0
16,-1.0966249,-13.503952,8.169563,0.0180542,-0.032922365,-0.019116212,0.0
17,-0.84316874,-10.760788,6.465996,0.0180542,-0.032922365,-0.019116212,0.0
18,-0.84316874,-10.760788,6.465996,0.009558106,-0.028674318,-0.038232423,0.0
19,-0.6889758,-8.624008,5.151886,0.009558106,-0.028674318,-0.038232423,0.0
20,-0.6889758,-8.624008,5.151886,0.0031860352,-0.015930176,-0.019116212,0.0
21,-0.57808495,-6.94149,4.134815,0.0031860352,-0.015930176,-0.019116212,0.0
22,-0.57808495,-6.94149,4.134815,0.0021240234,-0.016992187,-0.0021240234,0.0
23,-0.4406662,-5.553398,3.2929726,0.0021240234,-0.016992187,-0.0021240234,0.0
24,-0.4406662,-5.553398,3.2929726,-0.009558106,-0.023364259,-0.004248047,0.0
25,-0.32594585,-4.411972,2.621254,-0.009558106,-0.023364259,-0.004248047,0.0
26,-0.32594585,-4.411972,2.621254,-0.027612304,-0.016992187,-0.010620117,0.0
27,-0.27625942,-3.5372467,2.1120415,-0.027612304,-0.016992187,-0.010620117,0.0
28,-0.27625942,-3.5372467,2.1120415,-0.008496094,-0.014868164,-0.016992187,0.0
29,-0.23257971,-2.8721085,1.6991196,-0.008496094,-0.014868164,-0.016992187,0.0
30,-0.23257971,-2.8721085,1.6991196,0.0031860352,-0.015930176,-0.012744141,0.0
31,-0.16716719,-2.3248138,1.3665581,0.0031860352,-0.015930176,-0.012744141,0.0
32,-0.16716719,-2.3248138,1.3665581,0.015930176,-0.02442627,-0.007434082,0.0
33,-0.12255192,-1.8410645,1.1162567,0.015930176,-0.02442627,-0.007434082,0.0
34,-0.12255192,-1.8410645,1.1162567,0.016992187,-0.026550293,-0.0021240234,0.0
35,-0.10303402,-1.4271088,0.9092865,0.016992187,-0.026550293,-0.0021240234,0.0
36,-0.10303402,-1.4271088,0.9092865,-0.016992187,-0.020178223,0.0010620117,0.0
37,-0.10303402,-1.4271088,0.9092865,-0.004248047,-0.0031860352,-0.0053100586,0.0
38,-0.07100105,-1.145401,0.7257347,-0.004248047,-0.0031860352,-0.0053100586,0.0
39,-0.04914713,-0.9360962,0.5806732,-0.004248047,-0.0031860352,-0.0053100586,0.0
40,-0.04914713,-0.9360962,0.5806732,0.045666505,-0.0053100586,-0.016992187,0.0
41,-0.039317608,-0.70332336,0.4312744,0.045666505,-0.0053100586,-0.016992187,0.0
42,-0.039317608,-0.70332336,0.4312744,0.008496094,-0.004248047,-0.014868164,0.0
43,-0.013119221,-0.52028656,0.3138199,0.008496094,-0.004248047,-0.014868164,0.0
44,-0.013119221,-0.52028656,0.3138199,-0.0541626,0.0021240234,0.0,0.0
45,0.018081665,-0.46192932,0.25196075,-0.0541626,0.0021240234,0.0,0.0
46,0.018081665,-0.46192932,0.25196075,-0.04885254,-0.009558106,0.0021240234,0.0
47,0.029541016,-0.4272232,0.19994354,-0.04885254,-0.009558106,0.0021240234,0.0
48,0.029541016,-0.4272232,0.19994354,0.022302246,-0.026550293,-0.020178223,0.0
49,0.025586128,-0.31891632,0.15330124,0.022302246,-0.026550293,-0.020178223,0.0
50,0.025586128,-0.31891632,0.15330124,0.013806152,-0.010620117,-0.023364259,0.0
51,0.009958744,-0.21271515,0.1401062,0.013806152,-0.010620117,-0.023364259,0.0
52,0.009958744,-0.21271515,0.1401062,-0.035046387,0.009558106,-0.016992187,0.0
53,4.5967102E-4,-0.21598816,0.14493561,-0.035046387,0.009558106,-0.016992187,0.0
54,4.5967102E-4,-0.21598816,0.14493561,-0.019116212,0.010620117,-0.014868164,0.0
55,4.5967102E-4,-0.21598816,0.14493561,0.012744141,-0.0010620117,-0.016992187,0.0
56,-0.007286072,-0.2495575,0.121673584,0.012744141,-0.0010620117,-0.016992187,0.0
57,-0.007286072,-0.2495575,0.121673584,0.012744141,-0.0010620117,-0.016992187,77.0
58,-0.04423237,-0.18093872,0.08346939,0.012744141,-0.0010620117,-0.016992187,77.0
59,-0.04423237,-0.18093872,0.08346939,0.023364259,-0.016992187,-0.016992187,77.0
60,-0.07942867,-0.033493042,0.041301727,0.023364259,-0.016992187,-0.016992187,77.0
61,-0.07942867,-0.033493042,0.041301727,-0.015930176,-0.020178223,-0.025488282,77.0
62,-0.06921959,0.031455994,0.02671814,-0.015930176,-0.020178223,-0.025488282,77.0
63,-0.06921959,0.031455994,0.02671814,-0.05628662,-0.007434082,-0.023364259,77.0
64,-0.06921959,0.031455994,0.02671814,-0.023364259,0.0021240234,-0.0063720704,77.0
65,-0.043889046,-0.058807373,0.09035492,-0.023364259,0.0021240234,-0.0063720704,77.0
66,-0.038944244,-0.12408447,0.12336731,-0.023364259,0.0021240234,-0.0063720704,77.0
67,-0.038944244,-0.12408447,0.12336731,0.029736329,-0.0063720704,-0.010620117,77.0
68,-0.038882256,-0.057281494,0.031677246,0.029736329,-0.0063720704,-0.010620117,77.0
69,-0.038882256,-0.057281494,0.031677246,-0.007434082,-0.013806152,-0.019116212,77.0
70,-0.0121359825,-0.01499176,-0.03857422,-0.007434082,-0.013806152,-0.019116212,77.0
71,-0.0121359825,-0.01499176,-0.03857422,-0.025488282,-0.016992187,-0.0053100586,77.0
72,0.054316998,-0.046684265,0.011985779,-0.025488282,-0.016992187,-0.0053100586,77.0
73,0.054316998,-0.046684265,0.011985779,0.0,-0.011682129,-0.0053100586,77.0
74,0.058773518,-0.014572144,0.038871765,0.0,-0.011682129,-0.0053100586,77.0
75,0.058773518,-0.014572144,0.038871765,0.004248047,-0.0021240234,-0.019116212,77.0
76,-0.03380394,0.080703735,-0.04851532,0.004248047,-0.0021240234,-0.019116212,77.0
77,-0.03380394,0.080703735,-0.04851532,-0.011682129,-0.016992187,-0.039294433,77.0
78,-0.0928998,0.10015869,-0.15540314,-0.011682129,-0.016992187,-0.039294433,77.0
79,-0.0928998,0.10015869,-0.15540314,-0.025488282,-0.033984374,-0.0637207,77.0
80,-0.048660755,0.008659363,-0.15590286,-0.025488282,-0.033984374,-0.0637207,77.0
81,-0.048660755,0.008659363,-0.15590286,-0.039294433,-0.057348635,-0.050976563,77.0
82,0.04602003,-0.06149292,-0.04585266,-0.039294433,-0.057348635,-0.050976563,77.0
83,0.04602003,-0.06149292,-0.04585266,-0.032922365,-0.06159668,-0.014868164,77.0
84,0.07432842,-0.014518738,0.0055160522,-0.032922365,-0.06159668,-0.014868164,77.0
85,0.07432842,-0.014518738,0.0055160522,-0.026550293,-0.06584473,-0.020178223,77.0
86,0.026918411,0.10454559,-0.07349396,-0.026550293,-0.06584473,-0.020178223,77.0
87,0.026918411,0.10454559,-0.07349396,-0.040356446,-0.08496094,-0.070092775,77.0
88,-0.013609409,0.086006165,-0.17581177,-0.040356446,-0.08496094,-0.070092775,77.0
89,-0.013609409,0.086006165,-0.17581177,-0.07115479,-0.10195313,-0.07540283,77.0
90,0.031617165,-0.08345032,-0.10165787,-0.07115479,-0.10195313,-0.07540283,77.0
91,0.031617165,-0.08345032,-0.10165787,-0.057348635,-0.115759276,-0.016992187,77.0
92,0.10820389,-0.12776947,0.043418884,-0.057348635,-0.115759276,-0.016992187,77.0
93,0.10820389,-0.12776947,0.043418884,-0.025488282,-0.10301514,-0.0053100586,77.0
94,0.105789185,-0.028968811,0.056293488,-0.025488282,-0.10301514,-0.0053100586,77.0
95,0.105789185,-0.028968811,0.056293488,-0.03186035,-0.1083252,-0.029736329,77.0
96,8.907318E-4,-0.0066070557,0.06877899,-0.03186035,-0.1083252,-0.029736329,77.0
97,8.907318E-4,-0.0066070557,0.06877899,-0.04141846,-0.09664307,-0.04991455,77.0
98,-0.16479015,-0.13091278,0.15452194,-0.04141846,-0.09664307,-0.04991455,77.0
99,-0.16479015,-0.13091278,0.15452194,-0.0063720704,-0.13912354,-0.04141846,77.0
100,-0.25686884,-0.2893982,0.21412277,-0.0063720704,-0.13912354,-0.04141846,77.0
101,-0.25686884,-0.2893982,0.21412277,0.0053100586,-0.16779785,0.04248047,77.0
102,-0.20855904,-0.3118286,0.24837494,0.0053100586,-0.16779785,0.04248047,77.0
103,-0.20855904,-0.3118286,0.24837494,0.115759276,-0.16779785,0.11044922,77.0
104,-0.15841198,-0.11667633,0.17736053,0.115759276,-0.16779785,0.11044922,77.0
105,-0.15841198,-0.11667633,0.17736053,0.10301514,-0.1178833,0.15505372,77.0
106,-0.16922235,0.12841797,-0.020259857,0.10301514,-0.1178833,0.15505372,77.0
107,-0.16922235,0.12841797,-0.020259857,0.029736329,-0.1263794,0.14655761,77.0
108,-0.14587593,0.18383789,-0.20886993,0.029736329,-0.1263794,0.14655761,77.0
109,-0.14587593,0.18383789,-0.20886993,0.029736329,-0.18054199,0.10620117,77.0
110,-0.05457878,0.06864929,-0.32157516,0.029736329,-0.18054199,0.10620117,77.0
111,-0.05457878,0.06864929,-0.32157516,-0.015930176,-0.18903808,0.05628662,77.0
112,-0.024473667,-0.0631485,-0.41307068,-0.015930176,-0.18903808,0.05628662,77.0
113,-0.024473667,-0.0631485,-0.41307068,-0.09239502,-0.20921631,-0.028674318,77.0
114,-0.2141347,-0.092544556,-0.6024399,-0.09239502,-0.20921631,-0.028674318,77.0
115,-0.2141347,-0.092544556,-0.6024399,-0.18160401,-0.25594482,-0.14974366,77.0
116,-0.267035,-0.035614014,-0.7227745,-0.18160401,-0.25594482,-0.14974366,77.0
117,-0.267035,-0.035614014,-0.7227745,-0.25594482,-0.36320803,-0.2166504,77.0
118,-0.22148895,0.28186035,-1.508297,-0.25594482,-0.36320803,-0.2166504,77.0
119,-0.22148895,0.28186035,-1.508297,-0.59897465,-0.541626,-0.35152587,77.0
120,0.0014343262,0.4017105,-1.6423569,-0.59897465,-0.541626,-0.35152587,77.0
121,0.0014343262,0.4017105,-1.6423569,-0.75721437,-0.62764895,-0.271875,77.0
122,0.5614381,0.45357513,-2.071125,-0.75721437,-0.62764895,-0.271875,77.0
123,0.5614381,0.45357513,-2.071125,-1.0195312,-0.52888185,0.0010620117,77.0
124,0.54144764,0.27861786,-1.9136658,-1.0195312,-0.52888185,0.0010620117,77.0
125,0.54144764,0.27861786,-1.9136658,-1.265918,-0.45772704,-0.016992187,77.0
126,0.37628555,0.40556335,-1.8048935,-1.265918,-0.45772704,-0.016992187,77.0
127,0.37628555,0.40556335,-1.8048935,-2.4224489,-0.54693604,0.015930176,77.0
128,0.32026672,0.50938416,-1.8453331,-2.4224489,-0.54693604,0.015930176,77.0
129,0.32026672,0.50938416,-1.8453331,-2.7729127,-0.6690674,-0.20284425,77.0
130,0.23431396,-0.5903473,-1.9023895,-2.7729127,-0.6690674,-0.20284425,77.0
131,0.23431396,-0.5903473,-1.9023895,-2.6645875,-0.80181885,0.1359375,77.0
132,0.014123917,-1.0803452,-1.9414825,-2.6645875,-0.80181885,0.1359375,77.0
133,0.014123917,-1.0803452,-1.9414825,-2.3332398,-0.9228882,0.0998291,77.0
134,-0.26753426,-2.7420502,-1.9210587,-2.3332398,-0.9228882,0.0998291,77.0
135,-0.26753426,-2.7420502,-1.9210587,-0.9834229,-1.3391968,-0.11044922,77.0
136,-0.15887594,-2.5304413,-1.5113945,-0.9834229,-1.3391968,-0.11044922,77.0
137,-0.15887594,-2.5304413,-1.5113945,-0.50445557,-1.5292969,-0.2347046,77.0
138,0.4203844,-1.8013306,-0.2744751,-0.50445557,-1.5292969,-0.2347046,77.0
139,0.4203844,-1.8013306,-0.2744751,-0.4428589,-1.7767457,-0.37807617,77.0
140,0.5067787,-1.0074768,-0.0088272095,-0.4428589,-1.7767457,-0.37807617,77.0
141,0.5067787,-1.0074768,-0.0088272095,-0.632959,-1.803296,-0.3802002,77.0
142,1.4028716,-0.21174622,0.16730118,-0.632959,-1.803296,-0.3802002,77.0
143,1.4028716,-0.21174622,0.16730118,-0.631897,-1.8277222,-0.59047854,77.0
144,1.3774977,-0.38742828,0.018859863,-0.631897,-1.8277222,-0.59047854,77.0
145,1.3774977,-0.38742828,0.018859863,-0.4694092,-1.9275513,-0.50870365,77.0
146,1.3301597,-0.4718628,0.042236328,-0.4694092,-1.9275513,-0.50870365,77.0
147,1.3301597,-0.4718628,0.042236328,-0.15186767,-2.2238526,-0.5171997,77.0
148,0.8568039,0.15411377,-0.013916016,-0.15186767,-2.2238526,-0.5171997,77.0
149,0.8568039,0.15411377,-0.013916016,-0.4428589,-2.1155274,-0.24001466,77.0
150,0.45558453,2.2822037,-0.42442703,-0.4428589,-2.1155274,-0.24001466,77.0
151,0.45558453,2.2822037,-0.42442703,-1.4114136,-2.1038454,-0.4439209,77.0
152,0.422256,2.336998,-0.65760803,-1.4114136,-2.1038454,-0.4439209,77.0
153,0.422256,2.336998,-0.65760803,-1.7289551,-2.0305665,-0.47790527,77.0
154,1.5815792,1.4619675,-1.395359,-1.7289551,-2.0305665,-0.47790527,77.0
155,1.5815792,1.4619675,-1.395359,-2.0985353,-1.5165528,-0.97386473,77.0
156,1.824614,0.5713806,-1.7394104,-2.0985353,-1.5165528,-0.97386473,77.0
157,1.824614,0.5713806,-1.7394104,-1.8744507,-1.5484132,-1.0418335,77.0
158,2.2281728,-2.2303848,-2.6133766,-1.8744507,-1.5484132,-1.0418335,77.0
159,2.2281728,-2.2303848,-2.6133766,-0.50233155,-2.071985,-1.2032593,77.0
160,1.7605779,-2.158966,-2.140751,-0.50233155,-2.071985,-1.2032593,77.0
161,1.7605779,-2.158966,-2.140751,-0.20390625,-2.2323487,-1.1958252,77.0
162,1.6556914,-0.92819977,-0.7927666,-0.20390625,-2.2323487,-1.1958252,77.0
163,1.6556914,-0.92819977,-0.7927666,0.2527588,-2.2121704,-1.2319336,77.0
164,1.4728684,-0.24057007,-0.39771652,0.2527588,-2.2121704,-1.2319336,77.0
165,1.4728684,-0.24057007,-0.39771652,0.29736328,-2.160132,-1.1990112,77.0
166,1.4728684,-0.24057007,-0.39771652,0.29736328,-2.160132,-1.1990112,78.0
167,1.8317006,0.6825943,-0.80570984,0.29736328,-2.160132,-1.1990112,78.0
168,1.8317006,0.6825943,-0.80570984,0.2984253,-1.8914429,-1.1204224,78.0
169,1.6556437,0.56383514,-0.92017746,0.2984253,-1.8914429,-1.1204224,78.0
170,1.6556437,0.56383514,-0.92017746,0.22089843,-1.8956909,-1.0248413,78.0
171,2.2386873,0.18093872,-1.1874237,0.22089843,-1.8956909,-1.0248413,78.0
172,2.2386873,0.18093872,-1.1874237,0.33240968,-1.7448853,-0.9589966,78.0
173,2.2597733,-0.008728027,-0.91667557,0.33240968,-1.7448853,-0.9589966,78.0
174,2.2597733,-0.008728027,-0.91667557,0.36639404,-1.7671875,-0.94731444,78.0
175,2.951825,-0.15112305,-0.6544342,0.36639404,-1.7671875,-0.94731444,78.0
176,2.951825,-0.15112305,-0.6544342,0.24744873,-1.5760254,-1.0641358,78.0
177,3.4893532,-0.12538147,-0.45650482,0.24744873,-1.5760254,-1.0641358,78.0
178,3.4893532,-0.12538147,-0.45650482,0.18691407,-1.4209718,-1.2372437,78.0
179,3.8705351,-0.13964844,-0.29855347,0.18691407,-1.4209718,-1.2372437,78.0
180,3.8705351,-0.13964844,-0.29855347,-0.038232423,-1.1098022,-1.5069946,78.0
181,3.2184863,-0.091156006,-0.2576561,-0.038232423,-1.1098022,-1.5069946,78.0
182,3.2184863,-0.091156006,-0.2576561,-0.22727051,-0.9770508,-1.5898316,78.0
183,1.106967,0.4594345,-0.34423447,-0.22727051,-0.9770508,-1.5898316,78.0
184,1.106967,0.4594345,-0.34423447,-0.71367186,-0.7476563,-1.6131958,78.0
185,0.04743862,0.8113327,-0.45256042,-0.71367186,-0.7476563,-1.6131958,78.0
186,0.04743862,0.8113327,-0.45256042,-0.8995239,-0.6924316,-1.5654052,78.0
187,-2.479554,1.769867,-1.0235825,-0.8995239,-0.6924316,-1.5654052,78.0
188,-2.479554,1.769867,-1.0235825,-1.2404298,-0.36851808,-1.4114136,78.0
189,-2.2647834,1.6135406,-1.252449,-1.2404298,-0.36851808,-1.4114136,78.0
190,-2.2647834,1.6135406,-1.252449,-1.084314,-0.30479738,-1.359375,78.0
191,-1.7429425,1.2678146,-1.3566704,-1.084314,-0.30479738,-1.359375,78.0
192,-1.7429425,1.2678146,-1.3566704,-1.1533448,-0.13062744,-1.3487549,78.0
193,-0.8110287,0.9589386,-0.7005806,-1.1533448,-0.13062744,-1.3487549,78.0
194,-0.8110287,0.9589386,-0.7005806,-1.7427613,-0.118945315,-1.2308716,78.0
195,0.14702666,0.8762207,-0.16399384,-1.7427613,-0.118945315,-1.2308716,78.0
196,0.14702666,0.8762207,-0.16399384,-2.1781862,-0.07115479,-1.1618408,78.0
197,0.9594915,0.9462738,-0.6480026,-2.1781862,-0.07115479,-1.1618408,78.0
198,0.9594915,0.9462738,-0.6480026,-2.2079225,0.544812,-1.2064453,78.0
199,0.9075589,0.7641144,-1.6995773,-2.2079225,0.544812,-1.2064453,78.0
200,0.9075589,0.7641144,-1.6995773,-1.7682495,0.48109132,-1.1098022,78.0
201,-0.06063509,0.27990723,-2.4296227,-1.7682495,0.48109132,-1.1098022,78.0
202,-0.06063509,0.27990723,-2.4296227,-0.93350834,0.06265869,-0.9653687,78.0
203,-0.9427464,0.38763428,-2.442562,-0.93350834,0.06265869,-0.9653687,78.0
204,-0.9427464,0.38763428,-2.442562,-0.73703617,-0.078588866,-0.79226077,78.0
205,-0.9647684,0.8765259,-1.8837357,-0.73703617,-0.078588866,-0.79226077,78.0
206,-0.9647684,0.8765259,-1.8837357,-0.5341919,-0.10301514,-0.6711914,78.0
207,-0.38024986,1.0161514,-1.280632,-0.5341919,-0.10301514,-0.6711914,78.0
208,-0.38024986,1.0161514,-1.280632,-0.16461182,-0.15930176,-0.55755615,78.0
209,0.21978688,0.78964233,-0.94207,-0.16461182,-0.15930176,-0.55755615,78.0
210,0.21978688,0.78964233,-0.94207,0.04141846,-0.2177124,-0.45560303,78.0
211,0.5516474,0.5677948,-0.8329544,0.04141846,-0.2177124,-0.45560303,78.0
212,0.5516474,0.5677948,-0.8329544,0.022302246,-0.23258057,-0.3462158,78.0
213,0.5736666,0.5211029,-0.7206459,0.022302246,-0.23258057,-0.3462158,78.0
214,0.5736666,0.5211029,-0.7206459,-0.15930176,-0.21240234,-0.2538208,78.0
215,0.36077642,0.5337906,-0.4671898,-0.15930176,-0.21240234,-0.2538208,78.0
216,0.36077642,0.5337906,-0.4671898,-0.2262085,-0.22514649,-0.1274414,78.0
217,0.08332324,0.52246857,-0.21060562,-0.2262085,-0.22514649,-0.1274414,78.0
218,0.08332324,0.52246857,-0.21060562,-0.24213867,-0.2357666,-0.02442627,78.0
219,-0.0740397,0.4386139,-0.03061676,-0.24213867,-0.2357666,-0.02442627,78.0
220,-0.0740397,0.4386139,-0.03061676,-0.1720459,-0.21240234,0.07752686,78.0
221,-0.07368493,0.33363342,0.19436646,-0.1720459,-0.21240234,0.07752686,78.0
222,-0.07368493,0.33363342,0.19436646,-0.09664307,-0.18160401,0.1359375,78.0
223,0.0034544468,0.28684235,0.383873,-0.09664307,-0.18160401,0.1359375,78.0
224,0.0034544468,0.28684235,0.383873,-0.06265869,-0.14868164,0.17841797,78.0
225,0.1117723,0.1860199,0.39263535,-0.06265869,-0.14868164,0.17841797,78.0
226,0.1117723,0.1860199,0.39263535,-0.03717041,-0.10301514,0.21134034,78.0
227,0.30612922,-0.055160522,0.30743027,-0.03717041,-0.10301514,0.21134034,78.0
228,0.30612922,-0.055160522,0.30743027,0.057348635,-0.095581055,0.26019287,78.0
229,0.6488097,-0.28115082,0.24639511,0.057348635,-0.095581055,0.26019287,78.0
230,0.6488097,-0.28115082,0.24639511,0.15505372,-0.03717041,0.2888672,78.0
231,1.0445971,-0.42887878,0.24721146,0.15505372,-0.03717041,0.2888672,78.0
232,1.0445971,-0.42887878,0.24721146,0.22302246,-0.0063720704,0.3079834,78.0
233,1.3855679,-0.5549469,0.27935028,0.22302246,-0.0063720704,0.3079834,78.0
234,1.3855679,-0.5549469,0.27935028,0.19116211,0.0031860352,0.29417726,78.0
235,1.4982004,-0.5868149,0.3409233,0.19116211,0.0031860352,0.29417726,78.0
236,1.4982004,-0.5868149,0.3409233,0.05522461,0.05628662,0.29630128,78.0
237,1.3722053,-0.5307541,0.6636429,0.05522461,0.05628662,0.29630128,78.0
238,1.3722053,-0.5307541,0.6636429,0.06159668,0.27612305,0.29736328,78.0
239,0.9015484,-0.33189392,1.051506,0.06159668,0.27612305,0.29736328,78.0
240,0.9015484,-0.33189392,1.051506,0.08071289,0.2262085,0.46728516,78.0
241,-0.2610731,0.1058197,0.75419235,0.08071289,0.2262085,0.46728516,78.0
242,-0.2610731,0.1058197,0.75419235,0.06265869,0.22833252,0.721106,78.0
243,-1.7352622,0.4537964,-0.09420395,0.06265869,0.22833252,0.721106,78.0
244,-1.7352622,0.4537964,-0.09420395,0.26444092,0.31329346,1.0365235,78.0
245,-2.2465959,0.29663086,-0.5483742,0.26444092,0.31329346,1.0365235,78.0
246,-2.2465959,0.29663086,-0.5483742,0.6701294,0.4067505,1.260608,78.0
247,-1.1086416,-0.23912048,-0.25469208,0.6701294,0.4067505,1.260608,78.0
248,-1.1086416,-0.23912048,-0.25469208,1.0131592,0.5055176,1.3338867,78.0
249,0.8899176,-0.8033829,0.2827568,1.0131592,0.5055176,1.3338867,78.0
250,0.8899176,-0.8033829,0.2827568,1.1597168,0.59047854,1.2542359,78.0
251,2.5908282,-1.1176224,0.58470154,1.1597168,0.59047854,1.2542359,78.0
252,2.5908282,-1.1176224,0.58470154,0.9696167,0.7593384,1.0821899,78.0
253,3.28924,-1.0665741,0.465065,0.9696167,0.7593384,1.0821899,78.0
254,3.28924,-1.0665741,0.465065,0.49171144,0.9122681,1.0567017,78.0
255,2.4668045,-0.58927155,0.026031494,0.49171144,0.9122681,1.0567017,78.0
256,2.4668045,-0.58927155,0.026031494,-0.18160401,1.0705079,1.1852051,78.0
257,0.37654448,0.10404968,-0.5153084,-0.18160401,1.0705079,1.1852051,78.0
258,0.37654448,0.10404968,-0.5153084,-0.46728516,1.0683838,1.4634522,78.0
259,-1.7232032,0.5844345,-0.9199867,-0.46728516,1.0683838,1.4634522,78.0
260,-1.7232032,0.5844345,-0.9199867,-0.24957275,0.8517334,1.6875366,78.0
261,-2.9281476,0.83031464,-1.0873947,-0.24957275,0.8517334,1.6875366,78.0
262,-2.9281476,0.83031464,-1.0873947,-0.060534667,0.72004396,1.8946289,78.0
263,-3.1564462,0.8030548,-1.0143852,-0.060534667,0.72004396,1.8946289,78.0
264,-3.1564462,0.8030548,-1.0143852,0.16354981,0.5883545,2.0061402,78.0
265,-2.691783,0.53167725,-0.79976654,0.16354981,0.5883545,2.0061402,78.0
266,-2.691783,0.53167725,-0.79976654,0.33878174,0.53525394,2.0273805,78.0
267,-1.9478722,0.19111633,-0.5340042,0.33878174,0.53525394,2.0273805,78.0
268,-1.9478722,0.19111633,-0.5340042,0.42055663,0.5161377,1.9742798,78.0
269,-1.9478722,0.19111633,-0.5340042,0.42055663,0.5161377,1.9742798,78.0
270,-1.2589691,-0.1506958,-0.24990845,0.42055663,0.5161377,1.9742798,78.0
271,-1.2589691,-0.1506958,-0.24990845,0.5341919,0.46728516,1.7544434,78.0
272,-0.68699706,-0.47216797,0.030982971,0.5341919,0.46728516,1.7544434,78.0
273,-0.68699706,-0.47216797,0.030982971,0.73809814,0.362146,1.4921265,78.0
274,-0.16970265,-0.6125717,0.22948837,0.73809814,0.362146,1.4921265,78.0
275,-0.16970265,-0.6125717,0.22948837,0.905896,0.20178223,1.2021973,78.0
276,0.18716264,-0.46172333,0.29395294,0.905896,0.20178223,1.2021973,78.0
277,0.18716264,-0.46172333,0.29395294,0.8294312,0.20496826,0.9165161,78.0
278,0.15834832,-0.1027298,0.27880096,0.8294312,0.20496826,0.9165161,78.0
279,0.15834832,-0.1027298,0.27880096,0.7965088,0.06903076,0.65632325,78.0
280,-0.04754007,0.3653717,0.2086258,0.7965088,0.06903076,0.65632325,78.0
281,-0.04754007,0.3653717,0.2086258,0.5012695,0.15505372,0.26550293,78.0
282,-0.060956836,0.6627426,0.17615509,0.5012695,0.15505372,0.26550293,78.0
283,-0.060956836,0.6627426,0.17615509,0.2442627,0.087084964,-0.16992188,78.0
284,0.17142498,0.5121918,0.30486298,0.2442627,0.087084964,-0.16992188,78.0
285,0.17142498,0.5121918,0.30486298,0.1539917,-0.05628662,-0.5894165,78.0
286,0.48959363,0.034461975,0.5378609,0.1539917,-0.05628662,-0.5894165,78.0
287,0.48959363,0.034461975,0.5378609,0.12531738,-0.20603028,-0.9218262,78.0
288,0.71684575,-0.40735626,0.7461319,0.12531738,-0.20603028,-0.9218262,78.0
289,0.71684575,-0.40735626,0.7461319,0.11682129,-0.31860352,-1.2096313,78.0
290,0.9052149,-0.4924698,0.72465134,0.11682129,-0.31860352,-1.2096313,78.0
291,0.9052149,-0.4924698,0.72465134,-0.02442627,-0.42799073,-1.532483,78.0
292,0.8831198,-0.19364929,0.36904144,-0.02442627,-0.42799073,-1.532483,78.0
293,0.8831198,-0.19364929,0.36904144,-0.30054933,-0.44816896,-1.6524903,78.0
294,0.32802916,0.19031525,-0.050006866,-0.30054933,-0.44816896,-1.6524903,78.0
295,0.32802916,0.19031525,-0.050006866,-0.5734863,-0.4333008,-1.6864747,78.0
296,-0.30746198,0.36044312,-0.26226044,-0.5734863,-0.4333008,-1.6864747,78.0
297,-0.30746198,0.36044312,-0.26226044,-0.817749,-0.42905274,-1.6641724,78.0
298,-0.24789834,0.30020905,-0.20578003,-0.817749,-0.42905274,-1.6641724,78.0
299,-0.24789834,0.30020905,-0.20578003,-1.0790039,-0.49277344,-1.6705445,78.0
300,0.45530677,0.059150696,0.08137131,-1.0790039,-0.49277344,-1.6705445,78.0
301,0.45530677,0.059150696,0.08137131,-1.1384766,-0.6180908,-1.7268311,78.0
302,1.0481079,-0.2701187,0.40237808,-1.1384766,-0.6180908,-1.7268311,78.0
303,1.0481079,-0.2701187,0.40237808,-1.0535157,-0.7434082,-1.8277222,78.0
304,0.8363743,-0.4245758,0.43698883,-1.0535157,-0.7434082,-1.8277222,78.0
305,0.8363743,-0.4245758,0.43698883,-1.0142212,-0.6818115,-1.8733886,78.0
306,-0.22771454,-0.21920013,0.15341187,-1.0142212,-0.6818115,-1.8733886,78.0
307,-0.22771454,-0.21920013,0.15341187,-1.2298096,-0.5076416,-1.8903809,78.0
308,-1.3781433,0.16670227,-0.30215073,-1.2298096,-0.5076416,-1.8903809,78.0
309,-1.3781433,0.16670227,-0.30215073,-1.1958252,-0.5076416,-1.7650635,78.0
310,-2.0036988,0.48630524,-0.70848083,-1.1958252,-0.5076416,-1.7650635,78.0
311,-2.0036988,0.48630524,-0.70848083,-1.0959961,-0.43117675,-1.722583,78.0
312,-2.023284,0.6225052,-0.91932297,-1.0959961,-0.43117675,-1.722583,78.0
313,-2.023284,0.6225052,-0.91932297,-0.92926025,-0.41312256,-1.6142578,78.0
314,-1.388317,0.4812317,-0.9238968,-0.92926025,-0.41312256,-1.6142578,78.0
315,-1.388317,0.4812317,-0.9238968,-0.8262451,-0.39400634,-1.5654052,78.0
316,-0.36753833,0.10284424,-0.7006645,-0.8262451,-0.39400634,-1.5654052,78.0
317,-0.36753833,0.10284424,-0.7006645,-0.49277344,-0.48533937,-1.4868164,78.0
318,0.6990113,-0.32238007,-0.28146744,-0.49277344,-0.48533937,-1.4868164,78.0
319,0.6990113,-0.32238007,-0.28146744,-0.18160401,-0.55543214,-1.4294678,78.0
320,1.4867482,-0.5944061,0.2860794,-0.18160401,-0.55543214,-1.4294678,78.0
321,1.4867482,-0.5944061,0.2860794,0.14018555,-0.540564,-1.3381348,78.0
322,1.7299503,-0.5712433,0.7911186,0.14018555,-0.540564,-1.3381348,78.0
323,1.7299503,-0.5712433,0.7911186,0.24001466,-0.48321533,-1.1820191,78.0
324,1.5538089,-0.284523,0.930233,0.24001466,-0.48321533,-1.1820191,78.0
325,1.5538089,-0.284523,0.930233,0.14337158,-0.36533204,-0.9611206,78.0
326,1.1559868,0.057418823,0.72073746,0.14337158,-0.36533204,-0.9611206,78.0
327,1.1559868,0.057418823,0.72073746,0.040356446,-0.29311523,-0.68499756,78.0
328,0.6973114,0.35544586,0.42986298,0.040356446,-0.29311523,-0.68499756,78.0
329,0.6973114,0.35544586,0.42986298,-0.2081543,-0.20178223,-0.34833986,78.0
330,0.6247802,0.46754456,0.35998917,-0.2081543,-0.20178223,-0.34833986,78.0
331,0.6247802,0.46754456,0.35998917,-0.23258057,-0.13806152,-0.046728518,78.0
332,1.0904493,0.32320404,0.4879799,-0.23258057,-0.13806152,-0.046728518,78.0
333,1.0904493,0.32320404,0.4879799,-0.41737062,-0.098767094,0.19647217,78.0
334,1.6272302,-0.04801941,0.5601845,-0.41737062,-0.098767094,0.19647217,78.0
335,1.6272302,-0.04801941,0.5601845,-0.33878174,-0.09770508,0.41206056,78.0
336,1.7747579,-0.31668854,0.43249893,-0.33878174,-0.09770508,0.41206056,78.0
337,1.7747579,-0.31668854,0.43249893,-0.21027832,-0.03079834,0.5671143,78.0
338,1.5133243,-0.16187286,0.2193985,-0.21027832,-0.03079834,0.5671143,78.0
339,1.5133243,-0.16187286,0.2193985,-0.3079834,0.09133301,0.7327881,78.0
340,0.8171778,0.22190094,0.08370972,-0.3079834,0.09133301,0.7327881,78.0
341,0.8171778,0.22190094,0.08370972,-0.42161867,0.16885987,0.9632446,78.0
342,-0.6436453,0.6162796,-0.10411453,-0.42161867,0.16885987,0.9632446,78.0
343,-0.6436453,0.6162796,-0.10411453,-0.22089843,0.13487549,1.2871583,78.0
344,-2.3367424,0.87594604,-0.46208954,-0.22089843,0.13487549,1.2871583,78.0
345,-2.3367424,0.87594604,-0.46208954,0.17841797,0.2262085,1.5292969,78.0
346,-2.5969818,0.54683685,-0.6351242,0.17841797,0.2262085,1.5292969,78.0
347,-2.5969818,0.54683685,-0.6351242,0.90908206,0.3164795,1.6482422,78.0
348,-0.6986182,-0.46878815,-0.2784233,0.90908206,0.3164795,1.6482422,78.0
349,-0.6986182,-0.46878815,-0.2784233,1.7703736,0.32285157,1.544165,78.0
350,2.1764936,-1.4250793,0.34454727,1.7703736,0.32285157,1.544165,78.0
351,2.1764936,-1.4250793,0.34454727,2.1261475,0.41843262,1.2574219,78.0
352,4.347945,-1.6709976,0.67923737,2.1261475,0.41843262,1.2574219,78.0
353,4.347945,-1.6709976,0.67923737,1.7119629,0.6924316,1.174585,78.0
354,4.353161,-1.0264435,0.42502975,1.7119629,0.6924316,1.174585,78.0
355,4.353161,-1.0264435,0.42502975,1.0046631,1.0142212,1.2499878,78.0
356,1.9559908,0.25694275,-0.31643295,1.0046631,1.0142212,1.2499878,78.0
357,1.9559908,0.25694275,-0.31643295,0.19116211,1.179895,1.5675293,78.0
358,-1.138772,1.4052277,-0.9904251,0.19116211,1.179895,1.5675293,78.0
359,-1.138772,1.4052277,-0.9904251,-0.19434814,1.1926392,1.9158691,78.0
360,-3.323823,1.8427811,-1.236309,-0.19434814,1.1926392,1.9158691,78.0
361,-3.323823,1.8427811,-1.236309,-0.32072756,1.1151123,2.1325195,78.0
362,-4.169789,1.568634,-1.1458817,-0.32072756,1.1151123,2.1325195,78.0
363,-4.169789,1.568634,-1.1458817,-0.27612305,0.97386473,2.3321779,78.0
364,-3.8107703,0.94223785,-0.95010376,-0.27612305,0.97386473,2.3321779,78.0
365,-3.8107703,0.94223785,-0.95010376,-0.21346436,0.8729736,2.427759,78.0
366,-2.798067,0.2700882,-0.7796631,-0.21346436,0.8729736,2.427759,78.0
367,-2.798067,0.2700882,-0.7796631,-0.18160401,0.8517334,2.3810303,78.0
368,-1.7782241,-0.30311584,-0.61839676,-0.18160401,0.8517334,2.3810303,78.0
369,-1.7782241,-0.30311584,-0.61839676,-0.046728518,0.76677245,2.2514648,78.0
370,-0.9644128,-0.7457962,-0.42965317,-0.046728518,0.76677245,2.2514648,78.0
371,-0.9644128,-0.7457962,-0.42965317,0.2516968,0.65419924,2.0008302,78.0
372,-0.36202097,-0.9257355,-0.22080994,0.2516968,0.65419924,2.0008302,78.0
373,-0.36202097,-0.9257355,-0.22080994,0.6287109,0.45878908,1.5855836,78.0
374,-0.36202097,-0.9257355,-0.22080994,0.6287109,0.45878908,1.5855836,78.0
375,-0.1253711,-0.7459259,-0.040382385,0.6287109,0.45878908,1.5855836,78.0
376,-0.1253711,-0.7459259,-0.040382385,0.814563,0.3175415,1.1597168,78.0
377,-0.30430079,-0.2698822,0.040180206,0.814563,0.3175415,1.1597168,78.0
378,-0.30430079,-0.2698822,0.040180206,0.78376466,0.26019287,0.8007569,78.0
379,-0.5623493,0.25817108,0.020572662,0.78376466,0.26019287,0.8007569,78.0
380,-0.5623493,0.25817108,0.020572662,0.540564,0.16992188,0.3971924,78.0
381,-0.5209732,0.5606537,0.008964539,0.540564,0.16992188,0.3971924,78.0
382,-0.5209732,0.5606537,0.008964539,0.25700685,0.022302246,-0.09239502,78.0
383,-0.16117561,0.5028076,0.11305618,0.25700685,0.022302246,-0.09239502,78.0
384,-0.16117561,0.5028076,0.11305618,-0.07434082,-0.070092775,-0.60322267,78.0
385,0.30571532,0.067726135,0.32344055,-0.07434082,-0.070092775,-0.60322267,78.0
386,0.30571532,0.067726135,0.32344055,-0.29311523,-0.21134034,-1.0259033,78.0
387,0.64462113,-0.4176178,0.5119629,-0.29311523,-0.21134034,-1.0259033,78.0
388,0.64462113,-0.4176178,0.5119629,-0.30161133,-0.37489015,-1.3296387,78.0
389,0.90952015,-0.5939789,0.5383911,-0.30161133,-0.37489015,-1.3296387,78.0
390,0.90952015,-0.5939789,0.5383911,-0.27718505,-0.49383545,-1.6535523,78.0
391,1.0497842,-0.45689392,0.3469963,-0.27718505,-0.49383545,-1.6535523,78.0
392,1.0497842,-0.45689392,0.3469963,-0.28674316,-0.54693604,-1.8362182,78.0
393,0.69937325,-0.119140625,0.078048706,-0.28674316,-0.54693604,-1.8362182,78.0
394,0.69937325,-0.119140625,0.078048706,-0.33665773,-0.4980835,-1.8829468,78.0
395,0.15528727,0.2558365,-0.12866211,-0.33665773,-0.4980835,-1.8829468,78.0
396,0.15528727,0.2558365,-0.12866211,-0.53525394,-0.42692873,-1.8755127,78.0
397,0.26797986,0.3393097,-0.18407059,-0.53525394,-0.42692873,-1.8755127,78.0
398,0.26797986,0.3393097,-0.18407059,-0.64995116,-0.41099855,-1.9700317,78.0
399,1.0650918,0.1459198,-0.04131317,-0.64995116,-0.41099855,-1.9700317,78.0
400,1.0650918,0.1459198,-0.04131317,-0.66269535,-0.52038574,-2.0348146,78.0
401,1.7669904,-0.088394165,0.19039917,-0.66269535,-0.52038574,-2.0348146,78.0
402,1.7669904,-0.088394165,0.19039917,-0.70092773,-0.62340087,-2.1399536,78.0
403,1.7397642,-0.24471283,0.3164177,-0.70092773,-0.62340087,-2.1399536,78.0
404,1.7397642,-0.24471283,0.3164177,-0.80606693,-0.63933104,-2.2227905,78.0
405,0.9104147,-0.1949997,0.21696472,-0.80606693,-0.63933104,-2.2227905,78.0
406,0.9104147,-0.1949997,0.21696472,-0.95368654,-0.57454836,-2.1909301,78.0
407,-0.38049412,0.17092896,-0.076244354,-0.95368654,-0.57454836,-2.1909301,78.0
408,-0.38049412,0.17092896,-0.076244354,-1.1544068,-0.54587406,-2.0539308,78.0
409,-1.6163216,0.71312714,-0.42316437,-1.1544068,-0.54587406,-2.0539308,78.0
410,-1.6163216,0.71312714,-0.42316437,-1.3795532,-0.41099855,-1.9371094,78.0
411,-2.134964,0.947052,-0.6037903,-1.3795532,-0.41099855,-1.9371094,78.0
412,-2.134964,0.947052,-0.6037903,-1.3774292,-0.34727785,-1.8595825,78.0
413,-1.7758179,0.6827316,-0.5223007,-1.3774292,-0.34727785,-1.8595825,78.0
414,-1.7758179,0.6827316,-0.5223007,-1.1267945,-0.4715332,-1.7650635,78.0
415,-0.8781128,0.2266159,-0.34828568,-1.1267945,-0.4715332,-1.7650635,78.0
416,-0.8781128,0.2266159,-0.34828568,-0.79013675,-0.43011475,-1.7119629,78.0
417,0.15117192,-0.22637177,-0.17321014,-0.79013675,-0.43011475,-1.7119629,78.0
418,0.15117192,-0.22637177,-0.17321014,-0.22939454,-0.54587406,-1.5834595,78.0
419,1.0056543,-0.48280334,0.059783936,-0.22939454,-0.54587406,-1.5834595,78.0
420,1.0056543,-0.48280334,0.059783936,0.09239502,-0.5968506,-1.4910644,78.0
421,1.5431952,-0.41542053,0.32878494,0.09239502,-0.5968506,-1.4910644,78.0
422,1.5431952,-0.41542053,0.32878494,0.2623169,-0.45135498,-1.3869873,78.0
423,1.6436017,-0.13863373,0.5833397,0.2623169,-0.45135498,-1.3869873,78.0
424,1.6436017,-0.13863373,0.5833397,0.14230958,-0.34090576,-1.175647,78.0
425,1.2697153,0.1699524,0.7367401,0.14230958,-0.34090576,-1.175647,78.0
426,1.2697153,0.1699524,0.7367401,-0.17947999,-0.22196046,-0.9197022,78.0
427,0.56474686,0.41272736,0.767189,-0.17947999,-0.22196046,-0.9197022,78.0
428,0.56474686,0.41272736,0.767189,-0.44073486,-0.17735596,-0.57242435,78.0
429,-0.018405199,0.6105728,0.71515656,-0.44073486,-0.17735596,-0.57242435,78.0
430,-0.018405199,0.6105728,0.71515656,-0.49277344,-0.21027832,-0.22408448,78.0
431,0.018686533,0.60983276,0.5731392,-0.49277344,-0.21027832,-0.22408448,78.0
432,0.018686533,0.60983276,0.5731392,-0.58198243,-0.18479005,0.070092775,78.0
433,0.5819535,0.17478943,0.44177628,-0.58198243,-0.18479005,0.070092775,78.0
434,0.5819535,0.17478943,0.44177628,-0.30267334,-0.16461182,0.28568116,78.0
435,1.1902943,-0.37583923,0.3694954,-0.30267334,-0.16461182,0.28568116,78.0
436,1.1902943,-0.37583923,0.3694954,0.12000733,-0.1444336,0.48533937,78.0
437,1.4595108,-0.38381195,0.169693,0.12000733,-0.1444336,0.48533937,78.0
438,1.4595108,-0.38381195,0.169693,0.0180542,0.038232423,0.70305175,78.0
439,1.1628237,0.045394897,-0.13452148,0.0180542,0.038232423,0.70305175,78.0
440,1.1628237,0.045394897,-0.13452148,-0.1274414,0.21134034,0.901648,78.0
441,0.11272955,0.48150635,-0.31281662,-0.1274414,0.21134034,0.901648,78.0
442,0.11272955,0.48150635,-0.31281662,0.0,0.19328614,1.1544068,78.0
443,-1.1832905,0.65377045,-0.40385437,0.0,0.19328614,1.1544068,78.0
444,-1.1832905,0.65377045,-0.40385437,0.35683593,0.2548828,1.3912354,78.0
445,-1.3482437,0.16895294,-0.39196777,0.35683593,0.2548828,1.3912354,78.0
446,-1.3482437,0.16895294,-0.39196777,1.171399,0.24107666,1.4730103,78.0
447,0.2423768,-0.8281555,-0.14996338,1.171399,0.24107666,1.4730103,78.0
448,0.2423768,-0.8281555,-0.14996338,1.8946289,0.22833252,1.3806152,78.0
449,2.8166432,-1.5338593,0.18065262,1.8946289,0.22833252,1.3806152,78.0
450,2.8166432,-1.5338593,0.18065262,2.0210083,0.36533204,1.3668091,78.0
451,4.6694527,-1.4439697,0.31783676,2.0210083,0.36533204,1.3668091,78.0
452,4.6694527,-1.4439697,0.31783676,1.4793824,0.66481936,1.3848633,78.0
453,4.155691,-0.5758209,0.12753677,1.4793824,0.66481936,1.3848633,78.0
454,4.155691,-0.5758209,0.12753677,0.7678345,0.96430665,1.6142578,78.0
455,1.2488203,0.66361237,-0.22730255,0.7678345,0.96430665,1.6142578,78.0
456,1.2488203,0.66361237,-0.22730255,0.022302246,1.084314,1.9785279,78.0
457,-2.0709996,5.2216034,3.118538,0.022302246,1.084314,1.9785279,78.0
458,-2.0709996,5.2216034,3.118538,-0.09239502,1.0174073,2.261023,78.0
459,-4.092762,0.83267975,-1.6112709,-0.09239502,1.0174073,2.261023,78.0
460,-4.092762,0.83267975,-1.6112709,-0.16567384,0.92926025,2.536084,78.0
461,-4.6174717,0.6374359,-1.6893959,-0.16567384,0.92926025,2.536084,78.0
462,-4.6174717,0.6374359,-1.6893959,-0.16354981,0.8379273,2.7261841,78.0
463,-4.037081,0.1397171,-1.671196,-0.16354981,0.8379273,2.7261841,78.0
464,-4.037081,0.1397171,-1.671196,-0.0053100586,0.75721437,2.7622926,78.0
465,-2.8829606,-0.34736633,-1.4587936,-0.0053100586,0.75721437,2.7622926,78.0
466,-2.8829606,-0.34736633,-1.4587936,0.050976563,0.7614624,2.624231,78.0
467,-1.7265346,-0.7606964,-1.0779724,0.050976563,0.7614624,2.624231,78.0
468,-1.7265346,-0.7606964,-1.0779724,0.22089843,0.6903076,2.3958986,78.0
469,-0.9775779,-1.1119919,-0.626503,0.22089843,0.6903076,2.3958986,78.0
470,-0.9775779,-1.1119919,-0.626503,0.5171997,0.5384399,1.9551636,78.0
471,-0.6319647,-1.2477112,-0.21798706,0.5171997,0.5384399,1.9551636,78.0
472,-0.6319647,-1.2477112,-0.21798706,0.93775636,0.2888672,1.531421,78.0
473,-0.47991252,-1.0515747,0.033973694,0.93775636,0.2888672,1.531421,78.0
474,-0.47991252,-1.0515747,0.033973694,1.0014771,0.21452637,1.0439576,78.0
475,-0.4529363,-0.6196518,0.09133911,1.0014771,0.21452637,1.0439576,78.0
476,-0.4529363,-0.6196518,0.09133911,0.9420044,0.11682129,0.65207523,78.0
477,-0.47787642,-0.14635468,0.042469025,0.9420044,0.11682129,0.65207523,78.0
478,-0.47787642,-0.14635468,0.042469025,0.77102053,-0.0010620117,0.23895264,78.0
479,-0.27494037,0.19115448,0.044548035,0.77102053,-0.0010620117,0.23895264,78.0
480,-0.27494037,0.19115448,0.044548035,0.47684327,-0.07115479,-0.22939454,78.0
481,0.3046205,0.12991333,0.20333862,0.47684327,-0.07115479,-0.22939454,78.0
482,0.3046205,0.12991333,0.20333862,0.15930176,-0.08814698,-0.6637573,78.0
483,0.8801588,-0.25832367,0.46463776,0.15930176,-0.08814698,-0.6637573,78.0
484,0.8801588,-0.25832367,0.46463776,0.029736329,-0.18372802,-0.991919,78.0
485,1.0685925,-0.51711273,0.6399498,0.029736329,-0.18372802,-0.991919,78.0
486,1.0685925,-0.51711273,0.6399498,-0.04885254,-0.21027832,-1.2128174,78.0
487,1.0587192,-0.4896698,0.60323334,-0.04885254,-0.21027832,-1.2128174,78.0
488,1.0587192,-0.4896698,0.60323334,-0.1178833,-0.25806886,-1.4284058,78.0
489,0.86835,-0.28720856,0.36240768,-0.1178833,-0.25806886,-1.4284058,78.0
490,0.86835,-0.28720856,0.36240768,-0.2166504,-0.32072756,-1.4931885,78.0
491,0.86835,-0.28720856,0.36240768,-0.2166504,-0.32072756,-1.4931885,79.0
492,0.33720922,0.059318542,0.010643005,-0.2166504,-0.32072756,-1.4931885,79.0
493,0.33720922,0.059318542,0.010643005,-0.3462158,-0.35789797,-1.4910644,79.0
494,0.028910398,0.37246704,-0.27894974,-0.3462158,-0.35789797,-1.4910644,79.0
495,0.028910398,0.37246704,-0.27894974,-0.62127686,-0.3419678,-1.5346069,79.0
496,0.52620435,0.31733704,-0.26228333,-0.62127686,-0.3419678,-1.5346069,79.0
497,0.52620435,0.31733704,-0.26228333,-0.8007569,-0.4067505,-1.6514282,79.0
498,1.3684609,-0.033554077,0.08336258,-0.8007569,-0.4067505,-1.6514282,79.0
499,1.3684609,-0.033554077,0.08336258,-0.8867798,-0.5798584,-1.7661256,79.0
500,1.6581721,-0.34474945,0.4576683,-0.8867798,-0.5798584,-1.7661256,79.0
501,1.6581721,-0.34474945,0.4576683,-0.9197022,-0.724292,-1.8510865,79.0
502,0.9913204,-0.38320923,0.5074806,-0.9197022,-0.724292,-1.8510865,79.0
503,0.9913204,-0.38320923,0.5074806,-0.9281983,-0.77951664,-1.8956909,79.0
504,-0.2570293,-0.102767944,0.19083786,-0.9281983,-0.77951664,-1.8956909,79.0
505,-0.2570293,-0.102767944,0.19083786,-0.89102787,-0.78376466,-1.8171021,79.0
506,-1.4786336,0.3838501,-0.24361801,-0.89102787,-0.78376466,-1.8171021,79.0
507,-1.4786336,0.3838501,-0.24361801,-0.91120607,-0.7306641,-1.7236451,79.0
508,-2.2536223,0.78453827,-0.5422821,-0.91120607,-0.7306641,-1.7236451,79.0
509,-2.2536223,0.78453827,-0.5422821,-0.90695804,-0.6754395,-1.6843506,79.0
510,-2.1974778,0.7265549,-0.5350723,-0.90695804,-0.6754395,-1.6843506,79.0
511,-2.1974778,0.7265549,-0.5350723,-0.811377,-0.6818115,-1.5898316,79.0
512,-1.4747181,0.33158875,-0.3251152,-0.811377,-0.6818115,-1.5898316,79.0
513,-1.4747181,0.33158875,-0.3251152,-0.81881106,-0.64782715,-1.621692,79.0
514,-0.61596835,-0.103881836,-0.09410095,-0.81881106,-0.64782715,-1.621692,79.0
515,-0.61596835,-0.103881836,-0.09410095,-0.36002198,-0.7062378,-1.630188,79.0
516,0.17787957,-0.4070282,0.08074951,-0.36002198,-0.7062378,-1.630188,79.0
517,0.17787957,-0.4070282,0.08074951,0.15505372,-0.811377,-1.5622193,79.0
518,0.8903749,-0.491333,0.2255249,0.15505372,-0.811377,-1.5622193,79.0
519,0.8903749,-0.491333,0.2255249,0.3706421,-0.81668705,-1.5112427,79.0
520,1.3852615,-0.48073578,0.4524536,0.3706421,-0.81668705,-1.5112427,79.0
521,1.3852615,-0.48073578,0.4524536,0.5161377,-0.7317261,-1.4039795,79.0
522,1.4988341,-0.3966217,0.8743286,0.5161377,-0.7317261,-1.4039795,79.0
523,1.4988341,-0.3966217,0.8743286,0.5915405,-0.4991455,-1.2478638,79.0
524,1.0645335,-0.04941559,1.1613426,0.5915405,-0.4991455,-1.2478638,79.0
525,1.0645335,-0.04941559,1.1613426,0.18160401,-0.41843262,-1.0078491,79.0
526,0.35480046,0.43952942,0.8806381,0.18160401,-0.41843262,-1.0078491,79.0
527,0.35480046,0.43952942,0.8806381,-0.21027832,-0.3175415,-0.7858887,79.0
528,0.06102562,0.52677155,0.39944458,-0.21027832,-0.3175415,-0.7858887,79.0
529,0.06102562,0.52677155,0.39944458,-0.2824951,-0.29630128,-0.55755615,79.0
530,0.45289755,0.0512619,0.32359695,-0.2824951,-0.29630128,-0.55755615,79.0
531,0.45289755,0.0512619,0.32359695,-0.07327881,-0.27612305,-0.32072756,79.0
532,1.1363537,-0.5682068,0.55516434,-0.07327881,-0.27612305,-0.32072756,79.0
533,1.1363537,-0.5682068,0.55516434,0.1901001,-0.16885987,-0.045666505,79.0
534,1.6433725,-0.7864609,0.64527893,0.1901001,-0.16885987,-0.045666505,79.0
535,1.6433725,-0.7864609,0.64527893,0.26125488,0.009558106,0.22302246,79.0
536,1.7584114,-0.49342346,0.4062996,0.26125488,0.009558106,0.22302246,79.0
537,1.7584114,-0.49342346,0.4062996,0.15717773,0.19541016,0.46622315,79.0
538,1.1382475,-0.021644592,0.09889221,0.15717773,0.19541016,0.46622315,79.0
539,1.1382475,-0.021644592,0.09889221,0.02442627,0.27718505,0.71579593,79.0
540,-0.380857,0.39840698,-0.16304779,0.02442627,0.27718505,0.71579593,79.0
541,-0.380857,0.39840698,-0.16304779,0.1529297,0.27293703,1.1374146,79.0
542,-1.6576276,0.49355316,-0.45542526,0.1529297,0.27293703,1.1374146,79.0
543,-1.6576276,0.49355316,-0.45542526,0.59260255,0.39082032,1.4050416,79.0
544,-1.1989903,-0.059822083,-0.44890976,0.59260255,0.39082032,1.4050416,79.0
545,-1.1989903,-0.059822083,-0.44890976,1.264856,0.41949463,1.5080566,79.0
546,0.98909855,-0.99105835,-0.04140091,1.264856,0.41949463,1.5080566,79.0
547,0.98909855,-0.99105835,-0.04140091,1.6556762,0.541626,1.63125,79.0
548,3.331098,-1.5561752,0.41658783,1.6556762,0.541626,1.63125,79.0
549,3.331098,-1.5561752,0.41658783,1.6004517,0.7614624,1.5239868,79.0
550,4.1086774,-1.2311249,0.46847534,1.6004517,0.7614624,1.5239868,79.0
551,4.1086774,-1.2311249,0.46847534,1.0535157,0.991919,1.5877075,79.0
552,2.6702547,-0.15529633,0.02433014,1.0535157,0.991919,1.5877075,79.0
553,2.6702547,-0.15529633,0.02433014,0.271875,1.2213135,1.7321411,79.0
554,-0.12151098,0.9055023,-0.5530815,0.271875,1.2213135,1.7321411,79.0
555,-0.12151098,0.9055023,-0.5530815,-0.19116211,1.2181275,2.1442018,79.0
556,-2.612846,1.3629761,-0.9514847,-0.19116211,1.2181275,2.1442018,79.0
557,-2.612846,1.3629761,-0.9514847,-0.32603762,1.1384766,2.3003175,79.0
558,-3.8774228,1.237587,-1.1154251,-0.32603762,1.1384766,2.3003175,79.0
559,-3.8774228,1.237587,-1.1154251,-0.11257324,0.92501223,2.5711305,79.0
560,-3.8723853,0.8009186,-1.1313286,-0.11257324,0.92501223,2.5711305,79.0
561,-3.8723853,0.8009186,-1.1313286,0.019116212,0.8485474,2.71344,79.0
562,-3.1107867,0.2673111,-1.0326767,0.019116212,0.8485474,2.71344,79.0
563,-3.1107867,0.2673111,-1.0326767,0.2357666,0.81243896,2.715564,79.0
564,-2.0762515,-0.1880188,-0.8076706,0.2357666,0.81243896,2.715564,79.0
565,-2.0762515,-0.1880188,-0.8076706,0.4800293,0.77102053,2.5764406,79.0
566,-1.1477323,-0.5078888,-0.4943428,0.4800293,0.77102053,2.5764406,79.0
567,-1.1477323,-0.5078888,-0.4943428,0.7104859,0.7338501,2.3183715,79.0
568,-0.52022433,-0.6608887,-0.18394852,0.7104859,0.7338501,2.3183715,79.0
569,-0.52022433,-0.6608887,-0.18394852,0.8485474,0.62764895,1.9456055,79.0
570,-0.18348908,-0.612587,0.051315308,0.8485474,0.62764895,1.9456055,79.0
571,-0.18348908,-0.612587,0.051315308,0.84323734,0.6053467,1.5781494,79.0
572,-0.12486744,-0.42564392,0.15776443,0.84323734,0.6053467,1.5781494,79.0
573,-0.12486744,-0.42564392,0.15776443,0.7349121,0.5320679,1.1937011,79.0
574,-0.36913228,-0.10417175,0.099235535,0.7349121,0.5320679,1.1937011,79.0
575,-0.36913228,-0.10417175,0.099235535,0.5246338,0.41099855,0.8028809,79.0
576,-0.752923,0.23796082,-0.049640656,0.5246338,0.41099855,0.8028809,79.0
577,-0.752923,0.23796082,-0.049640656,0.26762697,0.270813,0.44710693,79.0
578,-0.8655586,0.31369781,-0.12281799,0.26762697,0.270813,0.44710693,79.0
579,-0.8655586,0.31369781,-0.12281799,0.09451904,0.09770508,0.0361084,79.0
580,-0.49393618,0.030647278,0.007507324,0.09451904,0.09770508,0.0361084,79.0
581,-0.49393618,0.030647278,0.007507324,0.028674318,-0.06159668,-0.3430298,79.0
582,-0.005012274,-0.33116913,0.32780838,0.028674318,-0.06159668,-0.3430298,79.0
583,-0.005012274,-0.33116913,0.32780838,0.070092775,-0.23045655,-0.62552494,79.0
584,0.17291892,-0.4212494,0.62755203,0.070092775,-0.23045655,-0.62552494,79.0
585,0.17291892,-0.4212494,0.62755203,0.14549561,-0.3791382,-0.8591675,79.0
586,0.14293718,-0.27052307,0.6647606,0.14549561,-0.3791382,-0.8591675,79.0
587,0.14293718,-0.27052307,0.6647606,0.12850343,-0.45454103,-1.1098022,79.0
588,0.0127750635,-0.04284668,0.5073204,0.12850343,-0.45454103,-1.1098022,79.0
589,0.0127750635,-0.04284668,0.5073204,0.020178223,-0.42692873,-1.2138795,79.0
590,-0.24644494,0.21517181,0.30797958,0.020178223,-0.42692873,-1.2138795,79.0
591,-0.24644494,0.21517181,0.30797958,-0.20284425,-0.43861085,-1.2319336,79.0
592,-0.16674829,0.38327026,0.08970642,-0.20284425,-0.43861085,-1.2319336,79.0
593,-0.16674829,0.38327026,0.08970642,-0.46622315,-0.45454103,-1.3476928,79.0
594,0.5195067,0.30721283,-0.037281036,-0.46622315,-0.45454103,-1.3476928,79.0
595,0.5195067,0.30721283,-0.037281036,-0.64995116,-0.5150757,-1.5494751,79.0
596,1.290349,-0.016105652,0.036384583,-0.64995116,-0.5150757,-1.5494751,79.0
597,1.290349,-0.016105652,0.036384583,-0.70305175,-0.71154785,-1.7767457,79.0
598,1.4817543,-0.4283371,0.2700386,-0.70305175,-0.71154785,-1.7767457,79.0
599,1.4817543,-0.4283371,0.2700386,-0.68074954,-0.8729736,-2.0029542,79.0
600,0.86665344,-0.5419769,0.45883942,-0.68074954,-0.8729736,-2.0029542,79.0
601,0.86665344,-0.5419769,0.45883942,-0.7338501,-0.91864014,-2.1484497,79.0
602,-0.17913818,-0.26815033,0.3743477,-0.7338501,-0.91864014,-2.1484497,79.0
603,-0.17913818,-0.26815033,0.3743477,-0.76677245,-0.9197022,-2.1208375,79.0
604,-1.205884,0.18808746,0.08172989,-0.76677245,-0.9197022,-2.1208375,79.0
605,-1.205884,0.18808746,0.08172989,-0.71579593,-0.904834,-2.0337524,79.0
606,-1.9128274,0.6130066,-0.22890472,-0.71579593,-0.904834,-2.0337524,79.0
607,-1.9128274,0.6130066,-0.22890472,-0.73703617,-0.8219971,-2.0125122,79.0
608,-1.8035407,0.62503815,-0.2982216,-0.73703617,-0.8219971,-2.0125122,79.0
609,-1.8035407,0.62503815,-0.2982216,-0.6467652,-0.7890747,-1.9434814,79.0
610,-0.8320172,0.15267944,-0.06967926,-0.6467652,-0.7890747,-1.9434814,79.0
611,-0.8320172,0.15267944,-0.06967926,-0.56605226,-0.6966797,-1.9902099,79.0
612,0.4192984,-0.4468155,0.33164597,-0.56605226,-0.6966797,-1.9902099,79.0
613,0.4192984,-0.4468155,0.33164597,-0.11682129,-0.72004396,-1.987024,79.0
614,1.4571673,-0.8086624,0.6731796,-0.11682129,-0.72004396,-1.987024,79.0
615,1.4571673,-0.8086624,0.6731796,0.28674316,-0.77314454,-1.9700317,79.0
616,2.0909536,-0.84978485,0.74746704,0.28674316,-0.77314454,-1.9700317,79.0
617,2.0909536,-0.84978485,0.74746704,0.31010744,-0.6966797,-1.9158691,79.0
618,2.1538541,-0.7043915,0.69705963,0.31010744,-0.6966797,-1.9158691,79.0
619,2.1538541,-0.7043915,0.69705963,0.27506104,-0.5968506,-1.8447144,79.0
620,1.6229734,-0.4684906,0.7775078,0.27506104,-0.5968506,-1.8447144,79.0
621,1.6229734,-0.4684906,0.7775078,0.17735596,-0.41737062,-1.5622193,79.0
622,1.6229734,-0.4684906,0.7775078,0.17735596,-0.41737062,-1.5622193,79.0
623,0.78399897,-0.10870361,0.901741,0.17735596,-0.41737062,-1.5622193,79.0
624,0.78399897,-0.10870361,0.901741,0.087084964,-0.35152587,-1.1533448,79.0
625,0.40830278,0.11316681,0.7709427,0.087084964,-0.35152587,-1.1533448,79.0
626,0.40830278,0.11316681,0.7709427,0.08496094,-0.31435546,-0.9653687,79.0
627,0.41505766,0.33877563,0.48270798,0.08496094,-0.31435546,-0.9653687,79.0
628,0.41505766,0.33877563,0.48270798,0.07965088,-0.21558838,-0.49383545,79.0
629,0.64144564,0.1576767,0.36247253,0.07965088,-0.21558838,-0.49383545,79.0
630,0.64144564,0.1576767,0.36247253,0.021240234,-0.17947999,-0.32285157,79.0
631,1.5183811,-0.46531677,0.2897339,0.021240234,-0.17947999,-0.32285157,79.0
632,1.5183811,-0.46531677,0.2897339,-0.23364258,-0.015930176,0.12213135,79.0
633,1.4172807,-0.5079117,0.14847183,-0.23364258,-0.015930176,0.12213135,79.0
634,1.4172807,-0.5079117,0.14847183,-0.2262085,0.02442627,0.28568116,79.0
635,1.175365,-0.43606567,-0.24815369,-0.2262085,0.02442627,0.28568116,79.0
636,1.175365,-0.43606567,-0.24815369,-0.0031860352,0.06903076,0.7614624,79.0
637,0.5703945,-0.21274567,-0.3141594,-0.0031860352,0.06903076,0.7614624,79.0
638,0.5703945,-0.21274567,-0.3141594,0.033984374,0.06796875,0.9505005,79.0
639,-1.4976397,0.4688263,-0.7840042,0.033984374,0.06796875,0.9505005,79.0
640,-1.4976397,0.4688263,-0.7840042,0.51188964,0.13168946,1.5006226,79.0
641,-1.7484779,0.29898834,-0.7618942,0.51188964,0.13168946,1.5006226,79.0
642,-1.7484779,0.29898834,-0.7618942,0.84323734,0.17523193,1.6121339,79.0
643,-0.13849163,-0.70783997,-0.6175842,0.84323734,0.17523193,1.6121339,79.0
644,-0.13849163,-0.70783997,-0.6175842,2.0390625,0.17841797,1.5919555,79.0
645,1.0076637,-1.1836929,-0.14912033,2.0390625,0.17841797,1.5919555,79.0
646,1.0076637,-1.1836929,-0.14912033,2.2185426,0.23682861,1.5600952,79.0
647,4.27233,-1.8669434,0.43724823,2.2185426,0.23682861,1.5600952,79.0
648,4.27233,-1.8669434,0.43724823,2.1399536,0.5076416,1.4634522,79.0
649,3.7536793,-1.617302,0.5554733,2.1399536,0.5076416,1.4634522,79.0
650,3.7536793,-1.617302,0.5554733,1.896753,0.5957886,1.4910644,79.0
651,1.0475602,0.24804688,-0.031620026,1.896753,0.5957886,1.4910644,79.0
652,1.0475602,0.24804688,-0.031620026,0.8878418,0.8857178,1.8340943,79.0
653,-0.57115555,0.81340027,-0.19360733,0.8878418,0.8857178,1.8340943,79.0
654,-0.57115555,0.81340027,-0.19360733,0.65632325,0.9154541,2.0295045,79.0
655,-3.9650059,1.8976059,-0.5879669,0.65632325,0.9154541,2.0295045,79.0
656,-3.9650059,1.8976059,-0.5879669,0.29736328,0.8857178,2.2801392,79.0
657,-4.03199,1.4850006,-0.49414062,0.29736328,0.8857178,2.2801392,79.0
658,-4.03199,1.4850006,-0.49414062,0.39400634,0.8007569,2.4139526,79.0
659,-3.975226,0.7755127,-0.47314453,0.39400634,0.8007569,2.4139526,79.0
660,-3.975226,0.7755127,-0.47314453,0.51826173,0.62977296,2.5923707,79.0
661,-3.2455494,0.08105469,-0.48078537,0.51826173,0.62977296,2.5923707,79.0
662,-3.2455494,0.08105469,-0.48078537,0.64995116,0.53525394,2.6507814,79.0
663,-2.302299,-0.3343506,-0.47698593,0.64995116,0.53525394,2.6507814,79.0
664,-2.302299,-0.3343506,-0.47698593,0.80181885,0.49171144,2.5020998,79.0
665,-1.4979428,-0.53946686,-0.33849716,0.80181885,0.49171144,2.5020998,79.0
666,-1.4979428,-0.53946686,-0.33849716,1.0269654,0.452417,2.2365968,79.0
667,-0.70020974,-0.74663544,0.012638092,1.0269654,0.452417,2.2365968,79.0
668,-0.70020974,-0.74663544,0.012638092,1.2627319,0.36533204,1.6439942,79.0
669,-0.5313469,-0.7318039,0.22443008,1.2627319,0.36533204,1.6439942,79.0
670,-0.5313469,-0.7318039,0.22443008,1.268042,0.36108398,1.4846925,79.0
671,-0.31125915,-0.66122437,0.38607407,1.268042,0.36108398,1.4846925,79.0
672,-0.31125915,-0.66122437,0.38607407,1.176709,0.34833986,1.179895,79.0
673,-0.3499472,-0.3321228,0.4026718,1.176709,0.34833986,1.179895,79.0
674,-0.3499472,-0.3321228,0.4026718,1.0312134,0.2623169,0.93138427,79.0
675,-0.4182878,0.12985992,0.24711227,1.0312134,0.2623169,0.93138427,79.0
676,-0.4182878,0.12985992,0.24711227,0.81987303,0.18160401,0.66588134,79.0
677,-0.27574354,0.41144562,0.025863647,0.81987303,0.18160401,0.66588134,79.0
678,-0.27574354,0.41144562,0.025863647,0.53737795,0.090270996,0.33134767,79.0
679,-0.011390746,0.29271698,-0.017772675,0.53737795,0.090270996,0.33134767,79.0
680,-0.011390746,0.29271698,-0.017772675,0.26337892,0.0031860352,-0.016992187,79.0
681,0.1472351,-0.04143524,0.17701721,0.26337892,0.0031860352,-0.016992187,79.0
682,0.1472351,-0.04143524,0.17701721,0.1529297,-0.1359375,-0.29205322,79.0
683,0.22029054,-0.2285614,0.46718597,0.1529297,-0.1359375,-0.29205322,79.0
684,0.22029054,-0.2285614,0.46718597,0.11257324,-0.38657227,-0.63933104,79.0
685,0.30142772,-0.2286148,0.63186646,0.11257324,-0.38657227,-0.63933104,79.0
686,0.30142772,-0.2286148,0.63186646,0.08602295,-0.5894165,-0.9696167,79.0
687,-0.13600624,0.011238098,0.63770676,0.08602295,-0.5894165,-0.9696167,79.0
688,-0.13600624,0.011238098,0.63770676,-0.0361084,-0.7126099,-1.0343994,79.0
689,-1.2917273,0.47766876,0.52664566,-0.0361084,-0.7126099,-1.0343994,79.0
690,-1.2917273,0.47766876,0.52664566,-0.25806886,-0.7890747,-0.90802,79.0
691,-2.1813312,0.8004608,0.4067421,-0.25806886,-0.7890747,-0.90802,79.0
692,-2.1813312,0.8004608,0.4067421,-0.39506838,-0.89208984,-0.79332274,79.0
693,-1.7799771,0.65480804,0.35438538,-0.39506838,-0.89208984,-0.79332274,79.0
694,-1.7799771,0.65480804,0.35438538,-0.30161133,-1.0620117,-0.90270996,79.0
695,-0.24968964,0.042381287,0.45209885,-0.30161133,-1.0620117,-0.90270996,79.0
696,-0.24968964,0.042381287,0.45209885,-0.078588866,-1.269104,-1.1363525,79.0
697,1.2083416,-0.7604675,0.7130699,-0.078588866,-1.269104,-1.1363525,79.0
698,1.2083416,-0.7604675,0.7130699,0.14549561,-1.4634522,-1.3986695,79.0
699,1.4829698,-1.2918091,0.9336624,0.14549561,-1.4634522,-1.3986695,79.0
700,1.4829698,-1.2918091,0.9336624,0.29630128,-1.5685914,-1.5792115,79.0
701,0.5668445,-1.22715,0.93872833,0.29630128,-1.5685914,-1.5792115,79.0
702,0.5668445,-1.22715,0.93872833,0.31329346,-1.545227,-1.6206299,79.0
703,-0.58982277,-0.6328583,0.8047447,0.31329346,-1.545227,-1.6206299,79.0
704,-0.58982277,-0.6328583,0.8047447,0.18372802,-1.5282348,-1.5558472,79.0
705,-1.1780838,-0.02155304,0.6793785,0.18372802,-1.5282348,-1.5558472,79.0
706,-1.1780838,-0.02155304,0.6793785,0.033984374,-1.363623,-1.5420411,79.0
707,-1.0753894,0.09547424,0.7421608,0.033984374,-1.363623,-1.5420411,79.0
708,-1.0753894,0.09547424,0.7421608,0.0031860352,-1.3689331,-1.4400879,79.0
709,-0.36451077,-0.31905365,1.0532265,0.0031860352,-1.3689331,-1.4400879,79.0
710,-0.36451077,-0.31905365,1.0532265,0.31860352,-1.2818482,-1.5261109,79.0
711,0.50837916,-0.8486862,1.4538116,0.31860352,-1.2818482,-1.5261109,79.0
712,0.50837916,-0.8486862,1.4538116,0.635083,-1.2977784,-1.3944215,79.0
713,1.0916154,-1.0370941,1.6635132,0.635083,-1.2977784,-1.3944215,79.0
714,1.0916154,-1.0370941,1.6635132,0.7720825,-1.1809571,-1.4039795,79.0
715,1.3931044,-0.9812546,1.5922356,0.7720825,-1.1809571,-1.4039795,79.0
716,1.3931044,-0.9812546,1.5922356,0.7805786,-0.9834229,-1.354065,79.0
717,1.4363463,-0.9389343,1.4114227,0.7805786,-0.9834229,-1.354065,79.0
718,1.4363463,-0.9389343,1.4114227,0.69986576,-0.815625,-1.2308716,79.0
719,1.1063524,-0.85245514,1.2813263,0.69986576,-0.815625,-1.2308716,79.0
720,1.1063524,-0.85245514,1.2813263,0.7954468,-0.6690674,-1.081128,79.0
721,0.57679343,-0.56469727,1.191761,0.7954468,-0.6690674,-1.081128,79.0
722,0.57679343,-0.56469727,1.191761,0.7720825,-0.5097656,-0.815625,79.0
723,0.37677896,-0.32880402,1.0702057,0.7720825,-0.5097656,-0.815625,79.0
724,0.37677896,-0.32880402,1.0702057,0.72216797,-0.34833986,-0.5299439,79.0
725,0.789973,-0.44644165,0.9325447,0.72216797,-0.34833986,-0.5299439,79.0
726,0.789973,-0.44644165,0.9325447,0.9515625,-0.24851075,-0.20603028,79.0
727,1.4906697,-0.6581421,0.7365036,0.9515625,-0.24851075,-0.20603028,79.0
728,1.4906697,-0.6581421,0.7365036,1.0949341,-0.10938721,0.08602295,79.0
729,2.0201116,-0.65522003,0.4661789,1.0949341,-0.10938721,0.08602295,79.0
730,2.0201116,-0.65522003,0.4661789,0.8952759,0.047790527,0.25594482,79.0
731,2.1912968,-0.5118332,0.24972534,0.8952759,0.047790527,0.25594482,79.0
732,2.1912968,-0.5118332,0.24972534,0.4980835,0.22939454,0.4354248,79.0
733,1.6750345,-0.31080627,0.14632797,0.4980835,0.22939454,0.4354248,79.0
734,1.6750345,-0.31080627,0.14632797,0.21240234,0.26868898,0.76464844,79.0
735,0.08375335,0.042640686,-0.056427002,0.21240234,0.26868898,0.76464844,79.0
736,0.08375335,0.042640686,-0.056427002,0.3079834,0.2442627,1.173523,79.0
737,-1.618654,0.32304382,-0.3657341,0.3079834,0.2442627,1.173523,79.0
738,-1.618654,0.32304382,-0.3657341,0.74871826,0.35895997,1.4114136,79.0
739,-1.6509902,-0.035606384,-0.3561859,0.74871826,0.35895997,1.4114136,79.0
740,-1.6509902,-0.035606384,-0.3561859,1.5431031,0.39188233,1.4645141,79.0
741,0.24870253,-1.0083084,0.03648758,1.5431031,0.39188233,1.4645141,79.0
742,0.24870253,-1.0083084,0.03648758,2.272705,0.3982544,1.3933594,79.0
743,2.7115963,-1.7360382,0.3863182,2.272705,0.3982544,1.3933594,79.0
744,2.7115963,-1.7360382,0.3863182,2.3863404,0.53950197,1.3402588,79.0
745,3.8828878,-1.4067993,0.43335724,2.3863404,0.53950197,1.3402588,79.0
746,3.8828878,-1.4067993,0.43335724,1.8702027,0.72004396,1.3763672,79.0
747,2.4728265,0.025650024,0.19355011,1.8702027,0.72004396,1.3763672,79.0
748,2.4728265,0.025650024,0.19355011,1.0067872,1.0078491,1.5250489,79.0
749,2.4728265,0.025650024,0.19355011,1.0067872,1.0078491,1.5250489,78.0
750,-0.8478985,1.6399994,-0.07090759,1.0067872,1.0078491,1.5250489,78.0
751,-0.8478985,1.6399994,-0.07090759,0.38444826,1.1331666,1.8903809,78.0
752,-3.9030137,2.3706665,-0.2124176,0.38444826,1.1331666,1.8903809,78.0
753,-3.9030137,2.3706665,-0.2124176,0.27718505,0.9876709,2.081543,78.0
754,-5.324498,2.1793747,-0.27008057,0.27718505,0.9876709,2.081543,78.0
755,-5.324498,2.1793747,-0.27008057,0.45772704,0.79332274,2.3353639,78.0
756,-5.209733,1.573906,-0.35603333,0.45772704,0.79332274,2.3353639,78.0
757,-5.209733,1.573906,-0.35603333,0.6074707,0.6786255,2.5870607,78.0
758,-4.270399,0.95648956,-0.4833145,0.6074707,0.6786255,2.5870607,78.0
759,-4.270399,0.95648956,-0.4833145,0.6966797,0.6510132,2.6093628,78.0
760,-3.0733016,0.50302124,-0.55016327,0.6966797,0.6510132,2.6093628,78.0
761,-3.0733016,0.50302124,-0.55016327,0.8772217,0.635083,2.4989135,78.0
762,-1.8710314,0.20163727,-0.45492554,0.8772217,0.635083,2.4989135,78.0
763,-1.8710314,0.20163727,-0.45492554,1.1098022,0.58198243,2.18031,78.0
764,-0.7319814,0.039222717,-0.236866,1.1098022,0.58198243,2.18031,78.0
765,-0.7319814,0.039222717,-0.236866,1.3200806,0.6202149,1.81604,78.0
766,0.18121171,0.018585205,-0.052532196,1.3200806,0.6202149,1.81604,78.0
767,0.18121171,0.018585205,-0.052532196,1.3498169,0.72004396,1.4390259,78.0
768,0.46440303,0.21975708,-0.007713318,1.3498169,0.72004396,1.4390259,78.0
769,0.46440303,0.21975708,-0.007713318,1.2117554,0.64782715,1.1427246,78.0
770,-0.054771543,0.8056793,-0.15420532,1.2117554,0.64782715,1.1427246,78.0
771,-0.054771543,0.8056793,-0.15420532,0.90058595,0.45666504,0.8973999,78.0
772,-0.75613403,1.5958023,-0.46502686,0.90058595,0.45666504,0.8973999,78.0
773,-0.75613403,1.5958023,-0.46502686,0.3971924,0.2824951,0.5787964,78.0
774,-0.860559,1.9409714,-0.6608124,0.3971924,0.2824951,0.5787964,78.0
775,-0.860559,1.9409714,-0.6608124,0.20284425,0.19222413,0.13168946,78.0
776,-0.43478513,1.5358887,-0.36274338,0.20284425,0.19222413,0.13168946,78.0
777,-0.43478513,1.5358887,-0.36274338,0.24638672,0.0053100586,-0.25806886,78.0
778,0.050511718,0.79241943,0.39775467,0.24638672,0.0053100586,-0.25806886,78.0
779,0.050511718,0.79241943,0.39775467,0.22939454,-0.24638672,-0.541626,78.0
780,0.33616138,0.2189331,1.0910301,0.22939454,-0.24638672,-0.541626,78.0
781,0.33616138,0.2189331,1.0910301,0.115759276,-0.5140137,-0.7858887,78.0
782,-0.029996753,0.16536713,1.2796822,0.115759276,-0.5140137,-0.7858887,78.0
783,-0.029996753,0.16536713,1.2796822,-0.0722168,-0.77102053,-0.89102787,78.0
784,-1.053868,0.5398483,1.0299606,-0.0722168,-0.77102053,-0.89102787,78.0
785,-1.053868,0.5398483,1.0299606,-0.4428589,-0.86341554,-0.8602295,78.0
786,-1.7564001,0.67961884,0.7362976,-0.4428589,-0.86341554,-0.8602295,78.0
787,-1.7564001,0.67961884,0.7362976,-0.5734863,-1.0248413,-0.83686525,78.0
788,-1.3256645,0.29878235,0.74183273,-0.5734863,-1.0248413,-0.83686525,78.0
789,-1.3256645,0.29878235,0.74183273,-0.41206056,-1.2882203,-0.9781128,78.0
790,0.13778377,-0.40535736,1.0285988,-0.41206056,-1.2882203,-0.9781128,78.0
791,0.13778377,-0.40535736,1.0285988,-0.27293703,-1.5229248,-1.2223755,78.0
792,1.5578468,-1.1900101,1.3822174,-0.27293703,-1.5229248,-1.2223755,78.0
793,1.5578468,-1.1900101,1.3822174,-0.13168946,-1.7034668,-1.5144287,78.0
794,1.8987067,-1.7384949,1.6102066,-0.13168946,-1.7034668,-1.5144287,78.0
795,1.8987067,-1.7384949,1.6102066,0.06159668,-1.8171021,-1.7013428,78.0
796,1.0326494,-1.7086716,1.7313156,0.06159668,-1.8171021,-1.7013428,78.0
797,1.0326494,-1.7086716,1.7313156,0.18479005,-1.6843506,-1.7863038,78.0
798,-0.30008888,-1.021965,1.7323799,0.18479005,-1.6843506,-1.7863038,78.0
799,-0.30008888,-1.021965,1.7323799,-0.1985962,-1.3614991,-1.7416992,78.0
800,-1.2528031,-0.25746155,1.4937515,-0.1985962,-1.3614991,-1.7416992,78.0
801,-1.2528031,-0.25746155,1.4937515,-0.813501,-1.0110352,-1.5802735,78.0
802,-1.4574182,-0.120147705,0.9937782,-0.813501,-1.0110352,-1.5802735,78.0
803,-1.4574182,-0.120147705,0.9937782,-1.1076783,-0.8496094,-1.713025,78.0
804,-0.8852217,-0.5686798,0.5287857,-1.1076783,-0.8496094,-1.713025,78.0
805,-0.8852217,-0.5686798,0.5287857,-0.52038574,-0.9759888,-1.6726685,78.0
806,0.05018449,-1.0415039,0.48075485,-0.52038574,-0.9759888,-1.6726685,78.0
807,0.05018449,-1.0415039,0.48075485,-0.29630128,-1.0428956,-1.5972656,78.0
808,1.0122669,-1.3101044,0.7904358,-0.29630128,-1.0428956,-1.5972656,78.0
809,1.0122669,-1.3101044,0.7904358,-0.07540283,-0.90695804,-1.5006226,78.0
810,1.8729117,-1.4135437,1.1784058,-0.07540283,-0.90695804,-1.5006226,78.0
811,1.8729117,-1.4135437,1.1784058,0.1996582,-0.7412842,-1.2765381,78.0
812,2.3787615,-1.4016724,1.4876595,0.1996582,-0.7412842,-1.2765381,78.0
813,2.3787615,-1.4016724,1.4876595,0.5150757,-0.63933104,-1.0683838,78.0
814,2.317206,-1.1485596,1.5140533,0.5150757,-0.63933104,-1.0683838,78.0
815,2.317206,-1.1485596,1.5140533,0.62127686,-0.5235718,-0.7943848,78.0
816,1.7384084,-0.63464355,1.1983185,0.62127686,-0.5235718,-0.7943848,78.0
817,1.7384084,-0.63464355,1.1983185,0.62340087,-0.38763428,-0.5341919,78.0
818,1.2369182,-0.18249512,0.7422104,0.62340087,-0.38763428,-0.5341919,78.0
819,1.2369182,-0.18249512,0.7422104,0.47471926,-0.21134034,-0.29948732,78.0
820,1.3208822,-0.09120941,0.39814758,0.47471926,-0.21134034,-0.29948732,78.0
821,1.3208822,-0.09120941,0.39814758,0.37489015,-0.04885254,-0.118945315,78.0
822,1.7794108,-0.3282318,0.15658951,0.37489015,-0.04885254,-0.118945315,78.0
823,1.7794108,-0.3282318,0.15658951,0.27399904,0.1178833,0.0541626,78.0
824,1.9932553,-0.5608444,-0.08420181,0.27399904,0.1178833,0.0541626,78.0
825,1.9932553,-0.5608444,-0.08420181,0.21452637,0.23682861,0.24213867,78.0
826,1.7815793,-0.6056442,-0.30020142,0.21452637,0.23682861,0.24213867,78.0
827,1.7815793,-0.6056442,-0.30020142,0.06584473,0.35471192,0.42374268,78.0
828,1.1081126,-0.441864,-0.34108734,0.06584473,0.35471192,0.42374268,78.0
829,1.1081126,-0.441864,-0.34108734,0.0722168,0.3430298,0.74659425,78.0
830,-0.31740403,-0.005760193,-0.34845734,0.0722168,0.3430298,0.74659425,78.0
831,-0.31740403,-0.005760193,-0.34845734,0.3090454,0.31010744,1.1841431,78.0
832,-1.7241869,0.45429993,-0.45187378,0.3090454,0.31010744,1.1841431,78.0
833,-1.7241869,0.45429993,-0.45187378,0.79119873,0.45347902,1.4793824,78.0
834,-1.5536782,0.3860016,-0.43698883,0.79119873,0.45347902,1.4793824,78.0
835,-1.5536782,0.3860016,-0.43698883,1.454956,0.4619751,1.6163819,78.0
836,0.34594905,-0.22193909,-0.23067093,1.454956,0.4619751,1.6163819,78.0
837,0.34594905,-0.22193909,-0.23067093,2.0974731,0.48640138,1.6004517,78.0
838,2.6285539,-0.7316742,0.044418335,2.0974731,0.48640138,1.6004517,78.0
839,2.6285539,-0.7316742,0.044418335,2.1930542,0.54587406,1.540979,78.0
840,3.6885,-0.5530853,0.24969482,2.1930542,0.54587406,1.540979,78.0
841,3.6885,-0.5530853,0.24969482,1.6854126,0.75615233,1.4963745,78.0
842,2.4026313,0.47464752,0.2239151,1.6854126,0.75615233,1.4963745,78.0
843,2.4026313,0.47464752,0.2239151,0.903772,0.91757816,1.628064,78.0
844,-0.7720599,1.8160706,-0.033866882,0.903772,0.91757816,1.628064,78.0
845,-0.7720599,1.8160706,-0.033866882,0.15823975,1.0450195,1.8415283,78.0
846,-3.8809047,2.6205673,-0.36517715,0.15823975,1.0450195,1.8415283,78.0
847,-3.8809047,2.6205673,-0.36517715,-0.021240234,0.97386473,2.1335816,78.0
848,-5.475134,2.6556702,-0.64538956,-0.021240234,0.97386473,2.1335816,78.0
849,-5.475134,2.6556702,-0.64538956,0.10301514,0.814563,2.4150147,78.0
850,-5.5080247,2.2571716,-0.8322296,0.10301514,0.814563,2.4150147,78.0
851,-5.5080247,2.2571716,-0.8322296,0.16885987,0.7104859,2.5913086,78.0
852,-4.6022573,1.7088623,-0.9464836,0.16885987,0.7104859,2.5913086,78.0
853,-4.6022573,1.7088623,-0.9464836,0.35152587,0.66481936,2.717688,78.0
854,-3.3353214,1.2473755,-0.9524765,0.35152587,0.66481936,2.717688,78.0
855,-3.3353214,1.2473755,-0.9524765,0.540564,0.6637573,2.6040528,78.0
856,-2.059749,0.91664124,-0.8252106,0.540564,0.6637573,2.6040528,78.0
857,-2.059749,0.91664124,-0.8252106,0.72641605,0.59897465,2.3003175,78.0
858,-1.0190272,0.6823883,-0.5993538,0.72641605,0.59897465,2.3003175,78.0
859,-1.0190272,0.6823883,-0.5993538,0.8644776,0.5703003,1.9445435,78.0
860,-0.3468504,0.5744171,-0.38394165,0.8644776,0.5703003,1.9445435,78.0
861,-0.3468504,0.5744171,-0.38394165,0.78376466,0.58623046,1.5059327,78.0
862,-0.22008276,0.63362885,-0.21716309,0.78376466,0.58623046,1.5059327,78.0
863,-0.22008276,0.63362885,-0.21716309,0.6818115,0.5363159,1.1968873,78.0
864,-0.5866008,1.0263367,-0.17114258,0.6818115,0.5363159,1.1968873,78.0
865,-0.5866008,1.0263367,-0.17114258,0.4895874,0.43011475,0.87615967,78.0
866,-0.96156573,1.5993423,-0.25265884,0.4895874,0.43011475,0.87615967,78.0
867,-0.96156573,1.5993423,-0.25265884,0.2081543,0.22302246,0.4885254,78.0
868,-0.94717,1.9111099,-0.3856964,0.2081543,0.22302246,0.4885254,78.0
869,-0.94717,1.9111099,-0.3856964,0.046728518,-0.057348635,-0.0180542,78.0
870,-0.5314541,1.6405487,-0.3896637,0.046728518,-0.057348635,-0.0180542,78.0
871,-0.5314541,1.6405487,-0.3896637,-0.06478272,-0.2527588,-0.5065796,78.0
872,0.012471199,0.88368225,-0.06167221,-0.06478272,-0.2527588,-0.5065796,78.0
873,0.012471199,0.88368225,-0.06167221,-0.10301514,-0.4354248,-0.84323734,78.0
874,0.4284706,0.13767242,0.43445206,-0.10301514,-0.4354248,-0.84323734,78.0
875,0.4284706,0.13767242,0.43445206,-0.11151123,-0.6595093,-1.1490967,78.0
876,0.5822785,-0.19213104,0.7137718,-0.11151123,-0.6595093,-1.1490967,78.0
877,0.5822785,-0.19213104,0.7137718,-0.15505372,-0.83474123,-1.4294678,78.0
878,0.5822785,-0.19213104,0.7137718,-0.15505372,-0.83474123,-1.4294678,78.0
879,0.3277979,-0.12483215,0.6634598,-0.15505372,-0.83474123,-1.4294678,78.0
880,0.3277979,-0.12483215,0.6634598,-0.27506104,-0.94412845,-1.5229248,78.0
881,-0.10820866,-0.024658203,0.5080719,-0.27506104,-0.94412845,-1.5229248,78.0
882,-0.10820866,-0.024658203,0.5080719,-0.42692873,-0.9600586,-1.5622193,78.0
883,0.06597233,-0.26898193,0.484581,-0.42692873,-0.9600586,-1.5622193,78.0
884,0.06597233,-0.26898193,0.484581,-0.41949463,-1.0057251,-1.627002,78.0
885,1.0447335,-0.80313873,0.6889343,-0.41949463,-1.0057251,-1.627002,78.0
886,1.0447335,-0.80313873,0.6889343,-0.3430298,-1.1204224,-1.7586914,78.0
887,1.9777789,-1.3297806,1.0351295,-0.3430298,-1.1204224,-1.7586914,78.0
888,1.9777789,-1.3297806,1.0351295,-0.30054933,-1.2319336,-1.9402955,78.0
889,2.1735928,-1.7053757,1.3104134,-0.30054933,-1.2319336,-1.9402955,78.0
890,2.1735928,-1.7053757,1.3104134,-0.14230958,-1.351941,-2.0443726,78.0
891,1.6205881,-1.7938766,1.3884773,-0.14230958,-1.351941,-2.0443726,78.0
892,1.6205881,-1.7938766,1.3884773,-0.10089111,-1.356189,-2.1346436,78.0
893,0.61547685,-1.4658737,1.3012962,-0.10089111,-1.356189,-2.1346436,78.0
894,0.61547685,-1.4658737,1.3012962,-0.26125488,-1.2404298,-2.0634887,78.0
895,-0.3299818,-0.97177124,1.2359848,-0.26125488,-1.2404298,-2.0634887,78.0
896,-0.3299818,-0.97177124,1.2359848,-0.5363159,-1.0142212,-1.906311,78.0
897,-0.83135605,-0.71369934,1.1406441,-0.5363159,-1.0142212,-1.906311,78.0
898,-0.83135605,-0.71369934,1.1406441,-0.7699585,-0.8294312,-1.893567,78.0
899,-0.74756765,-0.7070923,0.8877487,-0.7699585,-0.8294312,-1.893567,78.0
900,-0.74756765,-0.7070923,0.8877487,-0.55968016,-0.8028809,-1.7555054,78.0
901,-0.25795412,-0.86494446,0.55286026,-0.55968016,-0.8028809,-1.7555054,78.0
902,-0.25795412,-0.86494446,0.55286026,-0.30479738,-0.8506714,-1.6588624,78.0
903,0.391464,-1.0674286,0.35832977,-0.30479738,-0.8506714,-1.6588624,78.0
904,0.391464,-1.0674286,0.35832977,-0.0021240234,-0.80394286,-1.5749635,78.0
905,1.1707761,-1.1341705,0.55300903,-0.0021240234,-0.80394286,-1.5749635,78.0
906,1.1707761,-1.1341705,0.55300903,0.19647217,-0.6287109,-1.4103516,78.0
907,1.9538816,-1.0328522,1.0114746,0.19647217,-0.6287109,-1.4103516,78.0
908,1.9538816,-1.0328522,1.0114746,0.021240234,-0.4163086,-1.2977784,78.0
909,2.3581128,-0.8305969,1.2629051,0.021240234,-0.4163086,-1.2977784,78.0
910,2.3581128,-0.8305969,1.2629051,-0.31010744,-0.23895264,-1.1161743,78.0
911,2.0534334,-0.70137024,1.0759125,-0.31010744,-0.23895264,-1.1161743,78.0
912,2.0534334,-0.70137024,1.0759125,-0.5320679,-0.118945315,-0.89208984,78.0
913,1.2994119,-0.7113724,0.757946,-0.5320679,-0.118945315,-0.89208984,78.0
914,1.2994119,-0.7113724,0.757946,-0.33665773,-0.012744141,-0.5607422,78.0
915,0.9336213,-0.6655655,0.5442352,-0.33665773,-0.012744141,-0.5607422,78.0
916,0.9336213,-0.6655655,0.5442352,-0.3345337,0.093457036,-0.2516968,78.0
917,1.3151221,-0.55807495,0.19106293,-0.3345337,0.093457036,-0.2516968,78.0
918,1.3151221,-0.55807495,0.19106293,-0.42161867,0.20390625,0.02442627,78.0
919,1.8583233,-0.6143646,-0.29629517,-0.42161867,0.20390625,0.02442627,78.0
920,1.8583233,-0.6143646,-0.29629517,-0.32922363,0.24532472,0.31329346,78.0
921,2.0748057,-0.7740097,-0.5128174,-0.32922363,0.24532472,0.31329346,78.0
922,2.0748057,-0.7740097,-0.5128174,-0.15611573,0.24001466,0.5703003,78.0
923,1.8768735,-0.75123596,-0.31191254,-0.15611573,0.24001466,0.5703003,78.0
924,1.8768735,-0.75123596,-0.31191254,-0.07646485,0.2793091,0.86341554,78.0
925,0.7769871,-0.3373413,-0.043548584,-0.07646485,0.2793091,0.86341554,78.0
926,0.7769871,-0.3373413,-0.043548584,0.07434082,0.3175415,1.263794,78.0
927,-0.9682298,0.22491455,-0.17897797,0.07434082,0.3175415,1.263794,78.0
928,-0.9682298,0.22491455,-0.17897797,0.50445557,0.38763428,1.6461182,78.0
929,-1.6791737,0.3670044,-0.4990921,0.50445557,0.38763428,1.6461182,78.0
930,-1.6791737,0.3670044,-0.4990921,1.2329956,0.47896728,1.7947998,78.0
931,-0.53052163,0.08244324,-0.50523376,1.2329956,0.47896728,1.7947998,78.0
932,-0.53052163,0.08244324,-0.50523376,1.7682495,0.52675784,1.7894897,78.0
933,1.4233732,-0.09365845,-0.30931473,1.7682495,0.52675784,1.7894897,78.0
934,1.4233732,-0.09365845,-0.30931473,1.7416992,0.7062378,1.901001,78.0
935,2.5657616,0.14228821,-0.20618057,1.7416992,0.7062378,1.901001,78.0
936,2.5657616,0.14228821,-0.20618057,1.4634522,0.8846558,1.8415283,78.0
937,1.9520357,0.8637085,-0.29597473,1.4634522,0.8846558,1.8415283,78.0
938,1.9520357,0.8637085,-0.29597473,0.7975708,1.0322754,1.9424194,78.0
939,-0.22687244,1.8052979,-0.46396637,0.7975708,1.0322754,1.9424194,78.0
940,-0.22687244,1.8052979,-0.46396637,0.15186767,1.0864381,2.1420777,78.0
941,-2.8076944,2.420044,-0.619854,0.15186767,1.0864381,2.1420777,78.0
942,-2.8076944,2.420044,-0.619854,-0.0063720704,0.98129886,2.34386,78.0
943,-4.4874763,2.4784088,-0.75569916,-0.0063720704,0.98129886,2.34386,78.0
944,-4.4874763,2.4784088,-0.75569916,0.11363526,0.80394286,2.6210449,78.0
945,-4.875211,2.2120514,-0.83247757,0.11363526,0.80394286,2.6210449,78.0
946,-4.875211,2.2120514,-0.83247757,0.17416993,0.71367186,2.6762695,78.0
947,-4.351096,1.8013458,-0.89691544,0.17416993,0.71367186,2.6762695,78.0
948,-4.351096,1.8013458,-0.89691544,0.3430298,0.67437744,2.7899048,78.0
949,-3.3983574,1.4091415,-0.91342926,0.3430298,0.67437744,2.7899048,78.0
950,-3.3983574,1.4091415,-0.91342926,0.61278075,0.6149048,2.7314942,78.0
951,-2.4643035,1.3105316,-0.8709564,0.61278075,0.6149048,2.7314942,78.0
952,-2.4643035,1.3105316,-0.8709564,0.68924564,0.62764895,2.5190918,78.0
953,-1.8952346,1.5158539,-0.7902603,0.68924564,0.62764895,2.5190918,78.0
954,-1.8952346,1.5158539,-0.7902603,0.71579593,0.5957886,2.1962402,78.0
955,-1.7070446,1.7932739,-0.66238403,0.71579593,0.5957886,2.1962402,78.0
956,-1.7070446,1.7932739,-0.66238403,0.6754395,0.52675784,1.7533814,78.0
957,-1.6311507,1.9188461,-0.4974861,0.6754395,0.52675784,1.7533814,78.0
958,-1.6311507,1.9188461,-0.4974861,0.54587406,0.3971924,1.1894531,78.0
959,-1.4750986,1.7814636,-0.30779266,0.54587406,0.3971924,1.1894531,78.0
960,-1.4750986,1.7814636,-0.30779266,0.2793091,0.3069214,0.69349366,78.0
961,-1.1513801,1.3686752,-0.11722946,0.2793091,0.3069214,0.69349366,78.0
962,-1.1513801,1.3686752,-0.11722946,0.07752686,0.18160401,0.20072022,78.0
963,-0.6977887,0.84451294,0.08724594,0.07752686,0.18160401,0.20072022,78.0
964,-0.6977887,0.84451294,0.08724594,-0.0637207,0.047790527,-0.271875,78.0
965,-0.096927166,0.3330536,0.28494644,-0.0637207,0.047790527,-0.271875,78.0
966,-0.096927166,0.3330536,0.28494644,-0.21346436,-0.010620117,-0.7593384,78.0
967,0.5334816,-0.18815613,0.4205246,-0.21346436,-0.010620117,-0.7593384,78.0
968,0.5334816,-0.18815613,0.4205246,-0.27718505,-0.09239502,-1.1490967,78.0
969,0.87953186,-0.54616547,0.41246033,-0.27718505,-0.09239502,-1.1490967,78.0
970,0.87953186,-0.54616547,0.41246033,-0.27718505,-0.20603028,-1.4114136,78.0
971,0.9823365,-0.63274384,0.24627686,-0.27718505,-0.20603028,-1.4114136,78.0
972,0.9823365,-0.63274384,0.24627686,-0.3175415,-0.2899292,-1.6376221,78.0
973,0.8962817,-0.5996628,0.05184555,-0.3175415,-0.2899292,-1.6376221,78.0
974,0.8962817,-0.5996628,0.05184555,-0.3334717,-0.42055663,-1.722583,78.0
975,0.46246004,-0.542984,-0.04991913,-0.3334717,-0.42055663,-1.722583,78.0
976,0.46246004,-0.542984,-0.04991913,-0.47684327,-0.4428589,-1.7448853,78.0
977,0.24958229,-0.6281738,0.006427765,-0.47684327,-0.4428589,-1.7448853,78.0
978,0.24958229,-0.6281738,0.006427765,-0.6138428,-0.45029297,-1.8627685,78.0
979,0.9020586,-0.99645996,0.26374817,-0.6138428,-0.45029297,-1.8627685,78.0
980,0.9020586,-0.99645996,0.26374817,-0.71154785,-0.5479981,-2.0241945,78.0
981,2.0509925,-1.4546661,0.58301926,-0.71154785,-0.5479981,-2.0241945,78.0
982,2.0509925,-1.4546661,0.58301926,-0.81987303,-0.6860596,-2.1388917,78.0
983,2.6912823,-1.7776642,0.6275482,-0.81987303,-0.6860596,-2.1388917,78.0
984,2.6912823,-1.7776642,0.6275482,-0.9505005,-0.75615233,-2.267395,78.0
985,2.1508896,-1.7436142,0.33541107,-0.9505005,-0.75615233,-2.267395,78.0
986,2.1508896,-1.7436142,0.33541107,-1.175647,-0.73703617,-2.2960694,78.0
987,0.79860485,-1.3726959,-0.07818985,-1.175647,-0.73703617,-2.2960694,78.0
988,0.79860485,-1.3726959,-0.07818985,-1.3307008,-0.7317261,-2.2249146,78.0
989,-0.65437794,-0.9331436,-0.42652893,-1.3307008,-0.7317261,-2.2249146,78.0
990,-0.65437794,-0.9331436,-0.42652893,-1.5080566,-0.66269535,-2.0942872,78.0
991,-1.6036048,-0.7310257,-0.5821762,-1.5080566,-0.66269535,-2.0942872,78.0
992,-1.6036048,-0.7310257,-0.5821762,-1.4039795,-0.67650145,-1.9710938,78.0
993,-1.5797465,-0.87218475,-0.5583687,-1.4039795,-0.67650145,-1.9710938,78.0
994,-1.5797465,-0.87218475,-0.5583687,-1.0651978,-0.7784546,-1.8925049,78.0
995,-1.5797465,-0.87218475,-0.5583687,-1.0651978,-0.7784546,-1.8925049,77.0
996,-0.76339436,-1.1578064,-0.4020157,-1.0651978,-0.7784546,-1.8925049,77.0
997,-0.76339436,-1.1578064,-0.4020157,-0.72216797,-0.82836914,-1.8489624,77.0
998,0.41792226,-1.4475632,-0.06934357,-0.72216797,-0.82836914,-1.8489624,77.0
999,0.41792226,-1.4475632,-0.06934357,-0.3536499,-0.815625,-1.811792,77.0
1000,1.5051022,-1.6188965,0.33944702,-0.3536499,-0.815625,-1.811792,77.0
1001,1.5051022,-1.6188965,0.33944702,-0.023364259,-0.83686525,-1.7576294,77.0
1002,2.1837204,-1.5202484,0.5899811,-0.023364259,-0.83686525,-1.7576294,77.0
1003,2.1837204,-1.5202484,0.5899811,0.09770508,-0.725354,-1.7480713,77.0
1004,2.6324255,-1.330162,0.6712761,0.09770508,-0.725354,-1.7480713,77.0
1005,2.6324255,-1.330162,0.6712761,0.07965088,-0.59047854,-1.7055908,77.0
1006,2.8653643,-1.1821594,0.7303543,0.07965088,-0.59047854,-1.7055908,77.0
1007,2.8653643,-1.1821594,0.7303543,0.021240234,-0.56392825,-1.6174439,77.0
1008,2.5304873,-0.92232513,0.74596405,0.021240234,-0.56392825,-1.6174439,77.0
1009,2.5304873,-0.92232513,0.74596405,-0.29523927,-0.51082766,-1.359375,77.0
1010,1.8747561,-0.6856537,0.80326843,-0.29523927,-0.51082766,-1.359375,77.0
1011,1.8747561,-0.6856537,0.80326843,-0.16354981,-0.49489745,-1.0375855,77.0
1012,1.5827518,-0.72436523,0.9466057,-0.16354981,-0.49489745,-1.0375855,77.0
1013,1.5827518,-0.72436523,0.9466057,0.121069334,-0.46516114,-0.6945557,77.0
1014,1.7275661,-0.88786316,1.0243225,0.121069334,-0.46516114,-0.6945557,77.0
1015,1.7275661,-0.88786316,1.0243225,0.39506838,-0.3717041,-0.31010744,77.0
1016,1.890732,-0.80519867,0.8040924,0.39506838,-0.3717041,-0.31010744,77.0
1017,1.890732,-0.80519867,0.8040924,0.33240968,-0.21240234,0.06903076,77.0
1018,1.7721314,-0.37220764,0.31299973,0.33240968,-0.21240234,0.06903076,77.0
1019,1.7721314,-0.37220764,0.31299973,-0.05628662,0.0031860352,0.41312256,77.0
1020,1.1120656,0.1538086,-0.14902878,-0.05628662,0.0031860352,0.41312256,77.0
1021,1.1120656,0.1538086,-0.14902878,-0.1985962,0.115759276,0.7827026,77.0
1022,-0.29945898,0.52262115,-0.42172623,-0.1985962,0.115759276,0.7827026,77.0
1023,-0.29945898,0.52262115,-0.42172623,-0.043542482,0.16142578,1.177771,77.0
1024,-1.681706,0.58403015,-0.5558357,-0.043542482,0.16142578,1.177771,77.0
1025,-1.681706,0.58403015,-0.5558357,0.41949463,0.270813,1.536731,77.0
1026,-1.6796787,0.2594452,-0.41793442,0.41949463,0.270813,1.536731,77.0
1027,-1.6796787,0.2594452,-0.41793442,1.2043213,0.36320803,1.7512573,77.0
1028,-0.04075229,-0.14663696,0.013320923,1.2043213,0.36320803,1.7512573,77.0
1029,-0.04075229,-0.14663696,0.013320923,1.5802735,0.5692383,1.809668,77.0
1030,2.2205234,-0.3131714,0.4893341,1.5802735,0.5692383,1.809668,77.0
1031,2.2205234,-0.3131714,0.4893341,1.5208008,0.8750977,1.8255981,77.0
1032,3.5727565,-0.16220856,0.62540054,1.5208008,0.8750977,1.8255981,77.0
1033,3.5727565,-0.16220856,0.62540054,1.1501588,1.0397094,1.9084351,77.0
1034,2.7508566,0.5765686,0.26556778,1.1501588,1.0397094,1.9084351,77.0
1035,2.7508566,0.5765686,0.26556778,1.1108643,0.96643066,2.0284424,77.0
1036,-0.021360636,1.7791443,-0.40318298,1.1108643,0.96643066,2.0284424,77.0
1037,-0.021360636,1.7791443,-0.40318298,0.58198243,0.90908206,2.2344728,77.0
1038,-2.965526,2.7951126,-0.93875885,0.58198243,0.90908206,2.2344728,77.0
1039,-2.965526,2.7951126,-0.93875885,0.14549561,1.0120972,2.3704102,77.0
1040,-4.650424,3.0642548,-0.99834824,0.14549561,1.0120972,2.3704102,77.0
1041,-4.650424,3.0642548,-0.99834824,0.21452637,0.89421386,2.717688,77.0
1042,-5.118142,2.6785278,-0.7753639,0.21452637,0.89421386,2.717688,77.0
1043,-5.118142,2.6785278,-0.7753639,0.0361084,0.9515625,2.7580445,77.0
1044,-4.731855,1.8188782,-0.67749405,0.0361084,0.9515625,2.7580445,77.0
1045,-4.731855,1.8188782,-0.67749405,0.22302246,0.9303223,2.8610597,77.0
1046,-3.755821,0.9223633,-0.70851135,0.22302246,0.9303223,2.8610597,77.0
1047,-3.755821,0.9223633,-0.70851135,0.7147339,0.77951664,2.806897,77.0
1048,-2.7738585,0.5869751,-0.79494476,0.7147339,0.77951664,2.806897,77.0
1049,-2.7738585,0.5869751,-0.79494476,1.1236085,0.62977296,2.5148437,77.0
1050,-1.8780346,0.71035004,-0.8171463,1.1236085,0.62977296,2.5148437,77.0
1051,-1.8780346,0.71035004,-0.8171463,1.3689331,0.5628662,2.1314576,77.0
1052,-1.0146956,0.93226624,-0.65449524,1.3689331,0.5628662,2.1314576,77.0
1053,-1.0146956,0.93226624,-0.65449524,1.2999023,0.5246338,1.630188,77.0
1054,-0.5098033,1.124939,-0.38090897,1.2999023,0.5246338,1.630188,77.0
1055,-0.5098033,1.124939,-0.38090897,1.0142212,0.41524658,1.2075074,77.0
1056,-0.5098033,1.124939,-0.38090897,0.58410645,0.34940186,0.905896,77.0
1057,-0.5866635,1.3228912,-0.257267,0.58410645,0.34940186,0.905896,77.0
1058,-0.8921213,1.5004044,-0.39523315,0.58410645,0.34940186,0.905896,77.0
1059,-0.8921213,1.5004044,-0.39523315,0.21558838,0.28674316,0.55543214,77.0
1060,-0.8740976,1.5894699,-0.61187744,0.21558838,0.28674316,0.55543214,77.0
1061,-0.8740976,1.5894699,-0.61187744,0.14337158,0.083898924,0.10407715,77.0
1062,-0.41771078,1.5640945,-0.69373703,0.14337158,0.083898924,0.10407715,77.0
1063,-0.41771078,1.5640945,-0.69373703,0.08814698,-0.027612304,-0.51082766,77.0
1064,-0.0041270256,1.3361511,-0.45109558,0.08814698,-0.027612304,-0.51082766,77.0
1065,-0.0041270256,1.3361511,-0.45109558,0.20390625,-0.22727051,-0.9515625,77.0
1066,0.22731352,0.7648468,0.09111023,0.20390625,-0.22727051,-0.9515625,77.0
1067,0.22731352,0.7648468,0.09111023,0.18797608,-0.4354248,-1.3328247,77.0
1068,0.49707294,0.11277008,0.57108307,0.18797608,-0.4354248,-1.3328247,77.0
1069,0.49707294,0.11277008,0.57108307,0.025488282,-0.5957886,-1.6068238,77.0
1070,0.3456564,-0.029342651,0.7581253,0.025488282,-0.5957886,-1.6068238,77.0
1071,0.3456564,-0.029342651,0.7581253,-0.3079834,-0.6860596,-1.5802735,77.0
1072,-0.2182746,0.24879456,0.66210175,-0.3079834,-0.6860596,-1.5802735,77.0
1073,-0.2182746,0.24879456,0.66210175,-0.6881836,-0.7147339,-1.5176147,77.0
1074,-0.113633394,0.27127838,0.46022034,-0.6881836,-0.7147339,-1.5176147,77.0
1075,-0.113633394,0.27127838,0.46022034,-0.83686525,-0.76464844,-1.621692,77.0
1076,1.0417714,-0.2505722,0.37003326,-0.83686525,-0.76464844,-1.621692,77.0
1077,1.0417714,-0.2505722,0.37003326,-0.9228882,-0.88359374,-1.8234742,77.0
1078,2.384992,-1.1311569,0.47681427,-0.9228882,-0.88359374,-1.8234742,77.0
1079,2.384992,-1.1311569,0.47681427,-0.93775636,-1.0227174,-2.0677369,77.0
1080,2.7512798,-1.9866867,0.6706581,-0.93775636,-1.0227174,-2.0677369,77.0
1081,2.7512798,-1.9866867,0.6706581,-0.86766356,-1.1352905,-2.2737672,77.0
1082,1.8384628,-2.4363937,0.85178375,-0.86766356,-1.1352905,-2.2737672,77.0
1083,1.8384628,-2.4363937,0.85178375,-0.6573853,-1.1267945,-2.3417358,77.0
1084,0.31417847,-2.1750946,0.9817543,-0.6573853,-1.1267945,-2.3417358,77.0
1085,0.31417847,-2.1750946,0.9817543,-0.82730716,-1.0705079,-2.275891,77.0
1086,-0.97917485,-1.6037521,0.98908997,-0.82730716,-1.0705079,-2.275891,77.0
1087,-0.97917485,-1.6037521,0.98908997,-1.0407715,-0.82836914,-2.0932252,77.0
1088,-1.4052272,-1.3035355,0.8509903,-1.0407715,-0.82836914,-2.0932252,77.0
1089,-1.4052272,-1.3035355,0.8509903,-0.9281983,-0.7338501,-2.0188844,77.0
1090,-1.0107784,-1.2491074,0.66067505,-0.9281983,-0.7338501,-2.0188844,77.0
1091,-1.0107784,-1.2491074,0.66067505,-0.6552612,-0.6754395,-1.9222412,77.0
1092,-0.22612762,-1.252533,0.41805267,-0.6552612,-0.6754395,-1.9222412,77.0
1093,-0.22612762,-1.252533,0.41805267,-0.4428589,-0.6531372,-1.8606446,77.0
1094,0.7132752,-1.2335587,0.12868118,-0.4428589,-0.6531372,-1.8606446,77.0
1095,0.7132752,-1.2335587,0.12868118,-0.55755615,-0.5703003,-1.7491333,77.0
1096,1.6980249,-1.3572311,0.037540436,-0.55755615,-0.5703003,-1.7491333,77.0
1097,1.6980249,-1.3572311,0.037540436,-0.48427734,-0.49171144,-1.6482422,77.0
1098,2.5176973,-1.523407,0.3368454,-0.48427734,-0.49171144,-1.6482422,77.0
1099,2.5176973,-1.523407,0.3368454,-0.45347902,-0.38869628,-1.4793824,77.0
1100,2.9019997,-1.4915543,0.8515701,-0.45347902,-0.38869628,-1.4793824,77.0
1101,2.9019997,-1.4915543,0.8515701,-0.5564942,-0.2984253,-1.2011353,77.0
1102,2.5188289,-1.1949158,1.0419846,-0.5564942,-0.2984253,-1.2011353,77.0
1103,2.5188289,-1.1949158,1.0419846,-0.7126099,-0.2623169,-0.90802,77.0
1104,1.516357,-0.7918396,0.73921585,-0.7126099,-0.2623169,-0.90802,77.0
1105,1.516357,-0.7918396,0.73921585,-0.78164065,-0.22833252,-0.5564942,77.0
1106,0.7765988,-0.6568222,0.35432434,-0.78164065,-0.22833252,-0.5564942,77.0
1107,0.7765988,-0.6568222,0.35432434,-0.67650145,-0.1720459,-0.22408448,77.0
1108,0.84399635,-0.82141113,0.19089508,-0.67650145,-0.1720459,-0.22408448,77.0
1109,0.84399635,-0.82141113,0.19089508,-0.26444092,-0.17629395,0.058410645,77.0
1110,1.4229876,-0.926651,0.104255676,-0.26444092,-0.17629395,0.058410645,77.0
1111,1.4229876,-0.926651,0.104255676,-0.0541626,-0.06478272,0.29948732,77.0
1112,1.4229876,-0.926651,0.104255676,-0.10620117,0.09239502,0.4991455,77.0
1113,1.8703115,-0.73934937,-0.176754,-0.10620117,0.09239502,0.4991455,77.0
1114,1.8703115,-0.73934937,-0.176754,-0.10620117,0.09239502,0.4991455,77.0
1115,1.8296967,-0.42622375,-0.4261551,-0.10620117,0.09239502,0.4991455,77.0
1116,1.8296967,-0.42622375,-0.4261551,-0.1263794,0.23045655,0.6924316,77.0
1117,1.046411,-0.07141113,-0.34890747,-0.1263794,0.23045655,0.6924316,77.0
1118,1.046411,-0.07141113,-0.34890747,0.0031860352,0.21240234,0.9451904,77.0
1119,-0.5950489,0.39265442,-0.25416183,0.0031860352,0.21240234,0.9451904,77.0
1120,-0.5950489,0.39265442,-0.25416183,0.24957275,0.2793091,1.3062744,77.0
1121,-1.8765885,0.69281006,-0.39701843,0.24957275,0.2793091,1.3062744,77.0
1122,-1.8765885,0.69281006,-0.39701843,0.78164065,0.4354248,1.622754,77.0
1123,-1.3799695,0.5333557,-0.5064316,0.78164065,0.4354248,1.622754,77.0
1124,-1.3799695,0.5333557,-0.5064316,1.4379638,0.53737795,1.7140869,77.0
1125,0.59430325,0.17166138,-0.30156708,1.4379638,0.53737795,1.7140869,77.0
1126,0.59430325,0.17166138,-0.30156708,1.9307374,0.634021,1.7735596,77.0
1127,2.6517365,0.1341095,0.08060837,1.9307374,0.634021,1.7735596,77.0
1128,2.6517365,0.1341095,0.08060837,1.8054199,0.817749,1.7724975,77.0
1129,3.2368188,0.69384766,0.27592468,1.8054199,0.817749,1.7724975,77.0
1130,3.2368188,0.69384766,0.27592468,1.3317627,0.9281983,1.8532104,77.0
1131,1.4854755,1.6433487,0.10056305,1.3317627,0.9281983,1.8532104,77.0
1132,1.4854755,1.6433487,0.10056305,0.6754395,1.0513916,1.9795898,77.0
1133,-0.2714584,1.9881516,-0.13195038,0.6754395,1.0513916,1.9795898,77.0
1134,-0.2714584,1.9881516,-0.13195038,0.38551027,1.0641358,2.081543,77.0
1135,-4.571195,2.832016,-0.7800255,0.38551027,1.0641358,2.081543,77.0
1136,-4.571195,2.832016,-0.7800255,-0.08920898,1.0938721,2.3130615,77.0
1137,-4.915416,2.4543228,-0.84746933,-0.08920898,1.0938721,2.3130615,77.0
1138,-4.915416,2.4543228,-0.84746933,-0.1996582,1.0216553,2.3640382,77.0
1139,-5.47275,1.8247528,-1.1475067,-0.1996582,1.0216553,2.3640382,77.0
1140,-5.47275,1.8247528,-1.1475067,-0.39188233,0.9717407,2.4946656,77.0
1141,-4.820473,1.4370728,-1.1316528,-0.39188233,0.9717407,2.4946656,77.0
1142,-4.820473,1.4370728,-1.1316528,-0.2793091,0.8963379,2.4755495,77.0
1143,-3.915131,0.82186127,-1.3152618,-0.2793091,0.8963379,2.4755495,77.0
1144,-3.915131,0.82186127,-1.3152618,0.013806152,0.8315552,2.2153566,77.0
1145,-3.188184,0.7482376,-1.1895981,0.013806152,0.8315552,2.2153566,77.0
1146,-3.188184,0.7482376,-1.1895981,0.15080567,0.7848267,2.071985,77.0
1147,-2.0259988,0.5532303,-1.014801,0.15080567,0.7848267,2.071985,77.0
1148,-2.0259988,0.5532303,-1.014801,0.4895874,0.6711914,1.5239868,77.0
1149,-1.5794415,0.5199051,-0.748806,0.4895874,0.6711914,1.5239868,77.0
1150,-1.5794415,0.5199051,-0.748806,0.5851685,0.61065674,1.2945923,77.0
1151,-0.68319416,0.35868835,-0.36352158,0.5851685,0.61065674,1.2945923,77.0
1152,-0.68319416,0.35868835,-0.36352158,0.6701294,0.44816896,0.6223389,77.0
1153,-0.4003272,0.4303131,-0.25585556,0.6701294,0.44816896,0.6223389,77.0
1154,-0.4003272,0.4303131,-0.25585556,0.59047854,0.38338622,0.45454103,77.0
1155,-0.06862593,0.92033386,-0.32585144,0.59047854,0.38338622,0.45454103,77.0
1156,-0.06862593,0.92033386,-0.32585144,0.115759276,0.18054199,-0.11044922,77.0
1157,-0.03571129,0.8893814,-0.32577133,0.115759276,0.18054199,-0.11044922,77.0
1158,-0.03571129,0.8893814,-0.32577133,-0.0361084,0.124255374,-0.32709962,77.0
1159,0.28216076,0.6298523,-0.21325302,-0.0361084,0.124255374,-0.32709962,77.0
1160,0.28216076,0.6298523,-0.21325302,-0.20178223,-0.06159668,-0.91120607,77.0
1161,0.5045614,0.24617767,-0.0941391,-0.20178223,-0.06159668,-0.91120607,77.0
1162,0.5045614,0.24617767,-0.0941391,-0.23789063,-0.13699952,-1.0694458,77.0
1163,0.9556875,-0.2155838,0.08909607,-0.23789063,-0.13699952,-1.0694458,77.0
1164,0.9556875,-0.2155838,0.08909607,-0.270813,-0.29523927,-1.3232666,77.0
1165,1.3856194,-0.4685135,0.100559235,-0.270813,-0.29523927,-1.3232666,77.0
1166,1.3856194,-0.4685135,0.100559235,-0.32391357,-0.44073486,-1.5537232,77.0
1167,1.2530634,-0.5165558,0.010097504,-0.32391357,-0.44073486,-1.5537232,77.0
1168,1.2530634,-0.5165558,0.010097504,-0.47896728,-0.4800293,-1.6057618,77.0
1169,0.42565632,-0.41636658,-0.026039124,-0.47896728,-0.4800293,-1.6057618,77.0
1170,0.42565632,-0.41636658,-0.026039124,-0.7423462,-0.42799073,-1.5781494,77.0
1171,-0.067031145,-0.5113983,0.15698624,-0.7423462,-0.42799073,-1.5781494,77.0
1172,-0.067031145,-0.5113983,0.15698624,-0.90695804,-0.47578126,-1.713025,77.0
1173,0.4329474,-0.711998,0.19930649,-0.90695804,-0.47578126,-1.713025,77.0
1174,0.4329474,-0.711998,0.19930649,-0.8506714,-0.57242435,-1.7374512,77.0
1175,1.826143,-1.3051834,0.5440407,-0.8506714,-0.57242435,-1.7374512,77.0
1176,1.826143,-1.3051834,0.5440407,-0.6180908,-0.8219971,-2.0125122,77.0
1177,1.9816906,-1.4417801,0.5235481,-0.6180908,-0.8219971,-2.0125122,77.0
1178,1.9816906,-1.4417801,0.5235481,-0.54906005,-0.8878418,-2.071985,77.0
1179,1.5957285,-1.6795807,0.50061417,-0.54906005,-0.8878418,-2.071985,77.0
1180,1.5957285,-1.6795807,0.50061417,-0.45878908,-0.9451904,-2.1059692,77.0
1181,0.45089924,-1.4873505,0.46463776,-0.45878908,-0.9451904,-2.1059692,77.0
1182,0.45089924,-1.4873505,0.46463776,-0.49277344,-0.9388184,-1.989148,77.0
1183,-0.7257552,-0.9192352,0.40382767,-0.49277344,-0.9388184,-1.989148,77.0
1184,-0.7257552,-0.9192352,0.40382767,-0.66588134,-0.9260742,-1.8479004,77.0
1185,-1.4331799,-0.5565567,0.31404114,-0.66588134,-0.9260742,-1.8479004,77.0
1186,-1.4331799,-0.5565567,0.31404114,-0.6796875,-0.8612915,-1.7066529,77.0
1187,-1.275682,-0.6231537,0.30766678,-0.6796875,-0.8612915,-1.7066529,77.0
1188,-1.275682,-0.6231537,0.30766678,-0.35577393,-0.8421753,-1.6662964,77.0
1189,-0.34245706,-0.917923,0.399086,-0.35577393,-0.8421753,-1.6662964,77.0
1190,-0.34245706,-0.917923,0.399086,-0.090270996,-0.8878418,-1.5898316,77.0
1191,0.85448885,-1.2567444,0.5310211,-0.090270996,-0.8878418,-1.5898316,77.0
1192,0.85448885,-1.2567444,0.5310211,0.2347046,-0.87403566,-1.5080566,77.0
1193,1.8716769,-1.3342896,0.66114426,0.2347046,-0.87403566,-1.5080566,77.0
1194,1.8716769,-1.3342896,0.66114426,0.3706421,-0.79226077,-1.454956,77.0
1195,2.8041897,-1.0808716,0.9159889,0.3706421,-0.79226077,-1.454956,77.0
1196,2.8041897,-1.0808716,0.9159889,0.32816163,-0.62127686,-1.3083985,77.0
1197,2.6265426,-0.82549286,0.9284096,0.32816163,-0.62127686,-1.3083985,77.0
1198,2.6265426,-0.82549286,0.9284096,0.25700685,-0.5564942,-1.2351197,77.0
1199,2.2184582,-0.5859909,1.0726204,0.25700685,-0.5564942,-1.2351197,77.0
1200,2.2184582,-0.5859909,1.0726204,0.0,-0.47365722,-0.99298096,77.0
1201,1.328795,-0.34121704,1.072525,0.0,-0.47365722,-0.99298096,77.0
1202,1.328795,-0.34121704,1.072525,-0.18266602,-0.32922363,-0.7349121,77.0
1203,0.6246449,-0.12586975,0.8972893,-0.18266602,-0.32922363,-0.7349121,77.0
1204,0.6246449,-0.12586975,0.8972893,-0.28780517,-0.23364258,-0.44923097,77.0
1205,0.6246449,-0.12586975,0.8972893,-0.3791382,-0.1083252,-0.1985962,77.0
1206,0.6364957,-0.14157867,0.6562195,-0.3791382,-0.1083252,-0.1985962,77.0
1207,1.1303513,-0.49217224,0.4537964,-0.3791382,-0.1083252,-0.1985962,77.0
1208,1.1303513,-0.49217224,0.4537964,-0.29523927,-0.028674318,0.06584473,77.0
1209,1.4891322,-0.7610016,0.2004776,-0.29523927,-0.028674318,0.06584473,77.0
1210,1.4891322,-0.7610016,0.2004776,-0.26975098,0.09133301,0.2782471,77.0
1211,1.4415865,-0.6035385,-0.15880966,-0.26975098,0.09133301,0.2782471,77.0
1212,1.4415865,-0.6035385,-0.15880966,-0.40144044,0.24213867,0.5076416,77.0
1213,0.87531507,-0.22770691,-0.38705826,-0.40144044,0.24213867,0.5076416,77.0
1214,0.87531507,-0.22770691,-0.38705826,-0.20603028,0.26868898,0.7858887,77.0
1215,-0.27530956,0.053833008,-0.40353012,-0.20603028,0.26868898,0.7858887,77.0
1216,-0.27530956,0.053833008,-0.40353012,0.24957275,0.27612305,1.084314,77.0
1217,-1.1398277,0.018043518,-0.24530792,0.24957275,0.27612305,1.084314,77.0
1218,-1.1398277,0.018043518,-0.24530792,0.99935305,0.38232422,1.2977784,77.0
1219,-0.5270965,-0.26150513,0.07074356,0.99935305,0.38232422,1.2977784,77.0
1220,-0.5270965,-0.26150513,0.07074356,1.8606446,0.47684327,1.4220337,77.0
1221,-0.5270965,-0.26150513,0.07074356,1.8606446,0.47684327,1.4220337,77.0
1222,1.4668481,-0.3480606,0.33900452,1.8606446,0.47684327,1.4220337,77.0
1223,1.4668481,-0.3480606,0.33900452,2.0603027,0.70942384,1.5664673,77.0
1224,3.5698895,-0.12913513,0.26245117,2.0603027,0.70942384,1.5664673,77.0
1225,3.5698895,-0.12913513,0.26245117,1.8670167,0.99722904,1.4432739,77.0
1226,4.157926,0.3943634,-0.03685379,1.8670167,0.99722904,1.4432739,77.0
1227,4.157926,0.3943634,-0.03685379,1.350879,1.085376,1.5664673,77.0
1228,2.2884989,1.4169693,-0.3089981,1.350879,1.085376,1.5664673,77.0
1229,2.2884989,1.4169693,-0.3089981,0.60216063,1.1905152,1.8394043,77.0
1230,-1.3279412,2.5763016,-0.51693726,0.60216063,1.1905152,1.8394043,77.0
1231,-1.3279412,2.5763016,-0.51693726,-0.10938721,1.2786621,2.0518067,77.0
1232,-4.4447017,3.029358,-0.67124176,-0.10938721,1.2786621,2.0518067,77.0
1233,-4.4447017,3.029358,-0.67124176,-0.31860352,1.2298096,2.337488,77.0
1234,-5.684094,2.7000504,-0.8256531,-0.31860352,1.2298096,2.337488,77.0
1235,-5.684094,2.7000504,-0.8256531,-0.53100586,1.1204224,2.541394,77.0
1236,-5.4822116,2.0668335,-1.1026268,-0.53100586,1.1204224,2.541394,77.0
1237,-5.4822116,2.0668335,-1.1026268,-0.79013675,1.1289185,2.7803466,77.0
1238,-4.6836452,1.3757782,-1.3765602,-0.79013675,1.1289185,2.7803466,77.0
1239,-4.6836452,1.3757782,-1.3765602,-0.7051758,1.0705079,2.8663697,77.0
1240,-3.7333908,0.8839874,-1.5290565,-0.7051758,1.0705079,2.8663697,77.0
1241,-3.7333908,0.8839874,-1.5290565,-0.4885254,1.0120972,2.7113159,77.0
1242,-2.7427917,0.6325455,-1.4524422,-0.4885254,1.0120972,2.7113159,77.0
1243,-2.7427917,0.6325455,-1.4524422,-0.18691407,0.9632446,2.5913086,77.0
1244,-1.8176465,0.419693,-1.0773468,-0.18691407,0.9632446,2.5913086,77.0
1245,-1.8176465,0.419693,-1.0773468,0.4078125,0.70198977,2.2142944,77.0
1246,-1.1783605,0.3501587,-0.63757324,0.4078125,0.70198977,2.2142944,77.0
1247,-1.1783605,0.3501587,-0.63757324,0.65419924,0.55543214,1.7363892,77.0
1248,-0.8657353,0.5884552,-0.37870026,0.65419924,0.55543214,1.7363892,77.0
1249,-0.8657353,0.5884552,-0.37870026,0.6669434,0.5150757,1.2797241,77.0
1250,-0.8657353,0.5884552,-0.37870026,0.4439209,0.37701416,0.8262451,77.0
1251,-0.8455057,1.0931854,-0.33943176,0.4439209,0.37701416,0.8262451,77.0
1252,-0.81767654,1.9651337,-0.73178864,0.4439209,0.37701416,0.8262451,77.0
1253,-0.81767654,1.9651337,-0.73178864,0.07434082,0.23682861,0.31435546,77.0
1254,-0.81767654,1.9651337,-0.73178864,-0.14337158,0.1083252,-0.30267334,77.0
1255,-0.81767654,1.9651337,-0.73178864,-0.18266602,-0.014868164,-0.9494385,77.0
1256,-0.19820881,0.69330597,-0.31068802,-0.18266602,-0.014868164,-0.9494385,77.0
1257,-0.19820881,0.69330597,-0.31068802,-0.18266602,-0.18372802,-1.4050416,77.0
1258,0.26639652,-0.22875214,0.15073013,-0.18266602,-0.18372802,-1.4050416,77.0
1259,0.26639652,-0.22875214,0.15073013,-0.052038576,-0.38975832,-1.7034668,77.0
1260,0.5741892,-0.4362564,0.33546448,-0.052038576,-0.38975832,-1.7034668,77.0
1261,0.5741892,-0.4362564,0.33546448,-0.021240234,-0.5331299,-1.8893188,77.0
1262,0.43960047,-0.18624878,0.24711609,-0.021240234,-0.5331299,-1.8893188,77.0
1263,0.43960047,-0.18624878,0.24711609,-0.13381349,-0.59047854,-1.8744507,77.0
1264,0.010200977,0.084121704,0.11592865,-0.13381349,-0.59047854,-1.8744507,77.0
1265,0.010200977,0.084121704,0.11592865,-0.4630371,-0.50445557,-1.8309082,77.0
1266,0.29330492,-0.09889984,0.07501984,-0.4630371,-0.50445557,-1.8309082,77.0
1267,0.29330492,-0.09889984,0.07501984,-0.544812,-0.54375,-2.0231323,77.0
1268,1.5231447,-0.6704025,0.20527649,-0.544812,-0.54375,-2.0231323,77.0
1269,1.5231447,-0.6704025,0.20527649,-0.42692873,-0.7784546,-2.1590698,77.0
1270,2.6116188,-1.2887115,0.5174675,-0.42692873,-0.7784546,-2.1590698,77.0
1271,2.6116188,-1.2887115,0.5174675,-0.37807617,-0.9515625,-2.4256349,77.0
1272,2.6283696,-1.845604,0.87887955,-0.37807617,-0.9515625,-2.4256349,77.0
1273,2.6283696,-1.845604,0.87887955,-0.3154175,-1.1129884,-2.5530763,77.0
1274,1.679429,-2.0733643,1.0797997,-0.3154175,-1.1129884,-2.5530763,77.0
1275,1.679429,-2.0733643,1.0797997,-0.26762697,-1.1841431,-2.5636964,77.0
1276,0.4577279,-1.7139435,1.0466614,-0.26762697,-1.1841431,-2.5636964,77.0
1277,0.4577279,-1.7139435,1.0466614,-0.24851075,-1.1490967,-2.3353639,77.0
1278,-0.55867124,-1.1131134,0.8477783,-0.24851075,-1.1490967,-2.3353639,77.0
1279,-0.55867124,-1.1131134,0.8477783,-0.2516968,-1.0673218,-2.1335816,77.0
1280,-1.1142344,-0.77682495,0.66976166,-0.2516968,-1.0673218,-2.1335816,77.0
1281,-1.1142344,-0.77682495,0.66976166,-0.14230958,-1.0365235,-1.898877,77.0
1282,-0.7801571,-0.59830475,0.54774475,-0.14230958,-1.0365235,-1.898877,77.0
1283,-0.7801571,-0.59830475,0.54774475,0.022302246,-0.9802368,-1.808606,77.0
1284,0.22307897,-0.57595825,0.40476227,0.022302246,-0.9802368,-1.808606,77.0
1285,0.22307897,-0.57595825,0.40476227,0.12000733,-0.95793456,-1.7894897,77.0
1286,1.2308192,-0.75522614,0.3412056,0.12000733,-0.95793456,-1.7894897,77.0
1287,1.2308192,-0.75522614,0.3412056,0.18691407,-0.8931519,-1.5664673,77.0
1288,1.9807125,-0.9085007,0.48086166,0.18691407,-0.8931519,-1.5664673,77.0
1289,1.9807125,-0.9085007,0.48086166,0.09133301,-0.8007569,-1.355127,77.0
1290,2.3604856,-0.93116,0.7800369,0.09133301,-0.8007569,-1.355127,77.0
1291,2.3604856,-0.93116,0.7800369,-0.06265869,-0.6796875,-1.2446778,77.0
1292,2.2632542,-0.8201294,0.99882126,-0.06265869,-0.6796875,-1.2446778,77.0
1293,2.2632542,-0.8201294,0.99882126,-0.4248047,-0.5129517,-1.0375855,77.0
1294,1.8076127,-0.69916534,1.0175018,-0.4248047,-0.5129517,-1.0375855,77.0
1295,1.8076127,-0.69916534,1.0175018,-0.5256958,-0.40144044,-0.8485474,77.0
1296,1.2210169,-0.6144867,0.8806915,-0.5256958,-0.40144044,-0.8485474,77.0
1297,1.2210169,-0.6144867,0.8806915,-0.5607422,-0.3164795,-0.5628662,77.0
1298,0.94025344,-0.5557251,0.6409416,-0.5607422,-0.3164795,-0.5628662,77.0
1299,0.94025344,-0.5557251,0.6409416,-0.5671143,-0.2166504,-0.31435546,77.0
1300,1.1480157,-0.6481705,0.34623718,-0.5671143,-0.2166504,-0.31435546,77.0
1301,1.1480157,-0.6481705,0.34623718,-0.4428589,-0.121069334,-0.052038576,77.0
1302,1.5671675,-0.89572144,0.08469391,-0.4428589,-0.121069334,-0.052038576,77.0
1303,1.5671675,-0.89572144,0.08469391,-0.16142578,-0.050976563,0.1539917,77.0
1304,1.5671675,-0.89572144,0.08469391,-0.020178223,0.03079834,0.38338622,77.0
1305,1.8697618,-0.96160126,-0.092681885,-0.020178223,0.03079834,0.38338622,77.0
1306,1.8066127,-0.6445465,-0.16778564,-0.020178223,0.03079834,0.38338622,77.0
1307,1.8066127,-0.6445465,-0.16778564,0.010620117,0.16461182,0.6403931,77.0
1308,1.0263329,-0.1754303,-0.121204376,0.010620117,0.16461182,0.6403931,77.0
1309,1.0263329,-0.1754303,-0.121204376,0.15080567,0.17735596,0.9802368,77.0
1310,-0.49934387,0.32406616,-0.18251038,0.15080567,0.17735596,0.9802368,77.0
1311,-0.49934387,0.32406616,-0.18251038,0.41737062,0.21983643,1.3158325,77.0
1312,-1.7406495,0.6716995,-0.42800522,0.41737062,0.21983643,1.3158325,77.0
1313,-1.7406495,0.6716995,-0.42800522,0.9770508,0.39400634,1.5728394,77.0
1314,-1.4128199,0.630661,-0.49432373,0.9770508,0.39400634,1.5728394,77.0
1315,-1.4128199,0.630661,-0.49432373,1.6386842,0.4980835,1.7289551,77.0
1316,0.49960256,0.43247223,-0.22380447,1.6386842,0.4980835,1.7289551,77.0
1317,0.49960256,0.43247223,-0.22380447,1.9233032,0.7349121,1.8702027,77.0
1318,2.7328486,0.321373,0.1751442,1.9233032,0.7349121,1.8702027,77.0
1319,2.7328486,0.321373,0.1751442,1.8298463,0.9589966,1.8298463,77.0
1320,3.6408322,0.51634216,0.34745407,1.8298463,0.9589966,1.8298463,77.0
1321,3.6408322,0.51634216,0.34745407,1.2255615,1.0683838,1.803296,77.0
1322,2.2404003,1.1729889,0.12509537,1.2255615,1.0683838,1.803296,77.0
1323,2.2404003,1.1729889,0.12509537,0.6403931,1.0598878,1.8542725,77.0
1324,-0.8466325,2.1168137,-0.3815422,0.6403931,1.0598878,1.8542725,77.0
1325,-0.8466325,2.1168137,-0.3815422,-0.039294433,1.1512207,1.9233032,77.0
1326,-3.8796499,2.7935562,-0.828331,-0.039294433,1.1512207,1.9233032,77.0
1327,-3.8796499,2.7935562,-0.828331,-0.4609131,1.2181275,2.0656128,77.0
1328,-5.5560637,2.6435318,-0.9454918,-0.4609131,1.2181275,2.0656128,77.0
1329,-5.5560637,2.6435318,-0.9454918,-0.4609131,1.2181275,2.0656128,77.0
1330,-5.5560637,2.6435318,-0.9454918,-0.43117675,1.0397094,2.451123,77.0
1331,-5.656057,1.9419632,-1.0317001,-0.43117675,1.0397094,2.451123,77.0
1332,-5.656057,1.9419632,-1.0317001,-0.5479981,1.0163453,2.4957275,77.0
1333,-4.935026,1.3747635,-1.2732506,-0.5479981,1.0163453,2.4957275,77.0
1334,-4.935026,1.3747635,-1.2732506,-0.7317261,1.0503296,2.5615723,77.0
1335,-4.048937,1.016861,-1.4090157,-0.7317261,1.0503296,2.5615723,77.0
1336,-4.048937,1.016861,-1.4090157,-0.5968506,0.94731444,2.5870607,77.0
1337,-2.993153,0.6016693,-1.3103447,-0.5968506,0.94731444,2.5870607,77.0
1338,-2.993153,0.6016693,-1.3103447,-0.26656494,0.86341554,2.241907,77.0
1339,-1.7412386,0.19110107,-0.98612976,-0.26656494,0.86341554,2.241907,77.0
1340,-1.7412386,0.19110107,-0.98612976,0.39082032,0.6074707,1.9286133,77.0
1341,-0.6395731,0.051757812,-0.60302734,0.39082032,0.6074707,1.9286133,77.0
1342,-0.6395731,0.051757812,-0.60302734,0.635083,0.49383545,1.4294678,77.0
1343,-0.014173269,0.27314758,-0.39473724,0.635083,0.49383545,1.4294678,77.0
1344,-0.014173269,0.27314758,-0.39473724,0.5734863,0.4258667,0.9834229,77.0
1345,-0.026524067,0.78725433,-0.4629097,0.5734863,0.4258667,0.9834229,77.0
1346,-0.026524067,0.78725433,-0.4629097,0.21558838,0.3695801,0.5161377,77.0
1347,-0.4710605,1.3212585,-0.6302643,0.21558838,0.3695801,0.5161377,77.0
1348,-0.4710605,1.3212585,-0.6302643,-0.14018555,0.2984253,0.07752686,77.0
1349,-0.566802,1.3854523,-0.6511078,-0.14018555,0.2984253,0.07752686,77.0
1350,-0.566802,1.3854523,-0.6511078,-0.42692873,0.16142578,-0.45666504,77.0
1351,-0.009105682,0.8706665,-0.48210526,-0.42692873,0.16142578,-0.45666504,77.0
1352,-0.009105682,0.8706665,-0.48210526,-0.6425171,0.03079834,-0.97386473,77.0
1353,0.5949981,0.13619232,-0.1976738,-0.6425171,0.03079834,-0.97386473,77.0
1354,0.5949981,0.13619232,-0.1976738,-0.72323,-0.083898924,-1.3434448,77.0
1355,0.85333014,-0.39269257,0.023891449,-0.72323,-0.083898924,-1.3434448,77.0
1356,0.85333014,-0.39269257,0.023891449,-0.6605713,-0.24001466,-1.5547851,77.0
1357,0.7574322,-0.64775085,0.010654449,-0.6605713,-0.24001466,-1.5547851,77.0
1358,0.7574322,-0.64775085,0.010654449,-0.63614506,-0.27718505,-1.721521,77.0
1359,0.12290144,-0.67189026,-0.11853027,-0.63614506,-0.27718505,-1.721521,77.0
1360,0.12290144,-0.67189026,-0.11853027,-0.61065674,-0.29948732,-1.7002808,77.0
1361,-0.523273,-0.6287842,-0.16591644,-0.61065674,-0.29948732,-1.7002808,77.0
1362,-0.523273,-0.6287842,-0.16591644,-0.59260255,-0.35683593,-1.7788696,77.0
1363,-0.11588383,-0.7747803,-0.05113983,-0.59260255,-0.35683593,-1.7788696,77.0
1364,-0.11588383,-0.7747803,-0.05113983,-0.45029297,-0.4248047,-1.8914429,77.0
1365,1.1456475,-1.1451645,0.26134872,-0.45029297,-0.4248047,-1.8914429,77.0
1366,1.1456475,-1.1451645,0.26134872,-0.1720459,-0.61702883,-2.1526978,77.0
1367,2.1075337,-1.5843201,0.6242523,-0.1720459,-0.61702883,-2.1526978,77.0
1368,2.1075337,-1.5843201,0.6242523,-0.010620117,-0.7848267,-2.4351928,77.0
1369,2.1433635,-1.9059601,0.8436737,-0.010620117,-0.7848267,-2.4351928,77.0
1370,2.1433635,-1.9059601,0.8436737,0.10407715,-0.8782837,-2.5923707,77.0
1371,1.3461484,-1.9238663,0.8995018,0.10407715,-0.8782837,-2.5923707,77.0
1372,1.3461484,-1.9238663,0.8995018,0.093457036,-0.90908206,-2.541394,77.0
1373,0.26767802,-1.4872894,0.8280487,0.093457036,-0.90908206,-2.541394,77.0
1374,0.26767802,-1.4872894,0.8280487,-0.06796875,-0.85385746,-2.3651001,77.0
1375,-0.61550856,-0.876915,0.65211105,-0.06796875,-0.85385746,-2.3651001,77.0
1376,-0.61550856,-0.876915,0.65211105,-0.14868164,-0.8028809,-2.1303957,77.0
1377,-1.0089474,-0.531723,0.4946251,-0.14868164,-0.8028809,-2.1303957,77.0
1378,-1.0089474,-0.531723,0.4946251,0.07327881,-0.85491943,-1.9434814,77.0
1379,-0.6141648,-0.36608887,0.44762802,0.07327881,-0.85491943,-1.9434814,77.0
1380,-0.6141648,-0.36608887,0.44762802,0.04460449,-0.7423462,-1.8532104,77.0
1381,0.47024035,-0.37890625,0.52789307,0.04460449,-0.7423462,-1.8532104,77.0
1382,0.47024035,-0.37890625,0.52789307,-0.012744141,-0.6903076,-1.6163819,77.0
1383,1.6627035,-0.6292114,0.5867691,-0.012744141,-0.6903076,-1.6163819,77.0
1384,1.6627035,-0.6292114,0.5867691,-0.053100586,-0.6690674,-1.4358399,77.0
1385,2.4958,-0.82927704,0.5779114,-0.053100586,-0.6690674,-1.4358399,77.0
1386,2.4958,-0.82927704,0.5779114,-0.29417726,-0.5533081,-1.2797241,77.0
1387,2.7440276,-0.9287033,0.6751938,-0.29417726,-0.5533081,-1.2797241,77.0
1388,2.7440276,-0.9287033,0.6751938,-0.56817627,-0.42905274,-1.1013062,77.0
1389,2.354109,-0.8977661,0.887516,-0.56817627,-0.42905274,-1.1013062,77.0
1390,2.354109,-0.8977661,0.887516,-0.90802,-0.28568116,-0.8772217,77.0
1391,1.4773058,-0.74770355,0.9567528,-0.90802,-0.28568116,-0.8772217,77.0
1392,1.4773058,-0.74770355,0.9567528,-1.089624,-0.2347046,-0.6074707,77.0
1393,0.6298671,-0.7586975,0.7645111,-1.089624,-0.2347046,-0.6074707,77.0
1394,0.6298671,-0.7586975,0.7645111,-0.8262451,-0.23364258,-0.33878174,77.0
1395,0.458337,-0.97613525,0.51869965,-0.8262451,-0.23364258,-0.33878174,77.0
1396,0.458337,-0.97613525,0.51869965,-0.38232422,-0.2262085,-0.08496094,77.0
1397,0.458337,-0.97613525,0.51869965,-0.053100586,-0.13381349,0.14868164,77.0
1398,1.0327829,-1.079216,0.35751343,-0.053100586,-0.13381349,0.14868164,77.0
1399,2.5137262,-0.4965973,-0.08907318,-0.053100586,-0.13381349,0.14868164,77.0
1400,2.5137262,-0.4965973,-0.08907318,0.13168946,-0.029736329,0.33134767,77.0
1401,2.5137262,-0.4965973,-0.08907318,0.09770508,0.14018555,0.5150757,77.0
1402,2.5137262,-0.4965973,-0.08907318,0.04248047,0.22514649,0.76358646,77.0
1403,0.9303293,0.07081604,-0.090839386,0.04248047,0.22514649,0.76358646,77.0
1404,0.9303293,0.07081604,-0.090839386,0.08814698,0.19753419,1.0726318,77.0
1405,-0.9862175,0.5329132,-0.2556305,0.08814698,0.19753419,1.0726318,77.0
1406,-0.9862175,0.5329132,-0.2556305,0.3812622,0.38338622,1.3402588,77.0
1407,-1.5663788,0.55675507,-0.48812485,0.3812622,0.38338622,1.3402588,77.0
1408,-1.5663788,0.55675507,-0.48812485,1.0280274,0.4715332,1.5250489,77.0
1409,-0.21877694,0.17107391,-0.44843674,1.0280274,0.4715332,1.5250489,77.0
1410,-0.21877694,0.17107391,-0.44843674,1.7512573,0.5129517,1.6248779,77.0
1411,1.8919828,-0.07796478,-0.1476059,1.7512573,0.5129517,1.6248779,77.0
1412,1.8919828,-0.07796478,-0.1476059,1.9466676,0.6085327,1.716211,77.0
1413,3.2654538,0.1691742,0.12500381,1.9466676,0.6085327,1.716211,77.0
1414,3.2654538,0.1691742,0.12500381,1.4793824,0.8251831,1.6684204,77.0
1415,2.7244115,0.84498596,0.16109848,1.4793824,0.8251831,1.6684204,77.0
1416,2.7244115,0.84498596,0.16109848,1.0237793,0.9133301,1.7416992,77.0
1417,0.24403095,1.6635513,-0.062469482,1.0237793,0.9133301,1.7416992,77.0
1418,0.24403095,1.6635513,-0.062469482,0.49064943,0.97492677,1.81604,77.0
1419,-2.6435328,2.2758484,-0.4080429,0.49064943,0.97492677,1.81604,77.0
1420,-2.6435328,2.2758484,-0.4080429,0.04885254,1.0673218,1.9073731,77.0
1421,-4.4306955,2.3506622,-0.63313675,0.04885254,1.0673218,1.9073731,77.0
1422,-4.4306955,2.3506622,-0.63313675,0.03717041,0.92926025,2.1325195,77.0
1423,-4.8592296,2.0040665,-0.8574486,0.03717041,0.92926025,2.1325195,77.0
1424,-4.8592296,2.0040665,-0.8574486,-0.1709839,0.93350834,2.265271,77.0
1425,-4.8592296,2.0040665,-0.8574486,-0.1709839,0.93350834,2.265271,77.0
1426,-4.5284233,1.6388397,-1.1328812,-0.1709839,0.93350834,2.265271,77.0
1427,-4.5284233,1.6388397,-1.1328812,-0.5214478,0.998291,2.3640382,77.0
1428,-3.9120212,1.2409897,-1.2912788,-0.5214478,0.998291,2.3640382,77.0
1429,-3.9120212,1.2409897,-1.2912788,-0.6265869,0.9398804,2.4097047,77.0
1430,-3.1625392,0.7846222,-1.2792015,-0.6265869,0.9398804,2.4097047,77.0
1431,-3.1625392,0.7846222,-1.2792015,-0.3334717,0.79119873,2.2408447,77.0
1432,-2.3050437,0.45018768,-1.1171265,-0.3334717,0.79119873,2.2408447,77.0
1433,-2.3050437,0.45018768,-1.1171265,0.06584473,0.632959,2.0273805,77.0
1434,-1.3619914,0.28050995,-0.8136978,0.06584473,0.632959,2.0273805,77.0
1435,-1.3619914,0.28050995,-0.8136978,0.32603762,0.5543701,1.6418701,77.0
1436,-0.5824399,0.27059937,-0.48595428,0.32603762,0.5543701,1.6418701,77.0
1437,-0.5824399,0.27059937,-0.48595428,0.44073486,0.4354248,1.2383057,77.0
1438,-0.2445898,0.52178955,-0.32987976,0.44073486,0.4354248,1.2383057,77.0
1439,-0.2445898,0.52178955,-0.32987976,0.2782471,0.35046387,0.8612915,77.0
1440,-0.33479548,0.99007416,-0.39128113,0.2782471,0.35046387,0.8612915,77.0
1441,-0.33479548,0.99007416,-0.39128113,-0.033984374,0.32178956,0.44816896,77.0
1442,-0.45715523,1.3558044,-0.4772339,-0.033984374,0.32178956,0.44816896,77.0
1443,-0.45715523,1.3558044,-0.4772339,-0.21452637,0.17523193,-0.059472658,77.0
1444,-0.13297272,1.2909546,-0.43937683,-0.21452637,0.17523193,-0.059472658,77.0
1445,-0.13297272,1.2909546,-0.43937683,-0.34727785,0.027612304,-0.6860596,77.0
1446,0.5537658,0.69368744,-0.2821312,-0.34727785,0.027612304,-0.6860596,77.0
1447,0.5537658,0.69368744,-0.2821312,-0.5479981,-0.09770508,-1.176709,77.0
1448,1.0441234,-0.09278107,-0.052425385,-0.5479981,-0.09770508,-1.176709,77.0
1449,1.0441234,-0.09278107,-0.052425385,-0.635083,-0.21558838,-1.4910644,77.0
1450,1.2333946,-0.5850296,0.07542801,-0.635083,-0.21558838,-1.4910644,77.0
1451,1.2333946,-0.5850296,0.07542801,-0.6064087,-0.3802002,-1.7353271,77.0
1452,1.0990081,-0.72262573,0.0056419373,-0.6064087,-0.3802002,-1.7353271,77.0
1453,1.0990081,-0.72262573,0.0056419373,-0.6180908,-0.44604492,-1.8532104,77.0
1454,0.34075427,-0.68782806,-0.07273483,-0.6180908,-0.44604492,-1.8532104,77.0
1455,0.34075427,-0.68782806,-0.07273483,-0.5649902,-0.5097656,-1.8500245,77.0
1456,-0.30768228,-0.703804,-0.0054893494,-0.5649902,-0.5097656,-1.8500245,77.0
1457,-0.30768228,-0.703804,-0.0054893494,-0.41737062,-0.5766724,-1.8383423,77.0
1458,0.20287776,-0.9128723,0.21855927,-0.41737062,-0.5766724,-1.8383423,77.0
1459,0.20287776,-0.9128723,0.21855927,-0.12956543,-0.68924564,-1.896753,77.0
1460,1.5334203,-1.2178955,0.5608101,-0.12956543,-0.68924564,-1.896753,77.0
1461,1.5334203,-1.2178955,0.5608101,0.20072022,-0.86766356,-2.076233,77.0
1462,2.5072296,-1.530838,0.86416245,0.20072022,-0.86766356,-2.076233,77.0
1463,2.5072296,-1.530838,0.86416245,0.3971924,-0.97386473,-2.2482789,77.0
1464,2.3779516,-1.7654648,1.0475311,0.3971924,-0.97386473,-2.2482789,77.0
1465,2.3779516,-1.7654648,1.0475311,0.5894165,-1.0620117,-2.2514648,77.0
1466,1.2191583,-1.5534744,1.1285133,0.5894165,-1.0620117,-2.2514648,77.0
1467,1.2191583,-1.5534744,1.1285133,0.31435546,-1.089624,-2.1495118,77.0
1468,-0.25444627,-0.96266174,0.9886513,0.31435546,-1.089624,-2.1495118,77.0
1469,-0.25444627,-0.96266174,0.9886513,-0.010620117,-0.98873293,-1.8500245,77.0
1470,-1.3306566,-0.5352402,0.8090477,-0.010620117,-0.98873293,-1.8500245,77.0
1471,-1.3306566,-0.5352402,0.8090477,0.14974366,-1.0705079,-1.6917847,77.0
1472,-1.4430532,-0.12511444,0.72322845,0.14974366,-1.0705079,-1.6917847,77.0
1473,-1.4430532,-0.12511444,0.72322845,-0.12319336,-0.8973999,-1.7289551,77.0
1474,-0.5874505,0.090774536,0.48685837,-0.12319336,-0.8973999,-1.7289551,77.0
1475,-0.5874505,0.090774536,0.48685837,-0.2782471,-0.8527954,-1.539917,77.0
1476,0.49346733,-0.21704102,0.20173264,-0.2782471,-0.8527954,-1.539917,77.0
1477,0.49346733,-0.21704102,0.20173264,-0.22939454,-0.8092529,-1.447522,77.0
1478,1.374437,-0.6795502,0.14735031,-0.22939454,-0.8092529,-1.447522,77.0
1479,1.374437,-0.6795502,0.14735031,-0.25913087,-0.7168579,-1.3232666,77.0
1480,2.0089123,-1.0513306,0.40447617,-0.25913087,-0.7168579,-1.3232666,77.0
1481,2.0089123,-1.0513306,0.40447617,-0.28461915,-0.632959,-1.2552979,77.0
1482,2.2856455,-1.2247467,0.8415108,-0.28461915,-0.632959,-1.2552979,77.0
1483,2.2856455,-1.2247467,0.8415108,-0.42268068,-0.48427734,-1.1034302,77.0
1484,2.1953988,-1.1175385,1.0923347,-0.42268068,-0.48427734,-1.1034302,77.0
1485,2.1953988,-1.1175385,1.0923347,-0.56817627,-0.41843262,-0.96218264,77.0
1486,1.6840656,-0.8522644,0.9183502,-0.56817627,-0.41843262,-0.96218264,77.0
1487,1.6840656,-0.8522644,0.9183502,-0.69136965,-0.3451538,-0.75509036,77.0
1488,1.0223258,-0.7375107,0.57567215,-0.69136965,-0.3451538,-0.75509036,77.0
1489,1.0223258,-0.7375107,0.57567215,-0.49171144,-0.31010744,-0.5033936,77.0
1490,0.81679857,-0.823967,0.41930008,-0.49171144,-0.31010744,-0.5033936,77.0
1491,0.81679857,-0.823967,0.41930008,-0.118945315,-0.2623169,-0.23364258,77.0
1492,0.81679857,-0.823967,0.41930008,0.08283692,-0.15186767,0.0637207,77.0
1493,1.271847,-0.9162369,0.4285164,0.08283692,-0.15186767,0.0637207,77.0
1494,1.9257295,-0.87068176,0.4037361,0.08283692,-0.15186767,0.0637207,77.0
1495,1.9257295,-0.87068176,0.4037361,0.28568116,-0.03717041,0.3355957,77.0
1496,2.26042,-0.57575226,0.28403473,0.28568116,-0.03717041,0.3355957,77.0
1497,2.26042,-0.57575226,0.28403473,0.33665773,0.14868164,0.61278075,77.0
1498,1.8575428,-0.085754395,0.19949341,0.33665773,0.14868164,0.61278075,77.0
1499,1.8575428,-0.085754395,0.19949341,0.29417726,0.28461915,0.9366943,77.0
1500,0.38406897,0.43911743,0.09318924,0.29417726,0.28461915,0.9366943,77.0
1501,0.38406897,0.43911743,0.09318924,0.3164795,0.39082032,1.2807862,77.0
1502,-1.2603106,0.77365875,-0.22607422,0.3164795,0.39082032,1.2807862,77.0
1503,-1.2603106,0.77365875,-0.22607422,0.5331299,0.6488892,1.5717773,77.0
1504,-1.4889247,0.7123337,-0.5237694,0.5331299,0.6488892,1.5717773,77.0
1505,-1.4889247,0.7123337,-0.5237694,1.0577637,0.80606693,1.720459,77.0
1506,-0.0131857395,0.45778656,-0.52920914,1.0577637,0.80606693,1.720459,77.0
1507,-0.0131857395,0.45778656,-0.52920914,1.354065,0.9218262,1.8861328,77.0
1508,2.000206,0.2266922,-0.3407631,1.354065,0.9218262,1.8861328,77.0
1509,2.000206,0.2266922,-0.3407631,1.3094605,1.1214844,1.7905518,77.0
1510,3.040607,0.23186493,-0.15756989,1.3094605,1.1214844,1.7905518,77.0
1511,3.040607,0.23186493,-0.15756989,0.92501223,1.174585,1.7278931,77.0
1512,2.034927,0.6921692,-0.14886093,0.92501223,1.174585,1.7278931,77.0
1513,2.034927,0.6921692,-0.14886093,0.51826173,1.1522827,1.8468384,77.0
1514,-0.6911626,1.4894562,-0.36367035,0.51826173,1.1522827,1.8468384,77.0
1515,-0.6911626,1.4894562,-0.36367035,0.007434082,1.2276856,1.896753,77.0
1516,-3.5742924,2.1890335,-0.6405182,0.007434082,1.2276856,1.896753,77.0
1517,-3.5742924,2.1890335,-0.6405182,-0.32285157,1.2595459,2.0411866,77.0
1518,-5.218406,2.347969,-0.81198883,-0.32285157,1.2595459,2.0411866,77.0
1519,-5.218406,2.347969,-0.81198883,-0.23682861,1.1267945,2.4086425,77.0
1520,-5.390033,2.0558014,-1.0262413,-0.23682861,1.1267945,2.4086425,77.0
1521,-5.390033,2.0558014,-1.0262413,-0.38444826,1.1427246,2.5424562,77.0
1522,-4.806594,1.6419525,-1.3181992,-0.38444826,1.1427246,2.5424562,77.0
1523,-4.806594,1.6419525,-1.3181992,-0.56817627,1.1384766,2.6794555,77.0
1524,-3.943896,1.149826,-1.4486656,-0.56817627,1.1384766,2.6794555,77.0
1525,-3.943896,1.149826,-1.4486656,-0.42268068,0.996167,2.6412232,77.0
1526,-2.9159079,0.7014618,-1.3746529,-0.42268068,0.996167,2.6412232,77.0
1527,-2.9159079,0.7014618,-1.3746529,-0.42268068,0.996167,2.6412232,76.0
1528,-2.9159079,0.7014618,-1.3746529,-0.1529297,0.8889038,2.445813,76.0
1529,-1.9184685,0.47192383,-1.1219368,-0.1529297,0.8889038,2.445813,76.0
1530,-1.9184685,0.47192383,-1.1219368,0.13699952,0.73703617,2.1845582,76.0
1531,-1.1842499,0.43735504,-0.80701065,0.13699952,0.73703617,2.1845582,76.0
1532,-1.1842499,0.43735504,-0.80701065,0.24107666,0.6595093,1.7756836,76.0
1533,-0.86461186,0.68733215,-0.5963173,0.24107666,0.6595093,1.7756836,76.0
1534,-0.86461186,0.68733215,-0.5963173,0.18054199,0.5246338,1.3052124,76.0
1535,-1.0350244,1.1970215,-0.64032364,0.18054199,0.5246338,1.3052124,76.0
1536,-1.0350244,1.1970215,-0.64032364,-0.14337158,0.43861085,0.7858887,76.0
1537,-1.0350244,1.1970215,-0.64032364,-0.48427734,0.3175415,0.18372802,76.0
1538,-1.3296185,1.6029663,-0.83187485,-0.48427734,0.3175415,0.18372802,76.0
1539,0.48836803,-0.066345215,-0.4916954,-0.48427734,0.3175415,0.18372802,76.0
1540,0.48836803,-0.066345215,-0.4916954,-0.6573853,0.17841797,-0.4715332,76.0
1541,0.48836803,-0.066345215,-0.4916954,-0.79119873,0.06690674,-1.0428956,76.0
1542,0.48836803,-0.066345215,-0.4916954,-0.7391602,-0.078588866,-1.536731,76.0
1543,1.0447717,-0.7422714,-0.11124039,-0.7391602,-0.078588866,-1.536731,76.0
1544,1.0447717,-0.7422714,-0.11124039,-0.5161377,-0.24107666,-1.7788696,76.0
1545,1.1568379,-0.8414154,-0.008548737,-0.5161377,-0.24107666,-1.7788696,76.0
1546,1.1568379,-0.8414154,-0.008548737,-0.26656494,-0.3812622,-2.0125122,76.0
1547,0.9173038,-0.7238922,-0.123062134,-0.26656494,-0.3812622,-2.0125122,76.0
1548,0.9173038,-0.7238922,-0.123062134,-0.09664307,-0.5065796,-2.0560548,76.0
1549,0.25714636,-0.51226044,-0.19419098,-0.09664307,-0.5065796,-2.0560548,76.0
1550,0.25714636,-0.51226044,-0.19419098,0.045666505,-0.59897465,-2.079419,76.0
1551,0.12047529,-0.48031616,-0.068035126,0.045666505,-0.59897465,-2.079419,76.0
1552,0.12047529,-0.48031616,-0.068035126,0.18054199,-0.6435791,-2.1293335,76.0
1553,1.0413997,-0.7574463,0.30984116,0.18054199,-0.6435791,-2.1293335,76.0
1554,1.0413997,-0.7574463,0.30984116,0.2166504,-0.7349121,-2.084729,76.0
1555,2.1575215,-1.2423477,0.8410835,0.2166504,-0.7349121,-2.084729,76.0
1556,2.1575215,-1.2423477,0.8410835,0.30161133,-0.95793456,-2.3895264,76.0
1557,2.534037,-1.6446075,1.2395287,0.30161133,-0.95793456,-2.3895264,76.0
1558,2.534037,-1.6446075,1.2395287,0.33134767,-1.083252,-2.5084717,76.0
1559,2.000411,-1.7113037,1.3107758,0.33134767,-1.083252,-2.5084717,76.0
1560,2.000411,-1.7113037,1.3107758,0.26337892,-1.1119263,-2.4744873,76.0
1561,0.8800651,-1.3190689,1.1062737,0.26337892,-1.1119263,-2.4744873,76.0
1562,0.8800651,-1.3190689,1.1062737,-0.06690674,-1.075818,-2.256775,76.0
1563,-0.38376534,-0.78765106,0.7718811,-0.06690674,-1.075818,-2.256775,76.0
1564,-0.38376534,-0.78765106,0.7718811,-0.2548828,-0.9568726,-2.095349,76.0
1565,-1.2727472,-0.49221802,0.596508,-0.2548828,-0.9568726,-2.095349,76.0
1566,-1.2727472,-0.49221802,0.596508,-0.05522461,-0.9526245,-1.8202881,76.0
1567,-1.2060761,-0.2950821,0.56591415,-0.05522461,-0.9526245,-1.8202881,76.0
1568,-1.2060761,-0.2950821,0.56591415,-0.25806886,-0.7986328,-1.6970948,76.0
1569,-0.29822278,-0.3099289,0.4331131,-0.25806886,-0.7986328,-1.6970948,76.0
1570,-0.29822278,-0.3099289,0.4331131,-0.11257324,-0.8315552,-1.5186768,76.0
1571,0.75558686,-0.54798126,0.21052933,-0.11257324,-0.8315552,-1.5186768,76.0
1572,0.75558686,-0.54798126,0.21052933,-0.06584473,-0.76677245,-1.3360108,76.0
1573,1.6957903,-0.79802704,0.22375488,-0.06584473,-0.76677245,-1.3360108,76.0
1574,1.6957903,-0.79802704,0.22375488,-0.121069334,-0.63826907,-1.1937011,76.0
1575,2.3877113,-1.0520554,0.629467,-0.121069334,-0.63826907,-1.1937011,76.0
