,accx,accy,accz,gyrox,gyroy,gyroz,heart rate
0,walk,walk,walk,walk,walk,walk,walk
1,-4.044763,-58.690456,46.547745,0.0,0.0,0.0,0.0
2,-4.044763,-58.690456,46.547745,0.06584473,-0.019116212,-0.06159668,0.0
3,-4.044763,-58.690456,46.547745,0.06584473,-0.019116212,-0.06159668,77.0
4,-3.20771,-46.94786,37.234093,0.06584473,-0.019116212,-0.06159668,77.0
5,-3.20771,-46.94786,37.234093,0.06584473,0.0,-0.033984374,77.0
6,-2.562103,-37.534622,29.77945,0.06584473,0.0,-0.033984374,77.0
7,-2.562103,-37.534622,29.77945,0.078588866,-0.010620117,-0.0021240234,77.0
8,-2.0977902,-30.015675,23.789845,0.078588866,-0.010620117,-0.0021240234,77.0
9,-2.0977902,-30.015675,23.789845,0.10089111,-0.028674318,0.021240234,77.0
10,-1.7352147,-23.93113,19.017094,0.10089111,-0.028674318,0.021240234,77.0
11,-1.7352147,-23.93113,19.017094,0.10407715,-0.050976563,0.04141846,77.0
12,-1.3880496,-19.005203,15.244671,0.10407715,-0.050976563,0.04141846,77.0
13,-1.3880496,-19.005203,15.244671,0.11257324,-0.07540283,0.0361084,77.0
14,-1.0295925,-15.090908,12.284214,0.11257324,-0.07540283,0.0361084,77.0
15,-1.0295925,-15.090908,12.284214,0.10938721,-0.06690674,0.043542482,77.0
16,-0.7335129,-11.9891815,9.922882,0.10938721,-0.06690674,0.043542482,77.0
17,-0.7335129,-11.9891815,9.922882,0.08920898,-0.050976563,0.03717041,77.0
18,-0.57044077,-9.503529,7.9869385,0.08920898,-0.050976563,0.03717041,77.0
19,-0.57044077,-9.503529,7.9869385,0.06478272,-0.053100586,0.033984374,77.0
20,-0.4919238,-7.552994,6.390991,0.06478272,-0.053100586,0.033984374,77.0
21,-0.4919238,-7.552994,6.390991,0.04460449,-0.06265869,0.04141846,77.0
22,-0.40547752,-6.0697784,5.0833244,0.04460449,-0.06265869,0.04141846,77.0
23,-0.40547752,-6.0697784,5.0833244,0.047790527,-0.070092775,0.05522461,77.0
24,-0.2953539,-4.9072723,4.0408287,0.047790527,-0.070092775,0.05522461,77.0
25,-0.2953539,-4.9072723,4.0408287,0.03717041,-0.06690674,0.07540283,77.0
26,-0.1966958,-3.938614,3.2147064,0.03717041,-0.06690674,0.07540283,77.0
27,-0.1966958,-3.938614,3.2147064,0.046728518,-0.06478272,0.08283692,77.0
28,-0.1268878,-3.1497955,2.6006355,0.046728518,-0.06478272,0.08283692,77.0
29,-0.1268878,-3.1497955,2.6006355,0.0637207,-0.052038576,0.093457036,77.0
30,-0.09931278,-2.498581,2.1136513,0.0637207,-0.052038576,0.093457036,77.0
31,-0.09931278,-2.498581,2.1136513,0.070092775,-0.04885254,0.10301514,77.0
32,-0.10360813,-1.927269,1.6896744,0.070092775,-0.04885254,0.10301514,77.0
33,-0.10360813,-1.927269,1.6896744,0.07327881,-0.05628662,0.10407715,77.0
34,-0.08680487,-1.4220657,1.3192215,0.07327881,-0.05628662,0.10407715,77.0
35,-0.08680487,-1.4220657,1.3192215,0.057348635,-0.057348635,0.08814698,77.0
36,-0.042710304,-1.0290375,1.0333939,0.057348635,-0.057348635,0.08814698,77.0
37,-0.042710304,-1.0290375,1.0333939,0.027612304,-0.04991455,0.070092775,77.0
38,0.0063467026,-0.8362808,0.8500557,0.027612304,-0.04991455,0.070092775,77.0
39,0.0063467026,-0.8362808,0.8500557,0.013806152,-0.035046387,0.06159668,77.0
40,0.013317108,-0.72364044,0.69608307,0.013806152,-0.035046387,0.06159668,77.0
41,0.013317108,-0.72364044,0.69608307,0.0180542,-0.026550293,0.058410645,77.0
42,-0.019265652,-0.77230835,0.5309906,0.0180542,-0.026550293,0.058410645,77.0
43,-0.019265652,-0.77230835,0.5309906,0.012744141,-0.008496094,0.0637207,77.0
44,-0.03758049,-0.6313095,0.39503098,0.012744141,-0.008496094,0.0637207,77.0
45,-0.03758049,-0.6313095,0.39503098,0.011682129,-0.009558106,0.060534667,77.0
46,-0.049290657,-0.442276,0.23600769,0.011682129,-0.009558106,0.060534667,77.0
47,-0.049290657,-0.442276,0.23600769,0.009558106,-0.022302246,0.046728518,77.0
48,-0.026920319,-0.3354721,0.18951416,0.009558106,-0.022302246,0.046728518,77.0
49,-0.026920319,-0.3354721,0.18951416,0.016992187,-0.02442627,0.040356446,77.0
50,0.06775808,-0.29943085,0.26351166,0.016992187,-0.02442627,0.040356446,77.0
51,0.06775808,-0.29943085,0.26351166,0.016992187,-0.020178223,0.040356446,77.0
52,0.0921092,-0.24912262,0.25352097,0.016992187,-0.020178223,0.040356446,77.0
53,0.0921092,-0.24912262,0.25352097,0.009558106,-0.014868164,0.040356446,77.0
54,0.098248005,-0.1643982,0.21853638,0.009558106,-0.014868164,0.040356446,77.0
55,0.098248005,-0.1643982,0.21853638,-0.0010620117,-0.0021240234,0.04248047,77.0
56,0.061142445,-0.10947418,0.1365242,-0.0010620117,-0.0021240234,0.04248047,77.0
57,0.061142445,-0.10947418,0.1365242,-0.011682129,-0.004248047,0.039294433,77.0
58,0.020337582,-0.061553955,0.0096206665,-0.011682129,-0.004248047,0.039294433,77.0
59,0.020337582,-0.061553955,0.0096206665,-0.015930176,-0.007434082,0.028674318,77.0
60,0.022422314,-0.07672882,0.007698059,-0.015930176,-0.007434082,0.028674318,77.0
61,0.022422314,-0.07672882,0.007698059,-0.010620117,-0.010620117,0.02442627,77.0
62,0.04100895,-0.1309967,0.055755615,-0.010620117,-0.010620117,0.02442627,77.0
63,0.04100895,-0.1309967,0.055755615,-0.0053100586,-0.013806152,0.02442627,77.0
64,0.042353153,-0.13248444,0.07142258,-0.0053100586,-0.013806152,0.02442627,77.0
65,0.042353153,-0.13248444,0.07142258,-0.015930176,-0.012744141,0.035046387,77.0
66,0.015303612,-0.09248352,-0.0019683838,-0.015930176,-0.012744141,0.035046387,77.0
67,0.015303612,-0.09248352,-0.0019683838,-0.040356446,-0.022302246,0.043542482,77.0
68,-0.03142166,-0.098083496,-0.10666275,-0.040356446,-0.022302246,0.043542482,77.0
69,-0.03142166,-0.098083496,-0.10666275,-0.035046387,-0.035046387,0.047790527,77.0
70,-0.08150959,-0.13116455,-0.1633606,-0.035046387,-0.035046387,0.047790527,77.0
71,-0.08150959,-0.13116455,-0.1633606,-0.021240234,-0.053100586,0.04991455,77.0
72,-0.08458042,-0.112472534,-0.1260643,-0.021240234,-0.053100586,0.04991455,77.0
73,-0.08458042,-0.112472534,-0.1260643,-0.050976563,-0.0722168,0.058410645,77.0
74,-0.02501297,-0.09100342,-0.0391922,-0.050976563,-0.0722168,0.058410645,77.0
75,-0.02501297,-0.09100342,-0.0391922,-0.058410645,-0.07752686,0.059472658,77.0
76,-0.02501297,-0.09100342,-0.0391922,-0.04991455,-0.08496094,0.06478272,77.0
77,0.054171562,-0.11480713,0.034317017,-0.04991455,-0.08496094,0.06478272,77.0
78,0.10892582,-0.17069244,0.06684494,-0.04991455,-0.08496094,0.06478272,77.0
79,0.10892582,-0.17069244,0.06684494,-0.035046387,-0.07752686,0.07115479,77.0
80,0.1375556,-0.21109009,0.07490158,-0.035046387,-0.07752686,0.07115479,77.0
81,0.1375556,-0.21109009,0.07490158,-0.011682129,-0.083898924,0.078588866,77.0
82,0.1430645,-0.16396332,0.069820404,-0.011682129,-0.083898924,0.078588866,77.0
83,0.1430645,-0.16396332,0.069820404,-0.022302246,-0.06690674,0.08071289,77.0
84,0.12857485,-0.034309387,0.06513214,-0.022302246,-0.06690674,0.08071289,77.0
85,0.12857485,-0.034309387,0.06513214,-0.04141846,-0.046728518,0.07965088,77.0
86,0.08854103,0.063079834,0.07620239,-0.04141846,-0.046728518,0.07965088,77.0
87,0.08854103,0.063079834,0.07620239,-0.06265869,-0.03186035,0.07434082,77.0
88,0.04778576,0.039756775,0.107688904,-0.06265869,-0.03186035,0.07434082,77.0
89,0.04778576,0.039756775,0.107688904,-0.070092775,-0.026550293,0.07115479,77.0
90,0.046370506,-0.08566284,0.1378746,-0.070092775,-0.026550293,0.07115479,77.0
91,0.046370506,-0.08566284,0.1378746,-0.029736329,-0.028674318,0.0637207,77.0
92,0.05900812,-0.15959167,0.12219238,-0.029736329,-0.028674318,0.0637207,77.0
93,0.05900812,-0.15959167,0.12219238,0.0053100586,-0.015930176,0.057348635,77.0
94,0.06362486,-0.07537842,0.06818771,0.0053100586,-0.015930176,0.057348635,77.0
95,0.06362486,-0.07537842,0.06818771,0.015930176,-0.0031860352,0.04885254,77.0
96,0.061959743,0.076553345,0.016487122,0.015930176,-0.0031860352,0.04885254,77.0
97,0.061959743,0.076553345,0.016487122,-0.0053100586,0.009558106,0.04248047,77.0
98,0.063447,0.12549591,0.005962372,-0.0053100586,0.009558106,0.04248047,77.0
99,0.063447,0.12549591,0.005962372,-0.011682129,0.020178223,0.028674318,77.0
100,0.048279762,0.05471039,0.017147064,-0.011682129,0.020178223,0.028674318,77.0
101,0.048279762,0.05471039,0.017147064,0.0031860352,0.03079834,0.021240234,77.0
102,0.048279762,0.05471039,0.017147064,0.03079834,0.03079834,0.0063720704,77.0
103,0.009595394,-0.020500183,0.015842438,0.03079834,0.03079834,0.0063720704,77.0
104,0.009595394,-0.020500183,0.015842438,0.03079834,0.03079834,0.0063720704,78.0
105,-0.032814503,-0.009979248,-0.015350342,0.03079834,0.03079834,0.0063720704,78.0
106,-0.032814503,-0.009979248,-0.015350342,0.032922365,0.0361084,-0.0031860352,78.0
107,-0.06702328,0.07395935,-0.059753418,0.032922365,0.0361084,-0.0031860352,78.0
108,-0.06702328,0.07395935,-0.059753418,0.02442627,0.039294433,-0.0180542,78.0
109,-0.09370661,0.12073517,-0.08807373,0.02442627,0.039294433,-0.0180542,78.0
110,-0.09370661,0.12073517,-0.08807373,0.012744141,0.03717041,-0.028674318,78.0
111,-0.09370661,0.12073517,-0.08807373,-0.0021240234,0.03079834,-0.035046387,78.0
112,-0.10238218,0.08660126,-0.08096695,-0.0021240234,0.03079834,-0.035046387,78.0
113,-0.077352524,0.009429932,-0.044815063,-0.0021240234,0.03079834,-0.035046387,78.0
114,-0.077352524,0.009429932,-0.044815063,0.0031860352,0.023364259,-0.038232423,78.0
115,-0.0495162,-0.050460815,-0.019226074,0.0031860352,0.023364259,-0.038232423,78.0
116,-0.0495162,-0.050460815,-0.019226074,0.012744141,0.023364259,-0.03717041,78.0
117,-0.04210329,-0.06626129,-0.03288269,0.012744141,0.023364259,-0.03717041,78.0
118,-0.04210329,-0.06626129,-0.03288269,0.019116212,0.020178223,-0.033984374,78.0
119,-0.051444054,-0.022247314,-0.051696777,0.019116212,0.020178223,-0.033984374,78.0
120,-0.051444054,-0.022247314,-0.051696777,0.011682129,0.016992187,-0.03079834,78.0
121,-0.07688522,0.0182724,-0.06373215,0.011682129,0.016992187,-0.03079834,78.0
122,-0.07688522,0.0182724,-0.06373215,-0.0010620117,0.009558106,-0.033984374,78.0
123,-0.08367634,0.022628784,-0.04714966,-0.0010620117,0.009558106,-0.033984374,78.0
124,-0.08367634,0.022628784,-0.04714966,-0.008496094,0.0010620117,-0.029736329,78.0
125,-0.06619644,-0.0045547485,-0.003250122,-0.008496094,0.0010620117,-0.029736329,78.0
126,-0.06619644,-0.0045547485,-0.003250122,-0.0053100586,-0.0021240234,-0.028674318,78.0
127,-0.04094553,-0.029190063,0.03983307,-0.0053100586,-0.0021240234,-0.028674318,78.0
128,-0.04094553,-0.029190063,0.03983307,0.004248047,-0.0031860352,-0.022302246,78.0
129,-0.04094553,-0.029190063,0.03983307,0.008496094,-0.0021240234,-0.015930176,78.0
130,-0.028923512,-0.020553589,0.04031372,0.008496094,-0.0021240234,-0.015930176,78.0
131,-0.038458824,0.029525757,0.009262085,0.008496094,-0.0021240234,-0.015930176,78.0
132,-0.038458824,0.029525757,0.009262085,-0.009558106,0.0053100586,-0.0063720704,78.0
133,-0.066265106,0.06349945,-0.016075134,-0.009558106,0.0053100586,-0.0063720704,78.0
134,-0.066265106,0.06349945,-0.016075134,-0.025488282,0.0063720704,-0.0010620117,78.0
135,-0.10332966,0.034210205,-0.024650574,-0.025488282,0.0063720704,-0.0010620117,78.0
136,-0.10332966,0.034210205,-0.024650574,-0.016992187,0.0021240234,0.0010620117,78.0
137,-0.10332966,0.034210205,-0.024650574,-0.0010620117,-0.0010620117,0.015930176,78.0
138,-0.17175055,-0.030517578,0.014751434,-0.0010620117,-0.0010620117,0.015930176,78.0
139,-0.24645805,-0.054092407,0.108078,-0.0010620117,-0.0010620117,0.015930176,78.0
140,-0.24645805,-0.054092407,0.108078,0.0010620117,-0.0021240234,0.03717041,78.0
141,-0.27828217,-0.018806458,0.17061615,0.0010620117,-0.0021240234,0.03717041,78.0
142,-0.27828217,-0.018806458,0.17061615,-0.023364259,0.015930176,0.06796875,78.0
143,-0.28259897,0.012969971,0.1512146,-0.023364259,0.015930176,0.06796875,78.0
144,-0.28259897,0.012969971,0.1512146,-0.04460449,0.039294433,0.107263185,78.0
145,-0.32444382,0.0103302,0.05806732,-0.04460449,0.039294433,0.107263185,78.0
146,-0.32444382,0.0103302,0.05806732,-0.07752686,0.04991455,0.14018555,78.0
147,-0.40957928,-0.025001526,-0.0027885437,-0.07752686,0.04991455,0.14018555,78.0
148,-0.40957928,-0.025001526,-0.0027885437,-0.12000733,0.053100586,0.1720459,78.0
149,-0.48657417,-0.09874725,0.007789612,-0.12000733,0.053100586,0.1720459,78.0
150,-0.48657417,-0.09874725,0.007789612,-0.15823975,0.045666505,0.22302246,78.0
151,-0.46755552,-0.21409607,0.011894226,-0.15823975,0.045666505,0.22302246,78.0
152,-0.46755552,-0.21409607,0.011894226,-0.16142578,0.05628662,0.29417726,78.0
153,-0.42707157,-0.30317688,-0.0868721,-0.16142578,0.05628662,0.29417726,78.0
154,-0.42707157,-0.30317688,-0.0868721,-0.12531738,0.06478272,0.36320803,78.0
155,-0.5000191,-0.28316498,-0.26490784,-0.12531738,0.06478272,0.36320803,78.0
156,-0.5000191,-0.28316498,-0.26490784,-0.10620117,0.02442627,0.39613038,78.0
157,-0.6356597,-0.21399689,-0.38957596,-0.10620117,0.02442627,0.39613038,78.0
158,-0.6356597,-0.21399689,-0.38957596,-0.11682129,-0.06265869,0.40144044,78.0
159,-0.6575513,-0.23579407,-0.3645668,-0.11682129,-0.06265869,0.40144044,78.0
160,-0.6575513,-0.23579407,-0.3645668,-0.11469727,-0.15186767,0.38869628,78.0
161,-0.48255968,-0.36314392,-0.23327637,-0.11469727,-0.15186767,0.38869628,78.0
162,-0.48255968,-0.36314392,-0.23327637,-0.07434082,-0.22833252,0.36851808,78.0
163,-0.19694853,-0.46995544,-0.11601639,-0.07434082,-0.22833252,0.36851808,78.0
164,-0.19694853,-0.46995544,-0.11601639,-0.0361084,-0.29417726,0.3419678,78.0
165,0.13229752,-0.49284363,-0.03439331,-0.0361084,-0.29417726,0.3419678,78.0
166,0.13229752,-0.49284363,-0.03439331,-0.040356446,-0.33984375,0.31435546,78.0
167,0.44928312,-0.47270203,0.044456482,-0.040356446,-0.33984375,0.31435546,78.0
168,0.44928312,-0.47270203,0.044456482,-0.0722168,-0.34940186,0.30267334,78.0
169,0.6498561,-0.43066406,0.08200073,-0.0722168,-0.34940186,0.30267334,78.0
170,0.6498561,-0.43066406,0.08200073,-0.13381349,-0.32391357,0.30161133,78.0
171,0.6327634,-0.291893,-0.017627716,-0.13381349,-0.32391357,0.30161133,78.0
172,0.6327634,-0.291893,-0.017627716,-0.20072022,-0.32497558,0.3069214,78.0
173,0.41521978,-0.053642273,-0.24328995,-0.20072022,-0.32497558,0.3069214,78.0
174,0.41521978,-0.053642273,-0.24328995,-0.26868898,-0.35577393,0.30479738,78.0
175,0.12822104,0.13925171,-0.4772339,-0.26868898,-0.35577393,0.30479738,78.0
176,0.12822104,0.13925171,-0.4772339,-0.29417726,-0.4333008,0.28674316,78.0
177,-0.07817268,0.1925888,-0.62947845,-0.29417726,-0.4333008,0.28674316,78.0
178,-0.07817268,0.1925888,-0.62947845,-0.3058594,-0.53525394,0.25594482,78.0
179,-0.13960123,0.20877075,-0.75652695,-0.3058594,-0.53525394,0.25594482,78.0
180,-0.13960123,0.20877075,-0.75652695,-0.3451538,-0.6616333,0.21134034,78.0
181,-0.040367603,0.29437256,-0.9633484,-0.3451538,-0.6616333,0.21134034,78.0
182,-0.040367603,0.29437256,-0.9633484,-0.4439209,-0.80181885,0.14655761,78.0
183,0.1520319,0.33898163,-1.2386818,-0.4439209,-0.80181885,0.14655761,78.0
184,0.1520319,0.33898163,-1.2386818,-0.4694092,-1.0142212,0.045666505,78.0
185,0.45777035,0.12313843,-1.4101715,-0.4694092,-1.0142212,0.045666505,78.0
186,0.45777035,0.12313843,-1.4101715,-0.44816896,-1.2053833,-0.04991455,78.0
187,0.88994694,-0.22795868,-1.4073982,-0.44816896,-1.2053833,-0.04991455,78.0
188,0.88994694,-0.22795868,-1.4073982,-0.45029297,-1.3498169,-0.1539917,78.0
189,1.3013253,-0.3810501,-1.378788,-0.45029297,-1.3498169,-0.1539917,78.0
190,1.3013253,-0.3810501,-1.378788,-0.55968016,-1.4846925,-0.27506104,78.0
191,1.6052938,-0.34487152,-1.4390907,-0.55968016,-1.4846925,-0.27506104,78.0
192,1.6052938,-0.34487152,-1.4390907,-0.6881836,-1.6546143,-0.41418457,78.0
193,1.9218206,-0.48509216,-1.5010529,-0.6881836,-1.6546143,-0.41418457,78.0
194,1.9218206,-0.48509216,-1.5010529,-0.6881836,-1.6546143,-0.41418457,78.0
195,1.9218206,-0.48509216,-1.5010529,-0.817749,-1.811792,-0.53950197,78.0
196,2.2861748,-0.7822647,-1.5377083,-0.817749,-1.811792,-0.53950197,78.0
197,2.2861748,-0.7822647,-1.5377083,-0.9494385,-1.9148072,-0.6945557,78.0
198,2.57175,-0.858696,-1.6391754,-0.9494385,-1.9148072,-0.6945557,78.0
199,2.57175,-0.858696,-1.6391754,-1.0705079,-2.081543,-0.8421753,78.0
200,2.7722192,-0.6045456,-1.8487816,-1.0705079,-2.081543,-0.8421753,78.0
201,2.7722192,-0.6045456,-1.8487816,-1.2850342,-2.2015502,-0.9483765,78.0
202,2.952773,-0.13331604,-2.1716766,-1.2850342,-2.2015502,-0.9483765,78.0
203,2.952773,-0.13331604,-2.1716766,-1.6578003,-2.3098755,-1.0768799,78.0
204,3.158947,0.3386917,-2.593811,-1.6578003,-2.3098755,-1.0768799,78.0
205,3.158947,0.3386917,-2.593811,-2.1909301,-2.3587282,-1.2521118,78.0
206,3.4139009,0.48143005,-2.9508553,-2.1909301,-2.3587282,-1.2521118,78.0
207,3.4139009,0.48143005,-2.9508553,-2.7251222,-2.442627,-1.5048707,78.0
208,3.8258228,0.004737854,-3.1200333,-2.7251222,-2.442627,-1.5048707,78.0
209,3.8258228,0.004737854,-3.1200333,-3.0171754,-2.6008668,-1.8489624,78.0
210,4.4650526,-0.7389679,-3.1543617,-3.0171754,-2.6008668,-1.8489624,78.0
211,4.4650526,-0.7389679,-3.1543617,-3.3028564,-2.5392702,-2.2121704,78.0
212,5.030966,-1.183754,-3.1074104,-3.3028564,-2.5392702,-2.2121704,78.0
213,5.030966,-1.183754,-3.1074104,-3.5800416,-2.3449218,-2.453247,78.0
214,5.267949,-1.2513123,-3.0002213,-3.5800416,-2.3449218,-2.453247,78.0
215,5.267949,-1.2513123,-3.0002213,-3.7701416,-2.1962402,-2.7389283,78.0
216,5.412711,-1.0868149,-2.938507,-3.7701416,-2.1962402,-2.7389283,78.0
217,5.412711,-1.0868149,-2.938507,-3.796692,-2.066675,-2.986377,78.0
218,5.7329154,-0.81542206,-3.0542984,-3.796692,-2.066675,-2.986377,78.0
219,5.7329154,-0.81542206,-3.0542984,-3.7818239,-1.8925049,-3.1913452,78.0
220,6.23007,-0.5490799,-3.3505287,-3.7818239,-1.8925049,-3.1913452,78.0
221,6.23007,-0.5490799,-3.3505287,-3.7701416,-1.6535523,-3.330469,78.0
222,6.7197742,-0.35984802,-3.714676,-3.7701416,-1.6535523,-3.330469,78.0
223,6.7197742,-0.35984802,-3.714676,-3.8317382,-1.3763672,-3.3665771,78.0
224,6.9561663,-0.3181305,-3.9616585,-3.8317382,-1.3763672,-3.3665771,78.0
225,6.9561663,-0.3181305,-3.9616585,-3.9528077,-1.0567017,-3.245508,78.0
226,6.624736,-0.480484,-3.8173027,-3.9528077,-1.0567017,-3.245508,78.0
227,6.624736,-0.480484,-3.8173027,-4.0462646,-0.72854006,-2.9640749,78.0
228,5.496517,-0.748024,-3.0494995,-4.0462646,-0.72854006,-2.9640749,78.0
229,5.496517,-0.748024,-3.0494995,-3.8497925,-0.53737795,-2.5753784,78.0
230,3.692892,-0.83265686,-1.7517929,-3.8497925,-0.53737795,-2.5753784,78.0
231,3.692892,-0.83265686,-1.7517929,-3.2168336,-0.51188964,-2.086853,78.0
232,1.5370045,-0.51130676,-0.41672897,-3.2168336,-0.51188964,-2.086853,78.0
233,1.5370045,-0.51130676,-0.41672897,-2.1388917,-0.6064087,-1.5494751,78.0
234,-0.590477,0.23851776,0.38544083,-2.1388917,-0.6064087,-1.5494751,78.0
235,-0.590477,0.23851776,0.38544083,-0.90802,-0.83474123,-1.0386475,78.0
236,-2.1881046,1.1630707,0.2770691,-0.90802,-0.83474123,-1.0386475,78.0
237,-2.1881046,1.1630707,0.2770691,0.007434082,-1.0333375,-0.60322267,78.0
238,-3.0369701,1.7534332,-0.47065353,0.007434082,-1.0333375,-0.60322267,78.0
239,-3.0369701,1.7534332,-0.47065353,0.5649902,-1.1406006,-0.21134034,78.0
240,-3.3197498,1.8052979,-1.1552696,0.5649902,-1.1406006,-0.21134034,78.0
241,-3.3197498,1.8052979,-1.1552696,0.93775636,-1.2032593,0.1083252,78.0
242,-3.2436657,1.5601044,-1.4048042,0.93775636,-1.2032593,0.1083252,78.0
243,-3.2436657,1.5601044,-1.4048042,1.1321045,-1.1968873,0.32709962,78.0
244,-3.0232162,1.280632,-1.3138237,1.1321045,-1.1968873,0.32709962,78.0
245,-3.0232162,1.280632,-1.3138237,1.177771,-1.1055542,0.43754885,78.0
246,-2.8225527,1.1095734,-1.0744095,1.177771,-1.1055542,0.43754885,78.0
247,-2.8225527,1.1095734,-1.0744095,1.1055542,-0.9717407,0.4895874,78.0
248,-2.6234722,1.0479584,-0.79699326,1.1055542,-0.9717407,0.4895874,78.0
249,-2.6234722,1.0479584,-0.79699326,0.92501223,-0.8050049,0.5033936,78.0
250,-2.4005842,0.99311066,-0.56614685,0.92501223,-0.8050049,0.5033936,78.0
251,-2.4005842,0.99311066,-0.56614685,0.76464844,-0.63933104,0.47471926,78.0
252,-2.1264372,0.8673935,-0.4041252,0.76464844,-0.63933104,0.47471926,78.0
253,-2.1264372,0.8673935,-0.4041252,0.6573853,-0.48215333,0.41737062,78.0
254,-1.7561789,0.71378326,-0.29650497,0.6573853,-0.48215333,0.41737062,78.0
255,-1.7561789,0.71378326,-0.29650497,0.55755615,-0.31329346,0.35471192,78.0
256,-1.350378,0.5728531,-0.26332855,0.55755615,-0.31329346,0.35471192,78.0
257,-1.350378,0.5728531,-0.26332855,0.44073486,-0.14549561,0.29311523,78.0
258,-0.9778118,0.3963089,-0.30573273,0.44073486,-0.14549561,0.29311523,78.0
259,-0.9778118,0.3963089,-0.30573273,0.37382814,-0.021240234,0.22408448,78.0
260,-0.49908257,0.19664001,-0.38359833,0.37382814,-0.021240234,0.22408448,78.0
261,-0.49908257,0.19664001,-0.38359833,0.32816163,0.07115479,0.16779785,78.0
262,0.21020699,0.027297974,-0.44662476,0.32816163,0.07115479,0.16779785,78.0
263,0.21020699,0.027297974,-0.44662476,0.22939454,0.1901001,0.1274414,78.0
264,0.93458366,-0.11527252,-0.53863525,0.22939454,0.1901001,0.1274414,78.0
265,0.93458366,-0.11527252,-0.53863525,0.08920898,0.28355715,0.10407715,78.0
266,1.5354357,-0.29172516,-0.6977768,0.08920898,0.28355715,0.10407715,78.0
267,1.5354357,-0.29172516,-0.6977768,-0.035046387,0.35046387,0.083898924,78.0
268,2.0107708,-0.49619293,-0.8623581,-0.035046387,0.35046387,0.083898924,78.0
269,2.0107708,-0.49619293,-0.8623581,-0.10938721,0.4258667,0.06584473,78.0
270,2.2585068,-0.6704788,-0.9990921,-0.10938721,0.4258667,0.06584473,78.0
271,2.2585068,-0.6704788,-0.9990921,-0.19222413,0.47684327,0.04460449,78.0
272,2.3012514,-0.74313354,-1.1602478,-0.19222413,0.47684327,0.04460449,78.0
273,2.3012514,-0.74313354,-1.1602478,-0.32285157,0.5065796,-0.007434082,78.0
274,2.2908058,-0.75302887,-1.2988663,-0.32285157,0.5065796,-0.007434082,78.0
275,2.2908058,-0.75302887,-1.2988663,-0.48109132,0.48427734,-0.07752686,78.0
276,2.3374424,-0.8668747,-1.1614571,-0.48109132,0.48427734,-0.07752686,78.0
277,2.3374424,-0.8668747,-1.1614571,-0.5957886,0.49489745,-0.14974366,78.0
278,2.233345,-1.1920319,-0.5631981,-0.5957886,0.49489745,-0.14974366,78.0
279,2.233345,-1.1920319,-0.5631981,-0.5055176,0.48215333,-0.15717773,78.0
280,1.6896667,-1.6271973,0.22962952,-0.5055176,0.48215333,-0.15717773,78.0
281,1.6896667,-1.6271973,0.22962952,-0.15930176,0.38338622,-0.043542482,78.0
282,0.86678505,-1.8766861,0.6959114,-0.15930176,0.38338622,-0.043542482,78.0
283,0.86678505,-1.8766861,0.6959114,0.46622315,0.2803711,0.1985962,78.0
284,0.10004425,-1.7223969,0.5173378,0.46622315,0.2803711,0.1985962,78.0
285,0.10004425,-1.7223969,0.5173378,1.2181275,0.17841797,0.55968016,78.0
286,-0.3055849,-1.2304077,-0.1212616,1.2181275,0.17841797,0.55968016,78.0
287,-0.3055849,-1.2304077,-0.1212616,1.9169312,0.10620117,1.0513916,78.0
288,-0.3204937,-0.57483673,-0.75507736,1.9169312,0.10620117,1.0513916,78.0
289,-0.3204937,-0.57483673,-0.75507736,2.3969605,0.1529297,1.5675293,78.0
290,-0.31667328,0.05369568,-1.0428696,2.3969605,0.1529297,1.5675293,78.0
291,-0.31667328,0.05369568,-1.0428696,2.7463624,0.17629395,2.0560548,78.0
292,-0.31667328,0.05369568,-1.0428696,2.7463624,0.17629395,2.0560548,78.0
293,-0.40600014,0.46009064,-0.9401932,2.7463624,0.17629395,2.0560548,78.0
294,-0.40600014,0.46009064,-0.9401932,2.896106,0.22408448,2.441565,78.0
295,-0.32268906,0.56694794,-0.548481,2.896106,0.22408448,2.441565,78.0
296,-0.32268906,0.56694794,-0.548481,2.8313234,0.32709962,2.7229981,78.0
297,-0.048446655,0.353096,0.15597916,2.8313234,0.32709962,2.7229981,78.0
298,-0.048446655,0.353096,0.15597916,2.6380372,0.5533081,2.8387573,78.0
299,0.2608757,-0.424469,1.2090836,2.6380372,0.5533081,2.8387573,78.0
300,0.2608757,-0.424469,1.2090836,2.5392702,0.77739257,2.9237182,78.0
301,0.54891014,-1.86483,2.591755,2.5392702,0.77739257,2.9237182,78.0
302,0.54891014,-1.86483,2.591755,2.5063477,1.1193603,3.1095703,78.0
303,0.80833054,-3.2703705,3.8532486,2.5063477,1.1193603,3.1095703,78.0
304,0.80833054,-3.2703705,3.8532486,2.3884645,1.5792115,3.342151,78.0
305,0.89360046,-3.8275757,4.2715874,2.3884645,1.5792115,3.342151,78.0
306,0.89360046,-3.8275757,4.2715874,2.5095336,1.8733886,3.5375612,78.0
307,0.8333502,-4.1252823,4.392929,2.5095336,1.8733886,3.5375612,78.0
308,0.8333502,-4.1252823,4.392929,2.8376954,2.090039,3.9623659,78.0
309,0.70978355,-4.7187195,5.3300896,2.8376954,2.090039,3.9623659,78.0
310,0.70978355,-4.7187195,5.3300896,3.254004,2.5636964,4.254419,78.0
311,0.06478691,-4.997711,6.667797,3.254004,2.5636964,4.254419,78.0
312,0.06478691,-4.997711,6.667797,3.5534914,3.1520507,4.325574,78.0
313,-1.1288223,-4.7532654,7.3777313,3.5534914,3.1520507,4.325574,78.0
314,-1.1288223,-4.7532654,7.3777313,4.0313964,3.7499635,4.2671633,78.0
315,-2.5573177,-3.7449799,6.892456,4.0313964,3.7499635,4.2671633,78.0
316,-2.5573177,-3.7449799,6.892456,4.439209,4.3616824,4.064319,78.0
317,-4.657011,-1.5392761,5.239769,4.439209,4.3616824,4.064319,78.0
318,-4.657011,-1.5392761,5.239769,4.270349,4.9086185,3.979358,78.0
319,-7.271764,1.208435,3.2315521,4.270349,4.9086185,3.979358,78.0
320,-7.271764,1.208435,3.2315521,3.9942262,5.1072145,3.6883667,78.0
321,-9.161845,3.1713104,1.7153931,3.9942262,5.1072145,3.6883667,78.0
322,-9.161845,3.1713104,1.7153931,4.004846,5.0955324,3.3708253,78.0
323,-9.7342615,3.9128036,0.7133789,4.004846,5.0955324,3.3708253,78.0
324,-9.7342615,3.9128036,0.7133789,4.150342,4.9107423,2.9502685,78.0
325,-9.530012,4.0067215,-0.112392426,4.150342,4.9107423,2.9502685,78.0
326,-9.530012,4.0067215,-0.112392426,4.319202,4.619751,2.5668824,78.0
327,-9.277489,4.3061523,-0.8680763,4.319202,4.619751,2.5668824,78.0
328,-9.277489,4.3061523,-0.8680763,4.409473,4.2852173,2.1442018,78.0
329,-9.098028,4.881836,-1.3397636,4.409473,4.2852173,2.1442018,78.0
330,-9.098028,4.881836,-1.3397636,4.333008,3.9432495,1.7024049,78.0
331,-8.752508,4.8794327,-1.4296227,4.333008,3.9432495,1.7024049,78.0
332,-8.752508,4.8794327,-1.4296227,4.1949463,3.5534914,1.3168945,78.0
333,-8.1456585,4.3283844,-1.2549286,4.1949463,3.5534914,1.3168945,78.0
334,-8.1456585,4.3283844,-1.2549286,4.015466,3.164795,0.9685547,78.0
335,-7.283348,3.9057007,-0.98466873,4.015466,3.164795,0.9685547,78.0
336,-7.283348,3.9057007,-0.98466873,3.7775757,2.822827,0.6711914,78.0
337,-6.3073063,3.83004,-0.87183,3.7775757,2.822827,0.6711914,78.0
338,-6.3073063,3.83004,-0.87183,3.4579103,2.4521852,0.50233155,78.0
339,-5.477522,4.1172714,-1.1180573,3.4579103,2.4521852,0.50233155,78.0
340,-5.477522,4.1172714,-1.1180573,2.8780518,2.176062,0.3525879,78.0
341,-4.9018784,4.544815,-1.4816666,2.8780518,2.176062,0.3525879,78.0
342,-4.9018784,4.544815,-1.4816666,2.2312868,1.8755127,0.26125488,78.0
343,-4.5162773,4.642601,-1.5800934,2.2312868,1.8755127,0.26125488,78.0
344,-4.5162773,4.642601,-1.5800934,1.7385132,1.6503662,0.24532472,78.0
345,-4.229965,4.342697,-1.3686523,1.7385132,1.6503662,0.24532472,78.0
346,-4.229965,4.342697,-1.3686523,1.5208008,1.4252198,0.2793091,78.0
347,-4.0724974,4.0322723,-1.0071526,1.5208008,1.4252198,0.2793091,78.0
348,-4.0724974,4.0322723,-1.0071526,1.3275146,1.1671509,0.2793091,78.0
349,-3.978836,3.9570923,-0.6170616,1.3275146,1.1671509,0.2793091,78.0
350,-3.978836,3.9570923,-0.6170616,1.0428956,0.8687256,0.17841797,78.0
351,-3.7897701,3.9826202,-0.1608963,1.0428956,0.8687256,0.17841797,78.0
352,-3.7897701,3.9826202,-0.1608963,0.5851685,0.64570314,-0.009558106,78.0
353,-3.553936,3.7868042,0.34347534,0.5851685,0.64570314,-0.009558106,78.0
354,-3.553936,3.7868042,0.34347534,0.1709839,0.41843262,-0.17841797,78.0
355,-3.4927826,3.310402,0.6886139,0.1709839,0.41843262,-0.17841797,78.0
356,-3.4927826,3.310402,0.6886139,0.0031860352,0.1539917,-0.25806886,78.0
357,-3.5576057,2.898384,0.908226,0.0031860352,0.1539917,-0.25806886,78.0
358,-3.5576057,2.898384,0.908226,-0.03186035,-0.08920898,-0.29948732,78.0
359,-3.5135155,2.6880417,1.1197968,-0.03186035,-0.08920898,-0.29948732,78.0
360,-3.5135155,2.6880417,1.1197968,0.043542482,-0.21452637,-0.33665773,78.0
361,-3.2323818,2.4261398,1.1351929,0.043542482,-0.21452637,-0.33665773,78.0
362,-3.2323818,2.4261398,1.1351929,0.11257324,-0.31435546,-0.36639404,78.0
363,-2.633562,1.8823662,0.7677231,0.11257324,-0.31435546,-0.36639404,78.0
364,-2.633562,1.8823662,0.7677231,0.118945315,-0.32922363,-0.39294434,78.0
365,-1.8092422,1.0436134,0.2178154,0.118945315,-0.32922363,-0.39294434,78.0
366,-1.8092422,1.0436134,0.2178154,0.10938721,-0.28674316,-0.4258667,78.0
367,-0.9995308,0.103458405,-0.20904922,0.10938721,-0.28674316,-0.4258667,78.0
368,-0.9995308,0.103458405,-0.20904922,0.17841797,-0.25594482,-0.43754885,78.0
369,-0.33646584,-0.6185379,-0.35865784,0.17841797,-0.25594482,-0.43754885,78.0
370,-0.33646584,-0.6185379,-0.35865784,0.19647217,-0.1996582,-0.4258667,78.0
371,0.17477417,-0.9495697,-0.2947502,0.19647217,-0.1996582,-0.4258667,78.0
372,0.17477417,-0.9495697,-0.2947502,0.21452637,-0.13912354,-0.3971924,78.0
373,0.51636887,-0.9523468,-0.2837639,0.21452637,-0.13912354,-0.3971924,78.0
374,0.51636887,-0.9523468,-0.2837639,0.15505372,-0.050976563,-0.35152587,78.0
375,0.6411972,-0.815258,-0.4138527,0.15505372,-0.050976563,-0.35152587,78.0
376,0.6411972,-0.815258,-0.4138527,0.1263794,-0.012744141,-0.31223145,78.0
377,0.5871887,-0.7413788,-0.42037582,0.1263794,-0.012744141,-0.31223145,78.0
378,0.5871887,-0.7413788,-0.42037582,0.08602295,0.019116212,-0.26656494,78.0
379,0.4526863,-0.7126808,-0.18523788,0.08602295,0.019116212,-0.26656494,78.0
380,0.4526863,-0.7126808,-0.18523788,0.046728518,0.06796875,-0.24213867,78.0
381,0.25122452,-0.64020157,0.105838776,0.046728518,0.06796875,-0.24213867,78.0
382,0.25122452,-0.64020157,0.105838776,0.03717041,0.10620117,-0.19328614,78.0
383,-0.079380035,-0.424675,0.2628441,0.03717041,0.10620117,-0.19328614,78.0
384,-0.079380035,-0.424675,0.2628441,0.039294433,0.121069334,-0.16461182,78.0
385,-0.52020645,-0.08905792,0.29146194,0.039294433,0.121069334,-0.16461182,78.0
386,-0.52020645,-0.08905792,0.29146194,0.033984374,0.13168946,-0.14974366,78.0
387,-0.9608669,0.2371788,0.33861542,0.033984374,0.13168946,-0.14974366,78.0
388,-0.9608669,0.2371788,0.33861542,-0.039294433,0.13275146,-0.13806152,78.0
389,-1.3678017,0.45706177,0.46211624,-0.039294433,0.13275146,-0.13806152,78.0
390,-1.3678017,0.45706177,0.46211624,-0.1083252,0.10089111,-0.0998291,78.0
391,-1.6843891,0.58187103,0.5674095,-0.1083252,0.10089111,-0.0998291,78.0
392,-1.6843891,0.58187103,0.5674095,-0.15186767,0.059472658,-0.045666505,78.0
393,-1.8477802,0.70466995,0.5679283,-0.15186767,0.059472658,-0.045666505,78.0
394,-1.8477802,0.70466995,0.5679283,-0.22089843,0.008496094,-0.0031860352,78.0
395,-1.8757954,0.7877121,0.5281944,-0.22089843,0.008496094,-0.0031860352,78.0
396,-1.8757954,0.7877121,0.5281944,-0.32285157,-0.010620117,0.0180542,78.0
397,-1.8546162,0.70821,0.55994415,-0.32285157,-0.010620117,0.0180542,78.0
398,-1.8546162,0.70821,0.55994415,-0.4364868,-0.029736329,-0.008496094,78.0
399,-1.862648,0.43585205,0.67720413,-0.4364868,-0.029736329,-0.008496094,78.0
400,-1.862648,0.43585205,0.67720413,-0.58304447,-0.02442627,-0.095581055,78.0
401,-1.8391056,-0.018371582,0.87568665,-0.58304447,-0.02442627,-0.095581055,78.0
402,-1.8391056,-0.018371582,0.87568665,-0.6924316,-0.050976563,-0.16354981,78.0
403,-1.5722008,-0.5552368,1.0413818,-0.6924316,-0.050976563,-0.16354981,78.0
404,-1.5722008,-0.5552368,1.0413818,-0.68712157,-0.07752686,-0.1274414,78.0
405,-1.0259495,-0.94179535,0.9084587,-0.68712157,-0.07752686,-0.1274414,78.0
406,-1.0259495,-0.94179535,0.9084587,-0.6180908,-0.078588866,-0.027612304,78.0
407,-0.36776733,-1.1939011,0.57138443,-0.6180908,-0.078588866,-0.027612304,78.0
408,-0.36776733,-1.1939011,0.57138443,-0.51188964,-0.10513916,0.0010620117,78.0
409,0.32863808,-1.514801,0.46682358,-0.51188964,-0.10513916,0.0010620117,78.0
410,0.32863808,-1.514801,0.46682358,-0.5256958,-0.11044922,0.015930176,78.0
411,1.0025482,-1.9292145,0.76754,-0.5256958,-0.11044922,0.015930176,78.0
412,1.0025482,-1.9292145,0.76754,-0.56817627,-0.11363526,0.09664307,78.0
413,1.5198612,-2.1702118,1.126751,-0.56817627,-0.11363526,0.09664307,78.0
414,1.5198612,-2.1702118,1.126751,-0.5331299,-0.07327881,0.27718505,78.0
415,1.7227993,-1.8664398,1.1088448,-0.5331299,-0.07327881,0.27718505,78.0
416,1.7227993,-1.8664398,1.1088448,-0.4428589,-0.046728518,0.4056885,78.0
417,1.7227993,-1.8664398,1.1088448,-0.4428589,-0.046728518,0.4056885,78.0
418,1.679657,-1.123146,0.69223785,-0.4428589,-0.046728518,0.4056885,78.0
419,1.679657,-1.123146,0.69223785,-0.4343628,0.025488282,0.5214478,78.0
420,1.6020279,-0.46710968,0.10790253,-0.4343628,0.025488282,0.5214478,78.0
421,1.6020279,-0.46710968,0.10790253,-0.43117675,0.10301514,0.6042847,78.0
422,1.5283642,-0.08810425,-0.42080688,-0.43117675,0.10301514,0.6042847,78.0
423,1.5283642,-0.08810425,-0.42080688,-0.4322388,0.16248779,0.6552612,78.0
424,1.3821411,0.16794586,-0.73316574,-0.4322388,0.16248779,0.6552612,78.0
425,1.3821411,0.16794586,-0.73316574,-0.44923097,0.19116211,0.634021,78.0
426,1.1456184,0.35674286,-0.8060379,-0.44923097,0.19116211,0.634021,78.0
427,1.1456184,0.35674286,-0.8060379,-0.4609131,0.18372802,0.5734863,78.0
428,0.87381935,0.37913513,-0.74671173,-0.4609131,0.18372802,0.5734863,78.0
429,0.87381935,0.37913513,-0.74671173,-0.3717041,0.1444336,0.5076416,78.0
430,0.613266,0.3476715,-0.657341,-0.3717041,0.1444336,0.5076416,78.0
431,0.613266,0.3476715,-0.657341,-0.3164795,0.10195313,0.46516114,78.0
432,0.39250565,0.41680908,-0.61860657,-0.3164795,0.10195313,0.46516114,78.0
433,0.39250565,0.41680908,-0.61860657,-0.32391357,0.057348635,0.41524658,78.0
434,0.25073624,0.49678802,-0.6785431,-0.32391357,0.057348635,0.41524658,78.0
435,0.25073624,0.49678802,-0.6785431,-0.37382814,-0.007434082,0.36851808,78.0
436,0.22010803,0.43559265,-0.75320816,-0.37382814,-0.007434082,0.36851808,78.0
437,0.22010803,0.43559265,-0.75320816,-0.40462646,-0.095581055,0.3175415,78.0
438,0.24880409,0.2954712,-0.73213196,-0.40462646,-0.095581055,0.3175415,78.0
439,0.24880409,0.2954712,-0.73213196,-0.39400634,-0.19434814,0.26019287,78.0
440,0.29957962,0.24499512,-0.6059189,-0.39400634,-0.19434814,0.26019287,78.0
441,0.29957962,0.24499512,-0.6059189,-0.40250245,-0.30373535,0.2081543,78.0
442,0.33496475,0.33564758,-0.4174614,-0.40250245,-0.30373535,0.2081543,78.0
443,0.33496475,0.33564758,-0.4174614,-0.37701416,-0.4343628,0.14230958,78.0
444,0.327919,0.46783447,-0.2591629,-0.37701416,-0.4343628,0.14230958,78.0
445,0.327919,0.46783447,-0.2591629,-0.42055663,-0.5533081,0.09239502,78.0
446,0.37166214,0.5851593,-0.1919136,-0.42055663,-0.5533081,0.09239502,78.0
447,0.37166214,0.5851593,-0.1919136,-0.5140137,-0.6924316,-0.0053100586,78.0
448,0.51753235,0.6678009,-0.24148178,-0.5140137,-0.6924316,-0.0053100586,78.0
449,0.51753235,0.6678009,-0.24148178,-0.6531372,-0.8750977,-0.16142578,78.0
450,0.66215706,0.6006851,-0.38031006,-0.6531372,-0.8750977,-0.16142578,78.0
451,0.66215706,0.6006851,-0.38031006,-0.8442993,-1.0736939,-0.35046387,78.0
452,0.8502579,0.14826202,-0.5412483,-0.8442993,-1.0736939,-0.35046387,78.0
453,0.8502579,0.14826202,-0.5412483,-1.0620117,-1.4379638,-0.5384399,78.0
454,1.2984314,-0.68909454,-0.4935074,-1.0620117,-1.4379638,-0.5384399,78.0
455,1.2984314,-0.68909454,-0.4935074,-1.2627319,-1.8723267,-0.6796875,78.0
456,2.035925,-1.5194397,0.15712357,-1.2627319,-1.8723267,-0.6796875,78.0
457,2.035925,-1.5194397,0.15712357,-1.2372437,-2.3077514,-0.79119873,78.0
458,2.7764816,-2.0595093,1.2996597,-1.2372437,-2.3077514,-0.79119873,78.0
459,2.7764816,-2.0595093,1.2996597,-1.1820191,-2.7304323,-0.92713624,78.0
460,3.3335876,-2.3897247,2.2222214,-1.1820191,-2.7304323,-0.92713624,78.0
461,3.3335876,-2.3897247,2.2222214,-1.26167,-3.2327638,-1.0322754,78.0
462,3.8575554,-2.6118774,2.4756432,-1.26167,-3.2327638,-1.0322754,78.0
463,3.8575554,-2.6118774,2.4756432,-1.5972656,-3.6342041,-1.1374146,78.0
464,4.5652313,-2.6607819,2.263668,-1.5972656,-3.6342041,-1.1374146,78.0
465,4.5652313,-2.6607819,2.263668,-1.8606446,-3.9655519,-1.3699951,78.0
466,5.354431,-2.6840591,2.1204567,-1.8606446,-3.9655519,-1.3699951,78.0
467,5.354431,-2.6840591,2.1204567,-1.9647217,-4.167334,-1.4910644,78.0
468,5.8370237,-2.9418259,2.3130417,-1.9647217,-4.167334,-1.4910644,78.0
469,5.8370237,-2.9418259,2.3130417,-1.8871949,-4.269287,-1.4878784,78.0
470,5.925539,-3.335762,2.3570862,-1.8871949,-4.269287,-1.4878784,78.0
471,5.925539,-3.335762,2.3570862,-1.9541016,-4.343628,-1.3774292,78.0
472,6.000539,-3.5189362,1.7309799,-1.9541016,-4.343628,-1.3774292,78.0
473,6.000539,-3.5189362,1.7309799,-1.9222412,-4.4721313,-1.4825684,78.0
474,6.464738,-3.3605194,1.0799713,-1.9222412,-4.4721313,-1.4825684,78.0
475,6.464738,-3.3605194,1.0799713,-1.7406372,-4.6654177,-1.6747925,78.0
476,7.376441,-3.0235214,1.4300041,-1.7406372,-4.6654177,-1.6747925,78.0
477,7.376441,-3.0235214,1.4300041,-1.7863038,-4.591077,-1.8553345,78.0
478,8.112347,-3.0215302,2.2217255,-1.7863038,-4.591077,-1.8553345,78.0
479,8.112347,-3.0215302,2.2217255,-1.9073731,-4.37655,-1.902063,78.0
480,7.778159,-3.1273727,1.9320908,-1.9073731,-4.37655,-1.902063,78.0
481,7.778159,-3.1273727,1.9320908,-2.1558838,-3.9517457,-1.9530395,78.0
482,6.428472,-2.554329,0.4188652,-2.1558838,-3.9517457,-1.9530395,78.0
483,6.428472,-2.554329,0.4188652,-2.445813,-3.7850099,-2.061365,78.0
484,5.1109905,-1.8750992,-0.909256,-2.445813,-3.7850099,-2.061365,78.0
485,5.1109905,-1.8750992,-0.909256,-2.4872315,-3.9294434,-2.160132,78.0
486,4.8194447,-1.9811478,-0.98545074,-2.4872315,-3.9294434,-2.160132,78.0
487,4.8194447,-1.9811478,-0.98545074,-2.2185426,-3.8986452,-2.0241945,78.0
488,5.3413343,-2.804329,-0.13427353,-2.2185426,-3.8986452,-2.0241945,78.0
489,5.3413343,-2.804329,-0.13427353,-1.6450561,-3.8381104,-1.902063,78.0
490,5.676095,-3.2827682,0.30921936,-1.6450561,-3.8381104,-1.902063,78.0
491,5.676095,-3.2827682,0.30921936,-1.1597168,-3.265686,-1.6896607,78.0
492,5.067756,-2.1843338,-0.43382263,-1.1597168,-3.265686,-1.6896607,78.0
493,5.067756,-2.1843338,-0.43382263,-1.1342286,-2.8727417,-1.5016845,78.0
494,3.6855283,0.032310486,-1.8021622,-1.1342286,-2.8727417,-1.5016845,78.0
495,3.6855283,0.032310486,-1.8021622,-1.5908936,-2.6720216,-1.354065,78.0
496,2.5894995,1.3425751,-2.7911453,-1.5908936,-2.6720216,-1.354065,78.0
497,2.5894995,1.3425751,-2.7911453,-1.8245362,-2.628479,-1.2468017,78.0
498,2.3151422,0.86460114,-2.881401,-1.8245362,-2.628479,-1.2468017,78.0
499,2.3151422,0.86460114,-2.881401,-1.7586914,-2.3194337,-1.084314,78.0
500,2.4096699,-0.106658936,-2.3660202,-1.7586914,-2.3194337,-1.084314,78.0
501,2.4096699,-0.106658936,-2.3660202,-1.6036377,-2.0411866,-0.9632446,78.0
502,2.4640398,-0.5444107,-1.7331619,-1.6036377,-2.0411866,-0.9632446,78.0
503,2.4640398,-0.5444107,-1.7331619,-1.2446778,-1.8744507,-0.9228882,78.0
504,2.444559,-0.47612,-1.4090996,-1.2446778,-1.8744507,-0.9228882,78.0
505,2.444559,-0.47612,-1.4090996,-0.97492677,-1.5569092,-0.8230591,78.0
506,2.1444654,-0.060112,-1.6552925,-0.97492677,-1.5569092,-0.8230591,78.0
507,2.1444654,-0.060112,-1.6552925,-0.89846194,-1.3445069,-0.7189819,78.0
508,1.7742033,0.40170288,-2.2365417,-0.89846194,-1.3445069,-0.7189819,78.0
509,1.7742033,0.40170288,-2.2365417,-0.8623535,-1.2128174,-0.631897,78.0
510,1.7686424,0.60079193,-2.6593742,-0.8623535,-1.2128174,-0.631897,78.0
511,1.7686424,0.60079193,-2.6593742,-0.84536135,-1.0535157,-0.5511841,78.0
512,2.0315027,0.47425842,-2.5985298,-0.84536135,-1.0535157,-0.5511841,78.0
513,2.0315027,0.47425842,-2.5985298,-0.85491943,-0.81668705,-0.4800293,78.0
514,2.1519966,0.25975037,-2.2251358,-0.85491943,-0.81668705,-0.4800293,78.0
515,2.1519966,0.25975037,-2.2251358,-0.99510497,-0.51932377,-0.37382814,78.0
516,1.9320335,0.21207428,-2.0120392,-0.99510497,-0.51932377,-0.37382814,78.0
517,1.9320335,0.21207428,-2.0120392,-1.2531738,-0.33240968,-0.27612305,78.0
518,1.578476,0.2351532,-2.1432037,-1.2531738,-0.33240968,-0.27612305,78.0
519,1.578476,0.2351532,-2.1432037,-1.5112427,-0.25913087,-0.26125488,78.0
520,1.3433466,0.05329895,-2.3502808,-1.5112427,-0.25913087,-0.26125488,78.0
521,1.3433466,0.05329895,-2.3502808,-1.5866455,-0.30267334,-0.3175415,78.0
522,1.1561584,-0.3614502,-2.3420677,-1.5866455,-0.30267334,-0.3175415,78.0
523,1.1561584,-0.3614502,-2.3420677,-1.4751343,-0.3090454,-0.4056885,78.0
524,0.83270264,-0.7153244,-2.0700264,-1.4751343,-0.3090454,-0.4056885,78.0
525,0.83270264,-0.7153244,-2.0700264,-1.2255615,-0.28780517,-0.45454103,78.0
526,0.2876339,-0.7342453,-1.703373,-1.2255615,-0.28780517,-0.45454103,78.0
527,0.2876339,-0.7342453,-1.703373,-0.89421386,-0.23045655,-0.4088745,78.0
528,-0.3247385,-0.39601135,-1.5134811,-0.89421386,-0.23045655,-0.4088745,78.0
529,-0.3247385,-0.39601135,-1.5134811,-0.544812,-0.16992188,-0.28355715,78.0
530,-0.68587685,0.09194183,-1.5897408,-0.544812,-0.16992188,-0.28355715,78.0
531,-0.68587685,0.09194183,-1.5897408,-0.16248779,-0.083898924,-0.13912354,78.0
532,-0.740901,0.51823425,-1.7304993,-0.16248779,-0.083898924,-0.13912354,78.0
533,-0.740901,0.51823425,-1.7304993,-0.16248779,-0.083898924,-0.13912354,79.0
534,-0.740901,0.51823425,-1.7304993,0.14974366,0.09451904,0.038232423,79.0
535,-0.71336365,0.8217392,-1.7544289,0.14974366,0.09451904,0.038232423,79.0
536,-0.71336365,0.8217392,-1.7544289,0.2548828,0.26444092,0.22727051,79.0
537,-0.6654177,1.0355911,-1.6518707,0.2548828,0.26444092,0.22727051,79.0
538,-0.6654177,1.0355911,-1.6518707,0.19541016,0.42161867,0.39613038,79.0
539,-0.5952368,1.1221848,-1.4196167,0.19541016,0.42161867,0.39613038,79.0
540,-0.5952368,1.1221848,-1.4196167,0.14761963,0.5161377,0.51188964,79.0
541,-0.5343809,0.933609,-1.0772972,0.14761963,0.5161377,0.51188964,79.0
542,-0.5343809,0.933609,-1.0772972,0.14868164,0.5734863,0.5522461,79.0
543,-0.71261215,0.691185,-0.7062454,0.14868164,0.5734863,0.5522461,79.0
544,-0.71261215,0.691185,-0.7062454,0.18797608,0.75509036,0.61702883,79.0
545,-0.7969694,0.40499115,-0.4384346,0.18797608,0.75509036,0.61702883,79.0
546,-0.7969694,0.40499115,-0.4384346,0.27506104,0.75721437,0.6085327,79.0
547,-1.2242212,0.10140228,-0.36610413,0.27506104,0.75721437,0.6085327,79.0
548,-1.2242212,0.10140228,-0.36610413,0.4970215,0.77526855,0.5384399,79.0
549,-1.1367264,0.052505493,-0.2240715,0.4970215,0.77526855,0.5384399,79.0
550,-1.1367264,0.052505493,-0.2240715,0.5246338,0.77739257,0.50445557,79.0
551,-1.0733948,0.23667908,-0.09033966,0.5246338,0.77739257,0.50445557,79.0
552,-1.0733948,0.23667908,-0.09033966,0.5246338,0.74447024,0.38232422,79.0
553,-0.91673565,0.22880554,0.10286331,0.5246338,0.74447024,0.38232422,79.0
554,-0.91673565,0.22880554,0.10286331,0.49171144,0.73597413,0.33878174,79.0
555,-0.8414335,0.18985748,0.37613678,0.49171144,0.73597413,0.33878174,79.0
556,-0.8414335,0.18985748,0.37613678,0.4088745,0.6510132,0.2177124,79.0
557,-0.7359886,0.08904266,0.44965363,0.4088745,0.6510132,0.2177124,79.0
558,-0.7359886,0.08904266,0.44965363,0.39188233,0.62764895,0.18691407,79.0
559,-0.79102516,-0.059684753,0.3913269,0.39188233,0.62764895,0.18691407,79.0
560,-0.79102516,-0.059684753,0.3913269,0.3451538,0.52888185,0.107263185,79.0
561,-0.7422075,-0.057548523,0.33797455,0.3451538,0.52888185,0.107263185,79.0
562,-0.7422075,-0.057548523,0.33797455,0.33878174,0.48109132,0.07646485,79.0
563,-0.714591,-2.1362305E-4,0.19603729,0.33878174,0.48109132,0.07646485,79.0
564,-0.714591,-2.1362305E-4,0.19603729,0.3430298,0.3154175,-0.038232423,79.0
565,-0.5556326,0.027107239,0.2258339,0.3430298,0.3154175,-0.038232423,79.0
566,-0.5556326,0.027107239,0.2258339,0.34833986,0.26656494,-0.07434082,79.0
567,-0.22067738,0.024459839,0.37298965,0.34833986,0.26656494,-0.07434082,79.0
568,-0.22067738,0.024459839,0.37298965,0.33240968,0.11363526,-0.1985962,79.0
569,-0.037064552,0.05393219,0.37976074,0.33240968,0.11363526,-0.1985962,79.0
570,-0.037064552,0.05393219,0.37976074,0.3090454,0.06903076,-0.24851075,79.0
571,0.352746,0.08690643,0.36597824,0.3090454,0.06903076,-0.24851075,79.0
572,0.352746,0.08690643,0.36597824,0.23045655,-0.007434082,-0.3419678,79.0
573,0.7592716,0.1253357,0.25159454,0.23045655,-0.007434082,-0.3419678,79.0
574,0.7592716,0.1253357,0.25159454,0.08496094,-0.04248047,-0.42055663,79.0
575,1.1352005,0.14198303,0.04385376,0.08496094,-0.04248047,-0.42055663,79.0
576,1.1352005,0.14198303,0.04385376,-0.1985962,-0.08920898,-0.48215333,79.0
577,0.9933529,0.17027283,-0.021263123,-0.1985962,-0.08920898,-0.48215333,79.0
578,0.9933529,0.17027283,-0.021263123,-0.29417726,-0.11363526,-0.4885254,79.0
579,0.8132973,0.2109375,0.04530716,-0.29417726,-0.11363526,-0.4885254,79.0
580,0.8132973,0.2109375,0.04530716,-0.54587406,-0.19753419,-0.48640138,79.0
581,0.6974764,0.21751404,0.040065765,-0.54587406,-0.19753419,-0.48640138,79.0
582,0.6974764,0.21751404,0.040065765,-0.62340087,-0.22514649,-0.49277344,79.0
583,0.7751932,0.21435547,0.05483246,-0.62340087,-0.22514649,-0.49277344,79.0
584,0.7751932,0.21435547,0.05483246,-0.7784546,-0.270813,-0.51932377,79.0
585,1.1170416,0.20121002,-0.03591919,-0.7784546,-0.270813,-0.51932377,79.0
586,1.1170416,0.20121002,-0.03591919,-0.96643066,-0.29523927,-0.5671143,79.0
587,1.4623222,0.15302277,-0.107421875,-0.96643066,-0.29523927,-0.5671143,79.0
588,1.4623222,0.15302277,-0.107421875,-1.1554688,-0.23258057,-0.59472656,79.0
589,1.2151947,0.03756714,-0.039878845,-1.1554688,-0.23258057,-0.59472656,79.0
590,1.2151947,0.03756714,-0.039878845,-1.2521118,-0.10620117,-0.5246338,79.0
591,0.25916672,-0.04701996,0.078300476,-1.2521118,-0.10620117,-0.5246338,79.0
592,0.25916672,-0.04701996,0.078300476,-1.2202514,-0.06478272,-0.38763428,79.0
593,-0.68821144,-0.0640564,0.08483124,-1.2202514,-0.06478272,-0.38763428,79.0
594,-0.68821144,-0.0640564,0.08483124,-1.0174073,-0.10620117,-0.23364258,79.0
595,-0.9140825,0.013710022,0.006500244,-1.0174073,-0.10620117,-0.23364258,79.0
596,-0.9140825,0.013710022,0.006500244,-0.71367186,-0.14868164,-0.118945315,79.0
597,-0.40682793,0.1931305,-0.04227066,-0.71367186,-0.14868164,-0.118945315,79.0
598,-0.40682793,0.1931305,-0.04227066,-0.5214478,-0.1359375,-0.03717041,79.0
599,0.3497944,0.3669281,-0.12921524,-0.5214478,-0.1359375,-0.03717041,79.0
600,0.3497944,0.3669281,-0.12921524,-0.5798584,-0.045666505,0.0180542,79.0
601,0.77970123,0.42238617,-0.22981262,-0.5798584,-0.045666505,0.0180542,79.0
602,0.77970123,0.42238617,-0.22981262,-0.75615233,0.09133301,0.04248047,79.0
603,0.49109554,0.3296814,-0.28110123,-0.75615233,0.09133301,0.04248047,79.0
604,0.49109554,0.3296814,-0.28110123,-0.9451904,0.22727051,0.07434082,79.0
605,-0.41033363,0.15974426,-0.26207733,-0.9451904,0.22727051,0.07434082,79.0
606,-0.41033363,0.15974426,-0.26207733,-1.0131592,0.26975098,0.10195313,79.0
607,-1.3694649,-0.03489685,-0.24916458,-1.0131592,0.26975098,0.10195313,79.0
608,-1.3694649,-0.03489685,-0.24916458,-0.93563235,0.21877442,0.12956543,79.0
609,-1.8929234,-0.19423676,-0.27958298,-0.93563235,0.21877442,0.12956543,79.0
610,-1.8929234,-0.19423676,-0.27958298,-0.75721437,0.09770508,0.12213135,79.0
611,-1.8845539,-0.28417206,-0.28115082,-0.75721437,0.09770508,0.12213135,79.0
612,-1.8845539,-0.28417206,-0.28115082,-0.544812,-0.04991455,0.07965088,79.0
613,-1.5219984,-0.31169128,-0.19506073,-0.544812,-0.04991455,0.07965088,79.0
614,-1.5219984,-0.31169128,-0.19506073,-0.35046387,-0.19328614,0.016992187,79.0
615,-1.0456629,-0.2797699,-0.038715363,-0.35046387,-0.19328614,0.016992187,79.0
616,-1.0456629,-0.2797699,-0.038715363,-0.23151855,-0.30479738,-0.040356446,79.0
617,-0.6637764,-0.19940186,0.094127655,-0.23151855,-0.30479738,-0.040356446,79.0
618,-0.6637764,-0.19940186,0.094127655,-0.15080567,-0.39188233,-0.08283692,79.0
619,-0.46665287,-0.11407471,0.11085892,-0.15080567,-0.39188233,-0.08283692,79.0
620,-0.46665287,-0.11407471,0.11085892,-0.06478272,-0.45772704,-0.10407715,79.0
621,-0.39984798,-0.0042266846,-0.008300781,-0.06478272,-0.45772704,-0.10407715,79.0
622,-0.39984798,-0.0042266846,-0.008300781,0.011682129,-0.5097656,-0.11151123,79.0
623,-0.33145046,0.1217041,-0.16546631,0.011682129,-0.5097656,-0.11151123,79.0
624,-0.33145046,0.1217041,-0.16546631,0.043542482,-0.55543214,-0.098767094,79.0
625,-0.14484787,0.218544,-0.24449539,0.043542482,-0.55543214,-0.098767094,79.0
626,-0.14484787,0.218544,-0.24449539,0.0180542,-0.55755615,-0.07115479,79.0
627,0.15119934,0.23495483,-0.25985718,0.0180542,-0.55755615,-0.07115479,79.0
628,0.15119934,0.23495483,-0.25985718,-0.0180542,-0.5214478,-0.053100586,79.0
629,0.44379902,0.2000122,-0.29921722,-0.0180542,-0.5214478,-0.053100586,79.0
630,0.44379902,0.2000122,-0.29921722,-0.08602295,-0.5033936,-0.047790527,79.0
631,0.7627907,0.14395905,-0.4006157,-0.08602295,-0.5033936,-0.047790527,79.0
632,0.7627907,0.14395905,-0.4006157,-0.16779785,-0.5076416,-0.08071289,79.0
633,1.2473545,0.012336731,-0.47356796,-0.16779785,-0.5076416,-0.08071289,79.0
634,1.2473545,0.012336731,-0.47356796,-0.23045655,-0.5256958,-0.15823975,79.0
635,1.888484,-0.19469452,-0.40538025,-0.23045655,-0.5256958,-0.15823975,79.0
636,1.888484,-0.19469452,-0.40538025,-0.26550293,-0.49383545,-0.24744873,79.0
637,2.3998013,-0.34005737,-0.26522064,-0.26550293,-0.49383545,-0.24744873,79.0
638,2.3998013,-0.34005737,-0.26522064,-0.4078125,-0.3993164,-0.29630128,79.0
639,2.5437546,-0.29465485,-0.31724167,-0.4078125,-0.3993164,-0.29630128,79.0
640,2.5437546,-0.29465485,-0.31724167,-0.6977417,-0.33028564,-0.29417726,79.0
641,2.3747253,-0.18843079,-0.6476288,-0.6977417,-0.33028564,-0.29417726,79.0
642,2.3747253,-0.18843079,-0.6476288,-1.0004151,-0.30054933,-0.3058594,79.0
643,2.095667,-0.23284912,-0.96455,-1.0004151,-0.30054933,-0.3058594,79.0
644,2.095667,-0.23284912,-0.96455,-1.1809571,-0.29630128,-0.36108398,79.0
645,1.8104076,-0.46578217,-0.9957123,-1.1809571,-0.29630128,-0.36108398,79.0
646,1.8104076,-0.46578217,-0.9957123,-1.2266235,-0.29736328,-0.4364868,79.0
647,1.3777571,-0.8167801,-0.667923,-1.2266235,-0.29736328,-0.4364868,79.0
648,1.3777571,-0.8167801,-0.667923,-0.9834229,-0.2824951,-0.4895874,79.0
649,0.60431767,-1.1013336,-0.14664459,-0.9834229,-0.2824951,-0.4895874,79.0
650,0.60431767,-1.1013336,-0.14664459,-0.5055176,-0.21558838,-0.4354248,79.0
651,-0.38230515,-1.1031723,0.17387009,-0.5055176,-0.21558838,-0.4354248,79.0
652,-0.38230515,-1.1031723,0.17387009,0.07434082,-0.18160401,-0.27506104,79.0
653,-1.1169043,-0.8007736,0.04607773,0.07434082,-0.18160401,-0.27506104,79.0
654,-1.1169043,-0.8007736,0.04607773,0.7126099,-0.14868164,-0.07434082,79.0
655,-1.3320847,-0.22897339,-0.3547287,0.7126099,-0.14868164,-0.07434082,79.0
656,-1.3320847,-0.22897339,-0.3547287,1.173523,-0.06265869,0.14018555,79.0
657,-1.3320847,-0.22897339,-0.3547287,1.173523,-0.06265869,0.14018555,80.0
658,-1.2386656,0.4786148,-0.71320343,1.173523,-0.06265869,0.14018555,80.0
659,-1.2386656,0.4786148,-0.71320343,1.2712281,0.04991455,0.33240968,80.0
660,-1.0494404,0.99850464,-0.8495331,1.2712281,0.04991455,0.33240968,80.0
661,-1.0494404,0.99850464,-0.8495331,1.1724609,0.18160401,0.46409914,80.0
662,-0.8582535,1.1311264,-0.72286224,1.1724609,0.18160401,0.46409914,80.0
663,-0.8582535,1.1311264,-0.72286224,0.9876709,0.32816163,0.5501221,80.0
664,-0.72977924,0.95858765,-0.38668823,0.9876709,0.32816163,0.5501221,80.0
665,-0.72977924,0.95858765,-0.38668823,0.75721437,0.4970215,0.6064087,80.0
666,-0.7048321,0.6365509,-0.060523987,0.75721437,0.4970215,0.6064087,80.0
667,-0.7048321,0.6365509,-0.060523987,0.56605226,0.6435791,0.63933104,80.0
668,-0.7890606,0.281662,0.06513977,0.56605226,0.6435791,0.63933104,80.0
669,-0.7890606,0.281662,0.06513977,0.4343628,0.72854006,0.6552612,80.0
670,-0.88194466,-0.025550842,0.029380798,0.4343628,0.72854006,0.6552612,80.0
671,-0.88194466,-0.025550842,0.029380798,0.41949463,0.7434082,0.6287109,80.0
672,-0.8752823,-0.23451996,-0.0013504028,0.41949463,0.7434082,0.6287109,80.0
673,-0.8752823,-0.23451996,-0.0013504028,0.44498292,0.7434082,0.56392825,80.0
674,-0.8135071,-0.29960632,0.066082,0.44498292,0.7434082,0.56392825,80.0
675,-0.8135071,-0.29960632,0.066082,0.43011475,0.7476563,0.47578126,80.0
676,-0.8564701,-0.2695923,0.20404816,0.43011475,0.7476563,0.47578126,80.0
677,-0.8564701,-0.2695923,0.20404816,0.40356445,0.7189819,0.39188233,80.0
678,-1.0546227,-0.1987915,0.3404503,0.40356445,0.7189819,0.39188233,80.0
679,-1.0546227,-0.1987915,0.3404503,0.3717041,0.63933104,0.31010744,80.0
680,-1.2530851,-0.14554596,0.4187088,0.3717041,0.63933104,0.31010744,80.0
681,-1.2530851,-0.14554596,0.4187088,0.39613038,0.5140137,0.2347046,80.0
682,-1.2928123,-0.10411835,0.45103073,0.39613038,0.5140137,0.2347046,80.0
683,-1.2928123,-0.10411835,0.45103073,0.4598511,0.37701416,0.14549561,80.0
684,-1.1233616,-0.0772171,0.47909927,0.4598511,0.37701416,0.14549561,80.0
685,-1.1233616,-0.0772171,0.47909927,0.5384399,0.24532472,0.038232423,80.0
686,-0.75545216,-0.068367004,0.5184326,0.5384399,0.24532472,0.038232423,80.0
687,-0.75545216,-0.068367004,0.5184326,0.6085327,0.14868164,-0.07434082,80.0
688,-0.32991123,-0.026374817,0.5274887,0.6085327,0.14868164,-0.07434082,80.0
689,-0.32991123,-0.026374817,0.5274887,0.61702883,0.09664307,-0.16992188,80.0
690,0.052282333,0.06475067,0.45480347,0.61702883,0.09664307,-0.16992188,80.0
691,0.052282333,0.06475067,0.45480347,0.5607422,0.040356446,-0.25700685,80.0
692,0.4845991,0.16126251,0.33444977,0.5607422,0.040356446,-0.25700685,80.0
693,0.4845991,0.16126251,0.33444977,0.4694092,-0.004248047,-0.35895997,80.0
694,1.1141682,0.20330048,0.25226593,0.4694092,-0.004248047,-0.35895997,80.0
695,1.1141682,0.20330048,0.25226593,0.3079834,-0.043542482,-0.46516114,80.0
696,1.8301287,0.20741272,0.26008987,0.3079834,-0.043542482,-0.46516114,80.0
697,1.8301287,0.20741272,0.26008987,0.090270996,0.0010620117,-0.5649902,80.0
698,2.1579876,0.19155121,0.32910538,0.090270996,0.0010620117,-0.5649902,80.0
699,2.1579876,0.19155121,0.32910538,-0.16036378,0.06690674,-0.5957886,80.0
700,1.8654652,0.18756866,0.37709045,-0.16036378,0.06690674,-0.5957886,80.0
701,1.8654652,0.18756866,0.37709045,-0.42268068,0.087084964,-0.5607422,80.0
702,1.3944111,0.22335815,0.3332634,-0.42268068,0.087084964,-0.5607422,80.0
703,1.3944111,0.22335815,0.3332634,-0.66481936,0.059472658,-0.5055176,80.0
704,1.2645645,0.23339081,0.2674408,-0.66481936,0.059472658,-0.5055176,80.0
705,1.2645645,0.23339081,0.2674408,-0.85385746,0.038232423,-0.4704712,80.0
706,1.4189386,0.15461731,0.2751236,-0.85385746,0.038232423,-0.4704712,80.0
707,1.4189386,0.15461731,0.2751236,-0.99298096,0.07646485,-0.45347902,80.0
708,1.3154488,-0.008262634,0.35591507,-0.99298096,0.07646485,-0.45347902,80.0
709,1.3154488,-0.008262634,0.35591507,-1.088562,0.1731079,-0.3971924,80.0
710,0.39912415,-0.15966034,0.45044327,-1.088562,0.1731079,-0.3971924,80.0
711,0.39912415,-0.15966034,0.45044327,-1.0588257,0.2538208,-0.25063476,80.0
712,-1.0519161,-0.17211151,0.45267487,-1.0588257,0.2538208,-0.25063476,80.0
713,-1.0519161,-0.17211151,0.45267487,-0.8814697,0.18585205,-0.06690674,80.0
714,-1.9929857,-0.07156372,0.35734177,-0.8814697,0.18585205,-0.06690674,80.0
715,-1.9929857,-0.07156372,0.35734177,-0.5256958,0.038232423,0.093457036,80.0
716,-1.8803139,0.044387817,0.29535675,-0.5256958,0.038232423,0.093457036,80.0
717,-1.8803139,0.044387817,0.29535675,-0.14868164,-0.04991455,0.1985962,80.0
718,-1.0166407,0.16970062,0.28129196,-0.14868164,-0.04991455,0.1985962,80.0
719,-1.0166407,0.16970062,0.28129196,0.020178223,-0.0637207,0.26656494,80.0
720,-0.05989456,0.28700256,0.20032501,0.020178223,-0.0637207,0.26656494,80.0
721,-0.05989456,0.28700256,0.20032501,-0.016992187,0.0031860352,0.271875,80.0
722,0.4353361,0.3750229,0.048698425,-0.016992187,0.0031860352,0.271875,80.0
723,0.4353361,0.3750229,0.048698425,-0.22514649,0.11682129,0.2516968,80.0
724,0.22090054,0.39247894,-0.061965942,-0.22514649,0.11682129,0.2516968,80.0
725,0.22090054,0.39247894,-0.061965942,-0.46728516,0.20603028,0.23258057,80.0
726,-0.48713493,0.28925323,-0.09189606,-0.46728516,0.20603028,0.23258057,80.0
727,-0.48713493,0.28925323,-0.09189606,-0.630835,0.22727051,0.21558838,80.0
728,-1.1939564,0.09564972,-0.13320923,-0.630835,0.22727051,0.21558838,80.0
729,-1.1939564,0.09564972,-0.13320923,-0.65632325,0.1731079,0.20921631,80.0
730,-1.549099,-0.13180542,-0.18919754,-0.65632325,0.1731079,0.20921631,80.0
731,-1.549099,-0.13180542,-0.18919754,-0.5628662,0.04991455,0.18903808,80.0
732,-1.4818459,-0.306839,-0.20743561,-0.5628662,0.04991455,0.18903808,80.0
733,-1.4818459,-0.306839,-0.20743561,-0.39400634,-0.10513916,0.13168946,80.0
734,-1.1212063,-0.4017334,-0.1324768,-0.39400634,-0.10513916,0.13168946,80.0
735,-1.1212063,-0.4017334,-0.1324768,-0.22514649,-0.25063476,0.058410645,80.0
736,-0.71423817,-0.40981293,0.012573242,-0.22514649,-0.25063476,0.058410645,80.0
737,-0.71423817,-0.40981293,0.012573242,-0.06796875,-0.36851808,-0.019116212,80.0
738,-0.4589634,-0.32351685,0.15618896,-0.06796875,-0.36851808,-0.019116212,80.0
739,-0.4589634,-0.32351685,0.15618896,0.040356446,-0.4694092,-0.08071289,80.0
740,-0.39193916,-0.17248535,0.18066406,0.040356446,-0.4694092,-0.08071289,80.0
741,-0.39193916,-0.17248535,0.18066406,0.14655761,-0.55543214,-0.12531738,80.0
742,-0.41239166,-0.022964478,0.084033966,0.14655761,-0.55543214,-0.12531738,80.0
743,-0.41239166,-0.022964478,0.084033966,0.24532472,-0.635083,-0.14868164,80.0
744,-0.36710835,0.10203552,-0.0054779053,0.24532472,-0.635083,-0.14868164,80.0
745,-0.36710835,0.10203552,-0.0054779053,0.29948732,-0.68712157,-0.14655761,80.0
746,-0.19478512,0.18428802,-0.033584595,0.29948732,-0.68712157,-0.14655761,80.0
747,-0.19478512,0.18428802,-0.033584595,0.30267334,-0.6977417,-0.13062744,80.0
748,-0.19478512,0.18428802,-0.033584595,0.30267334,-0.6977417,-0.13062744,80.0
749,0.067976,0.20289612,-0.05999756,0.30267334,-0.6977417,-0.13062744,80.0
750,0.067976,0.20289612,-0.05999756,0.29099122,-0.6881836,-0.13062744,80.0
751,0.35077953,0.1583023,-0.14252853,0.29099122,-0.6881836,-0.13062744,80.0
752,0.35077953,0.1583023,-0.14252853,0.26550293,-0.6796875,-0.1539917,80.0
753,0.70505047,0.070487976,-0.2891693,0.26550293,-0.6796875,-0.1539917,80.0
754,0.70505047,0.070487976,-0.2891693,0.21877442,-0.69136965,-0.20390625,80.0
755,1.2717304,-0.058303833,-0.41153717,0.21877442,-0.69136965,-0.20390625,80.0
756,1.2717304,-0.058303833,-0.41153717,0.18372802,-0.70198977,-0.29099122,80.0
757,2.0248919,-0.21913147,-0.40318298,0.18372802,-0.70198977,-0.29099122,80.0
758,2.0248919,-0.21913147,-0.40318298,0.16354981,-0.6531372,-0.3982544,80.0
759,2.5911903,-0.33824158,-0.30173492,0.16354981,-0.6531372,-0.3982544,80.0
760,2.5911903,-0.33824158,-0.30173492,0.057348635,-0.5235718,-0.45029297,80.0
761,2.5780792,-0.27545166,-0.3589058,0.057348635,-0.5235718,-0.45029297,80.0
762,2.5780792,-0.27545166,-0.3589058,-0.21558838,-0.42905274,-0.41418457,80.0
763,2.1911135,-0.112327576,-0.66241837,-0.21558838,-0.42905274,-0.41418457,80.0
764,2.1911135,-0.112327576,-0.66241837,-0.58410645,-0.4067505,-0.35152587,80.0
765,1.8790874,-0.09159851,-0.95122147,-0.58410645,-0.4067505,-0.35152587,80.0
766,1.8790874,-0.09159851,-0.95122147,-0.7827026,-0.39613038,-0.3430298,80.0
767,1.668333,-0.32932281,-0.9590225,-0.7827026,-0.39613038,-0.3430298,80.0
768,1.668333,-0.32932281,-0.9590225,-0.80606693,-0.39082032,-0.38444826,80.0
769,1.2752428,-0.74121857,-0.5951729,-0.80606693,-0.39082032,-0.38444826,80.0
770,1.2752428,-0.74121857,-0.5951729,-0.50870365,-0.37807617,-0.42799073,80.0
771,0.53336525,-1.094902,-0.07340622,-0.50870365,-0.37807617,-0.42799073,80.0
772,0.53336525,-1.094902,-0.07340622,0.023364259,-0.33984375,-0.37595215,80.0
773,-0.33956814,-1.1324234,0.17111969,0.023364259,-0.33984375,-0.37595215,80.0
774,-0.33956814,-1.1324234,0.17111969,0.60109866,-0.3164795,-0.21877442,80.0
775,-0.90592,-0.84163666,-0.06695175,0.60109866,-0.3164795,-0.21877442,80.0
776,-0.90592,-0.84163666,-0.06695175,1.2117554,-0.26656494,-0.025488282,80.0
777,-1.0319262,-0.2770462,-0.55976105,1.2117554,-0.26656494,-0.025488282,80.0
778,-1.0319262,-0.2770462,-0.55976105,1.634436,-0.16673584,0.18160401,80.0
779,-0.96969414,0.40898132,-0.9339905,1.634436,-0.16673584,0.18160401,80.0
780,-0.96969414,0.40898132,-0.9339905,1.7406372,-0.05522461,0.35471192,80.0
781,-0.8923445,0.9157486,-1.0300407,1.7406372,-0.05522461,0.35471192,80.0
782,-0.8923445,0.9157486,-1.0300407,1.6461182,0.05522461,0.46516114,80.0
783,-0.78547,1.0766144,-0.8328819,1.6461182,0.05522461,0.46516114,80.0
784,-0.78547,1.0766144,-0.8328819,1.450708,0.1720459,0.52675784,80.0
785,-0.69562435,0.9278946,-0.4101677,1.450708,0.1720459,0.52675784,80.0
786,-0.69562435,0.9278946,-0.4101677,1.2531738,0.29417726,0.5511841,80.0
787,-0.7494068,0.58699036,0.037075043,1.2531738,0.29417726,0.5511841,80.0
788,-0.7494068,0.58699036,0.037075043,1.1098022,0.40462646,0.5692383,80.0
789,-0.8999653,0.22088623,0.31220245,1.1098022,0.40462646,0.5692383,80.0
790,-0.8999653,0.22088623,0.31220245,1.0195312,0.4598511,0.59897465,80.0
791,-0.9777117,-0.051818848,0.37479782,1.0195312,0.4598511,0.59897465,80.0
792,-0.9777117,-0.051818848,0.37479782,0.98236084,0.49277344,0.60322267,80.0
793,-0.90721893,-0.16866302,0.32449722,0.98236084,0.49277344,0.60322267,80.0
794,-0.90721893,-0.16866302,0.32449722,0.998291,0.4980835,0.58198243,80.0
795,-0.77333355,-0.15583038,0.2720604,0.998291,0.4980835,0.58198243,80.0
796,-0.77333355,-0.15583038,0.2720604,1.0269654,0.50020754,0.52675784,80.0
797,-0.7024193,-0.071769714,0.28169632,1.0269654,0.50020754,0.52675784,80.0
798,-0.7024193,-0.071769714,0.28169632,1.0174073,0.5076416,0.45878908,80.0
799,-0.7468357,0.04118347,0.3411789,1.0174073,0.5076416,0.45878908,80.0
800,-0.7468357,0.04118347,0.3411789,0.9589966,0.5129517,0.3982544,80.0
801,-0.8682699,0.14064789,0.39868546,0.9589966,0.5129517,0.3982544,80.0
802,-0.8682699,0.14064789,0.39868546,0.86341554,0.5129517,0.33984375,80.0
803,-0.989892,0.20838928,0.42509842,0.86341554,0.5129517,0.33984375,80.0
804,-0.989892,0.20838928,0.42509842,0.75296634,0.50445557,0.2888672,80.0
805,-0.9959421,0.20423889,0.4202652,0.75296634,0.50445557,0.2888672,80.0
806,-0.9959421,0.20423889,0.4202652,0.6425171,0.4800293,0.22833252,80.0
807,-0.8007946,0.14445496,0.40244675,0.6425171,0.4800293,0.22833252,80.0
808,-0.8007946,0.14445496,0.40244675,0.54693604,0.4598511,0.15186767,80.0
809,-0.4520979,0.0787735,0.41812515,0.54693604,0.4598511,0.15186767,80.0
810,-0.4520979,0.0787735,0.41812515,0.45135498,0.44923097,0.0722168,80.0
811,-0.0908041,0.023490906,0.42776108,0.45135498,0.44923097,0.0722168,80.0
812,-0.0908041,0.023490906,0.42776108,0.33878174,0.42374268,-0.012744141,80.0
813,0.2936163,-0.019561768,0.35956573,0.33878174,0.42374268,-0.012744141,80.0
814,0.2936163,-0.019561768,0.35956573,0.20603028,0.37489015,-0.11363526,80.0
815,0.83956814,-0.048950195,0.23741913,0.20603028,0.37489015,-0.11363526,80.0
816,0.83956814,-0.048950195,0.23741913,0.029736329,0.3355957,-0.21983643,80.0
817,1.4506464,-0.07985687,0.16300583,0.029736329,0.3355957,-0.21983643,80.0
818,1.4506464,-0.07985687,0.16300583,-0.18691407,0.33984375,-0.2984253,80.0
819,1.6995668,-0.13095856,0.14135742,-0.18691407,0.33984375,-0.2984253,80.0
820,1.6995668,-0.13095856,0.14135742,-0.39082032,0.35152587,-0.3164795,80.0
821,1.3286362,-0.18494415,0.11291504,-0.39082032,0.35152587,-0.3164795,80.0
822,1.3286362,-0.18494415,0.11291504,-0.5522461,0.26868898,-0.29099122,80.0
823,0.7408991,-0.20806122,0.118320465,-0.5522461,0.26868898,-0.29099122,80.0
824,0.7408991,-0.20806122,0.118320465,-0.6053467,0.10620117,-0.26868898,80.0
825,0.5184269,-0.17371368,0.25901031,-0.6053467,0.10620117,-0.26868898,80.0
826,0.5184269,-0.17371368,0.25901031,-0.6265869,-0.057348635,-0.27293703,80.0
827,0.7409744,-0.09009552,0.50964737,-0.6265869,-0.057348635,-0.27293703,80.0
828,0.7409744,-0.09009552,0.50964737,-0.6945557,-0.1529297,-0.30373535,80.0
829,0.9333191,-0.06389618,0.72224426,-0.6945557,-0.1529297,-0.30373535,80.0
830,0.9333191,-0.06389618,0.72224426,-0.7742066,-0.16885987,-0.32497558,80.0
831,0.46715164,-0.11148071,0.7845459,-0.7742066,-0.16885987,-0.32497558,80.0
832,0.46715164,-0.11148071,0.7845459,-0.7965088,-0.12213135,-0.2793091,80.0
833,-0.68605614,-0.1300888,0.6717262,-0.7965088,-0.12213135,-0.2793091,80.0
834,-0.68605614,-0.1300888,0.6717262,-0.7062378,-0.15930176,-0.16885987,80.0
835,-1.6781178,-0.06455994,0.4593048,-0.7062378,-0.15930176,-0.16885987,80.0
836,-1.6781178,-0.06455994,0.4593048,-0.45029297,-0.26975098,-0.058410645,80.0
837,-1.7774429,0.043174744,0.31031418,-0.45029297,-0.26975098,-0.058410645,80.0
838,-1.7774429,0.043174744,0.31031418,-0.15930176,-0.3536499,0.014868164,80.0
839,-1.0095634,0.17687225,0.22882843,-0.15930176,-0.3536499,0.014868164,80.0
840,-1.0095634,0.17687225,0.22882843,-0.025488282,-0.3727661,0.07115479,80.0
841,0.069545746,0.28871155,0.09473419,-0.025488282,-0.3727661,0.07115479,80.0
842,0.069545746,0.28871155,0.09473419,-0.10513916,-0.3090454,0.070092775,80.0
843,0.8501682,0.29881287,-0.0978241,-0.10513916,-0.3090454,0.070092775,80.0
844,0.8501682,0.29881287,-0.0978241,-0.33240968,-0.18266602,0.04885254,80.0
845,0.89745617,0.20714569,-0.23081207,-0.33240968,-0.18266602,0.04885254,80.0
846,0.89745617,0.20714569,-0.23081207,-0.58410645,-0.057348635,0.035046387,80.0
847,0.23372364,0.058998108,-0.27261353,-0.58410645,-0.057348635,0.035046387,80.0
848,0.23372364,0.058998108,-0.27261353,-0.725354,-0.025488282,0.014868164,80.0
849,-0.6014862,-0.10942078,-0.28809738,-0.725354,-0.025488282,0.014868164,80.0
850,-0.6014862,-0.10942078,-0.28809738,-0.6924316,-0.07646485,-0.0031860352,80.0
851,-0.6014862,-0.10942078,-0.28809738,-0.6924316,-0.07646485,-0.0031860352,81.0
852,-1.108777,-0.2379303,-0.29674911,-0.6924316,-0.07646485,-0.0031860352,81.0
853,-1.108777,-0.2379303,-0.29674911,-0.5628662,-0.19541016,-0.03186035,81.0
854,-1.1876068,-0.30400085,-0.22226334,-0.5628662,-0.19541016,-0.03186035,81.0
855,-1.1876068,-0.30400085,-0.22226334,-0.39613038,-0.3175415,-0.0722168,81.0
856,-1.0115595,-0.3377304,-0.048194885,-0.39613038,-0.3175415,-0.0722168,81.0
857,-1.0115595,-0.3377304,-0.048194885,-0.22514649,-0.42692873,-0.1263794,81.0
858,-0.8163643,-0.32738495,0.10747528,-0.22514649,-0.42692873,-0.1263794,81.0
859,-0.8163643,-0.32738495,0.10747528,-0.070092775,-0.51932377,-0.17735596,81.0
860,-0.70177364,-0.2352829,0.12362671,-0.070092775,-0.51932377,-0.17735596,81.0
861,-0.70177364,-0.2352829,0.12362671,0.09451904,-0.5979126,-0.23151855,81.0
862,-0.61914635,-0.08867645,0.007347107,0.09451904,-0.5979126,-0.23151855,81.0
863,-0.61914635,-0.08867645,0.007347107,0.23364258,-0.6488892,-0.26550293,81.0
864,-0.5028372,0.06686401,-0.114349365,0.23364258,-0.6488892,-0.26550293,81.0
865,-0.5028372,0.06686401,-0.114349365,0.31860352,-0.67331547,-0.27718505,81.0
866,-0.34971905,0.20678711,-0.17142487,0.31860352,-0.67331547,-0.27718505,81.0
867,-0.34971905,0.20678711,-0.17142487,0.36639404,-0.67331547,-0.270813,81.0
868,-0.16026878,0.30151367,-0.19284058,0.36639404,-0.67331547,-0.270813,81.0
869,-0.16026878,0.30151367,-0.19284058,0.36427003,-0.6605713,-0.25913087,81.0
870,0.09677315,0.32216644,-0.23881531,0.36427003,-0.6605713,-0.25913087,81.0
871,0.09677315,0.32216644,-0.23881531,0.3345337,-0.62977296,-0.2548828,81.0
872,0.38220406,0.27824402,-0.34339905,0.3345337,-0.62977296,-0.2548828,81.0
873,0.38220406,0.27824402,-0.34339905,0.2888672,-0.6042847,-0.27293703,81.0
874,0.71934986,0.15655518,-0.49261475,0.2888672,-0.6042847,-0.27293703,81.0
875,0.71934986,0.15655518,-0.49261475,0.26868898,-0.630835,-0.32391357,81.0
876,1.3003578,-0.04561615,-0.5938225,0.26868898,-0.630835,-0.32391357,81.0
877,1.3003578,-0.04561615,-0.5938225,0.31860352,-0.6711914,-0.4354248,81.0
878,2.1349392,-0.25780487,-0.5368042,0.31860352,-0.6711914,-0.4354248,81.0
879,2.1349392,-0.25780487,-0.5368042,0.3727661,-0.6435791,-0.56180423,81.0
880,2.7595139,-0.3730011,-0.3840332,0.3727661,-0.6435791,-0.56180423,81.0
881,2.7595139,-0.3730011,-0.3840332,0.32178956,-0.5320679,-0.6265869,81.0
882,2.693243,-0.29546356,-0.3826294,0.32178956,-0.5320679,-0.6265869,81.0
883,2.693243,-0.29546356,-0.3826294,0.1178833,-0.47365722,-0.5872925,81.0
884,2.1674004,-0.14454651,-0.5602875,0.1178833,-0.47365722,-0.5872925,81.0
885,2.1674004,-0.14454651,-0.5602875,-0.09451904,-0.4959595,-0.5097656,81.0
886,1.7308197,-0.13124084,-0.6237793,-0.09451904,-0.4959595,-0.5097656,81.0
887,1.7308197,-0.13124084,-0.6237793,-0.10089111,-0.5065796,-0.46516114,81.0
888,1.4984856,-0.34028625,-0.43182373,-0.10089111,-0.5065796,-0.46516114,81.0
889,1.4984856,-0.34028625,-0.43182373,0.1274414,-0.4980835,-0.4694092,81.0
890,1.2585173,-0.6911392,-0.12817383,0.1274414,-0.4980835,-0.4694092,81.0
891,1.2585173,-0.6911392,-0.12817383,0.59260255,-0.4258667,-0.4725952,81.0
892,0.68746567,-0.89211273,0.06556702,0.59260255,-0.4258667,-0.4725952,81.0
893,0.68746567,-0.89211273,0.06556702,1.083252,-0.32072756,-0.37807617,81.0
894,-0.21319866,-0.75904846,-0.020702362,1.083252,-0.32072756,-0.37807617,81.0
895,-0.21319866,-0.75904846,-0.020702362,1.5664673,-0.24213867,-0.21240234,81.0
896,-0.992239,-0.3481598,-0.3143425,1.5664673,-0.24213867,-0.21240234,81.0
897,-0.992239,-0.3481598,-0.3143425,2.0316284,-0.17735596,-0.019116212,81.0
898,-0.992239,-0.3481598,-0.3143425,2.3619142,-0.087084964,0.16567384,81.0
899,-1.3556566,0.21583557,-0.5917816,2.3619142,-0.087084964,0.16567384,81.0
900,-1.3550329,0.7558212,-0.7244034,2.3619142,-0.087084964,0.16567384,81.0
901,-1.3550329,0.7558212,-0.7244034,2.4829834,0.007434082,0.31116945,81.0
902,-1.1304989,1.1090164,-0.69664764,2.4829834,0.007434082,0.31116945,81.0
903,-1.1304989,1.1090164,-0.69664764,2.3905885,0.10938721,0.40250245,81.0
904,-0.78987217,1.202507,-0.4915352,2.3905885,0.10938721,0.40250245,81.0
905,-0.78987217,1.202507,-0.4915352,2.1781862,0.23258057,0.4354248,81.0
906,-0.50450516,1.0516129,-0.15253067,2.1781862,0.23258057,0.4354248,81.0
907,-0.50450516,1.0516129,-0.15253067,1.9254273,0.37382814,0.4322388,81.0
908,-0.38999367,0.7441559,0.19264984,1.9254273,0.37382814,0.4322388,81.0
909,-0.38999367,0.7441559,0.19264984,1.6811646,0.5076416,0.42374268,81.0
910,-0.4211626,0.39722443,0.3891678,1.6811646,0.5076416,0.42374268,81.0
911,-0.4211626,0.39722443,0.3891678,1.4666382,0.631897,0.42905274,81.0
912,-0.53517246,0.12793732,0.37888718,1.4666382,0.631897,0.42905274,81.0
913,-0.53517246,0.12793732,0.37888718,1.3200806,0.7062378,0.4428589,81.0
914,-0.6453495,0.0077209473,0.24570084,1.3200806,0.7062378,0.4428589,81.0
915,-0.6453495,0.0077209473,0.24570084,1.2414917,0.7391602,0.4343628,81.0
916,-0.70102024,0.011192322,0.10203934,1.2414917,0.7391602,0.4343628,81.0
917,-0.70102024,0.011192322,0.10203934,1.2085694,0.7582764,0.40250245,81.0
918,-0.73453426,0.054885864,0.06224823,1.2085694,0.7582764,0.40250245,81.0
919,-0.73453426,0.054885864,0.06224823,1.183081,0.75296634,0.3536499,81.0
920,-0.78754234,0.09661865,0.15601349,1.183081,0.75296634,0.3536499,81.0
921,-0.78754234,0.09661865,0.15601349,1.1331666,0.73703617,0.29948732,81.0
922,-0.8938408,0.14241791,0.34132767,1.1331666,0.73703617,0.29948732,81.0
923,-0.8938408,0.14241791,0.34132767,1.0567017,0.7051758,0.25700685,81.0
924,-1.0046482,0.17951202,0.535511,1.0567017,0.7051758,0.25700685,81.0
925,-1.0046482,0.17951202,0.535511,0.95368654,0.66588134,0.22939454,81.0
926,-1.0340652,0.18938446,0.6626892,0.95368654,0.66588134,0.22939454,81.0
927,-1.0340652,0.18938446,0.6626892,0.86766356,0.6085327,0.20072022,81.0
928,-0.9283514,0.1669159,0.6752548,0.86766356,0.6085327,0.20072022,81.0
929,-0.9283514,0.1669159,0.6752548,0.811377,0.5522461,0.16354981,81.0
930,-0.66376305,0.14011383,0.60188293,0.811377,0.5522461,0.16354981,81.0
931,-0.66376305,0.14011383,0.60188293,0.7742066,0.49383545,0.115759276,81.0
932,-0.20488739,0.12362671,0.51171875,0.7742066,0.49383545,0.115759276,81.0
933,-0.20488739,0.12362671,0.51171875,0.7168579,0.43011475,0.04141846,81.0
934,0.49815083,0.11908722,0.40766907,0.7168579,0.43011475,0.04141846,81.0
935,0.49815083,0.11908722,0.40766907,0.5915405,0.38869628,-0.059472658,81.0
936,1.3497171,0.11979675,0.33364105,0.5915405,0.38869628,-0.059472658,81.0
937,1.3497171,0.11979675,0.33364105,0.37382814,0.38232422,-0.14974366,81.0
938,1.9613895,0.09409332,0.3163147,0.37382814,0.38232422,-0.14974366,81.0
939,1.9613895,0.09409332,0.3163147,0.087084964,0.44604492,-0.18372802,81.0
940,1.8335772,0.07888794,0.31013107,0.087084964,0.44604492,-0.18372802,81.0
941,1.8335772,0.07888794,0.31013107,-0.22089843,0.45878908,-0.13062744,81.0
942,1.0246258,0.09767151,0.3152809,-0.22089843,0.45878908,-0.13062744,81.0
943,1.0246258,0.09767151,0.3152809,-0.47790527,0.362146,-0.0180542,81.0
944,0.1434803,0.112075806,0.43424225,-0.47790527,0.362146,-0.0180542,81.0
945,0.1434803,0.112075806,0.43424225,-0.5968506,0.17735596,0.087084964,81.0
946,-0.22454643,0.08403778,0.71328735,-0.5968506,0.17735596,0.087084964,81.0
947,-0.22454643,0.08403778,0.71328735,-0.6244629,-0.015930176,0.15080567,81.0
948,-0.014037132,-0.028121948,0.98555756,-0.6244629,-0.015930176,0.15080567,81.0
949,-0.014037132,-0.028121948,0.98555756,-0.5851685,-0.14868164,0.16248779,81.0
950,0.034924507,-0.20346832,1.0966492,-0.5851685,-0.14868164,0.16248779,81.0
951,0.034924507,-0.20346832,1.0966492,-0.45454103,-0.19647217,0.1709839,81.0
952,-0.6565323,-0.23207092,1.0052834,-0.45454103,-0.19647217,0.1709839,81.0
953,-0.6565323,-0.23207092,1.0052834,-0.32709962,-0.29630128,0.2347046,81.0
954,-1.5775213,-0.031837463,0.79873276,-0.32709962,-0.29630128,0.2347046,81.0
955,-1.5775213,-0.031837463,0.79873276,-0.14549561,-0.45666504,0.28780517,81.0
956,-1.8750906,0.2250061,0.6543541,-0.14549561,-0.45666504,0.28780517,81.0
957,-1.8750906,0.2250061,0.6543541,0.07115479,-0.6138428,0.30054933,81.0
958,-1.3118525,0.37969208,0.61945343,0.07115479,-0.6138428,0.30054933,81.0
959,-1.3118525,0.37969208,0.61945343,0.16248779,-0.7062378,0.2888672,81.0
960,-0.2644472,0.36566925,0.5075226,0.16248779,-0.7062378,0.2888672,81.0
961,-0.2644472,0.36566925,0.5075226,0.087084964,-0.72323,0.23258057,81.0
962,-0.2644472,0.36566925,0.5075226,0.087084964,-0.72323,0.23258057,81.0
963,0.7125149,0.2006073,0.23846436,0.087084964,-0.72323,0.23258057,81.0
964,0.7125149,0.2006073,0.23846436,-0.098767094,-0.6531372,0.15186767,81.0
965,1.1321831,-0.008384705,-0.060424805,-0.098767094,-0.6531372,0.15186767,81.0
966,1.1321831,-0.008384705,-0.060424805,-0.35577393,-0.5299439,0.078588866,81.0
967,0.78782654,-0.1625061,-0.24344635,-0.35577393,-0.5299439,0.078588866,81.0
968,0.78782654,-0.1625061,-0.24344635,-0.56817627,-0.45029297,0.033984374,81.0
969,-3.0517578E-4,-0.30610657,-0.30117798,-0.56817627,-0.45029297,0.033984374,81.0
970,-3.0517578E-4,-0.30610657,-0.30117798,-0.5894165,-0.4598511,0.004248047,81.0
971,-0.6623907,-0.43634033,-0.2972908,-0.5894165,-0.4598511,0.004248047,81.0
972,-0.6623907,-0.43634033,-0.2972908,-0.46409914,-0.5384399,-0.016992187,81.0
973,-0.91204166,-0.49139404,-0.26329803,-0.46409914,-0.5384399,-0.016992187,81.0
974,-0.91204166,-0.49139404,-0.26329803,-0.2824951,-0.64570314,-0.04248047,81.0
975,-0.8420725,-0.48693848,-0.2122879,-0.2824951,-0.64570314,-0.04248047,81.0
976,-0.8420725,-0.48693848,-0.2122879,-0.08814698,-0.74871826,-0.098767094,81.0
977,-0.68898964,-0.46533966,-0.17823029,-0.08814698,-0.74871826,-0.098767094,81.0
978,-0.68898964,-0.46533966,-0.17823029,0.09239502,-0.8496094,-0.15611573,81.0
979,-0.55818653,-0.40735626,-0.15664673,0.09239502,-0.8496094,-0.15611573,81.0
980,-0.55818653,-0.40735626,-0.15664673,0.28355715,-0.93563235,-0.21452637,81.0
981,-0.44272804,-0.2791214,-0.13439941,0.28355715,-0.93563235,-0.21452637,81.0
982,-0.44272804,-0.2791214,-0.13439941,0.46728516,-0.99510497,-0.26975098,81.0
983,-0.30039787,-0.09925079,-0.12214661,0.46728516,-0.99510497,-0.26975098,81.0
984,-0.30039787,-0.09925079,-0.12214661,0.6064087,-0.994043,-0.29948732,81.0
985,-0.13924408,0.092315674,-0.14829254,0.6064087,-0.994043,-0.29948732,81.0
986,-0.13924408,0.092315674,-0.14829254,0.6435791,-0.9600586,-0.30054933,81.0
987,0.062140465,0.24623871,-0.20155716,0.6435791,-0.9600586,-0.30054933,81.0
988,0.062140465,0.24623871,-0.20155716,0.5968506,-0.8878418,-0.28568116,81.0
989,0.30593777,0.34342957,-0.271183,0.5968506,-0.8878418,-0.28568116,81.0
990,0.30593777,0.34342957,-0.271183,0.47365722,-0.7784546,-0.25700685,81.0
991,0.5221672,0.37858582,-0.39829254,0.47365722,-0.7784546,-0.25700685,81.0
992,0.5221672,0.37858582,-0.39829254,0.30267334,-0.6414551,-0.2262085,81.0
993,0.66836834,0.32071686,-0.62490845,0.30267334,-0.6414551,-0.2262085,81.0
994,0.66836834,0.32071686,-0.62490845,0.13912354,-0.55543214,-0.2177124,81.0
995,0.9463892,0.13565826,-0.8710823,0.13912354,-0.55543214,-0.2177124,81.0
996,0.9463892,0.13565826,-0.8710823,0.070092775,-0.52250975,-0.26550293,81.0
997,1.5469179,-0.15068817,-0.96764374,0.070092775,-0.52250975,-0.26550293,81.0
998,1.5469179,-0.15068817,-0.96764374,0.06903076,-0.48215333,-0.3462158,81.0
999,2.2253885,-0.40990448,-0.91054153,0.06903076,-0.48215333,-0.3462158,81.0
1000,2.2253885,-0.40990448,-0.91054153,0.025488282,-0.4067505,-0.4258667,81.0
1001,2.6346931,-0.5356598,-0.87898254,0.025488282,-0.4067505,-0.4258667,81.0
1002,2.6346931,-0.5356598,-0.87898254,-0.10938721,-0.37701416,-0.45560303,81.0
1003,2.7745876,-0.5842056,-0.9540291,-0.10938721,-0.37701416,-0.45560303,81.0
1004,2.7745876,-0.5842056,-0.9540291,-0.2442627,-0.38232422,-0.47790527,81.0
1005,2.7260666,-0.69416046,-0.91739655,-0.2442627,-0.38232422,-0.47790527,81.0
1006,2.7260666,-0.69416046,-0.91739655,-0.20178223,-0.3706421,-0.5171997,81.0
1007,2.3011665,-0.87687683,-0.58496857,-0.20178223,-0.3706421,-0.5171997,81.0
1008,2.3011665,-0.87687683,-0.58496857,0.10407715,-0.3706421,-0.56180423,81.0
1009,1.3429966,-0.95949554,-0.117572784,0.10407715,-0.3706421,-0.56180423,81.0
1010,1.3429966,-0.95949554,-0.117572784,0.6223389,-0.37489015,-0.5256958,81.0
1011,0.098628044,-0.81220245,0.1765213,0.6223389,-0.37489015,-0.5256958,81.0
1012,0.098628044,-0.81220245,0.1765213,1.1182984,-0.38763428,-0.36851808,81.0
1013,-0.9755535,-0.52399445,0.13997269,1.1182984,-0.38763428,-0.36851808,81.0
1014,-0.9755535,-0.52399445,0.13997269,1.6662964,-0.3727661,-0.14337158,81.0
1015,-1.5471792,-0.18971252,-0.10682297,1.6662964,-0.3727661,-0.14337158,81.0
1016,-1.5471792,-0.18971252,-0.10682297,2.1399536,-0.32072756,0.11257324,81.0
1017,-1.5948477,0.24997711,-0.3691864,2.1399536,-0.32072756,0.11257324,81.0
1018,-1.5948477,0.24997711,-0.3691864,2.4224489,-0.19434814,0.3727661,81.0
1019,-1.3916864,0.73685455,-0.5793114,2.4224489,-0.19434814,0.3727661,81.0
1020,-1.3916864,0.73685455,-0.5793114,2.4797974,-0.043542482,0.5915405,81.0
1021,-1.0972481,1.0948029,-0.73802185,2.4797974,-0.043542482,0.5915405,81.0
1022,-1.0972481,1.0948029,-0.73802185,2.3810303,0.093457036,0.7391602,81.0
1023,-0.697073,1.2159805,-0.7135124,2.3810303,0.093457036,0.7391602,81.0
1024,-0.697073,1.2159805,-0.7135124,2.1951783,0.26762697,0.8050049,81.0
1025,-0.31061268,1.1366272,-0.44063187,2.1951783,0.26762697,0.8050049,81.0
1026,-0.31061268,1.1366272,-0.44063187,1.9190552,0.46728516,0.815625,81.0
1027,-0.14927197,0.9577179,-0.06867981,1.9190552,0.46728516,0.815625,81.0
1028,-0.14927197,0.9577179,-0.06867981,1.6025757,0.6510132,0.7954468,81.0
1029,-0.3169031,0.6848297,0.2409172,1.6025757,0.6510132,0.7954468,81.0
1030,-0.3169031,0.6848297,0.2409172,1.3073364,0.79119873,0.7625244,81.0
1031,-0.65537834,0.30129242,0.49386978,1.3073364,0.79119873,0.7625244,81.0
1032,-0.65537834,0.30129242,0.49386978,1.0959961,0.8623535,0.73809814,81.0
1033,-0.92165375,-0.051948547,0.71033096,1.0959961,0.8623535,0.73809814,81.0
1034,-0.92165375,-0.051948547,0.71033096,0.9759888,0.8963379,0.68712157,81.0
1035,-1.0590019,-0.23910522,0.82336426,0.9759888,0.8963379,0.68712157,81.0
1036,-1.0590019,-0.23910522,0.82336426,0.92713624,0.89421386,0.6223389,81.0
1037,-1.0228491,-0.27278137,0.8294296,0.92713624,0.89421386,0.6223389,81.0
1038,-1.0228491,-0.27278137,0.8294296,0.92713624,0.8750977,0.5787964,81.0
1039,-1.1565971,-0.26460266,0.63080597,0.92713624,0.8750977,0.5787964,81.0
1040,-1.1565971,-0.26460266,0.63080597,1.0290893,0.80181885,0.44073486,81.0
1041,-1.0735197,-0.2110138,0.5781441,1.0290893,0.80181885,0.44073486,81.0
1042,-1.0735197,-0.2110138,0.5781441,1.0726318,0.78376466,0.39613038,81.0
1043,-1.2210598,-0.016921997,0.38934708,1.0726318,0.78376466,0.39613038,81.0
1044,-1.2210598,-0.016921997,0.38934708,1.081128,0.7412842,0.29523927,81.0
1045,-1.1239424,0.08729553,0.41968155,1.081128,0.7412842,0.29523927,81.0
1046,-1.1239424,0.08729553,0.41968155,1.0450195,0.72854006,0.27293703,81.0
1047,-1.1478357,0.3587036,0.4027977,1.0450195,0.72854006,0.27293703,81.0
1048,-1.1478357,0.3587036,0.4027977,0.8421753,0.6924316,0.22302246,81.0
1049,-0.97792435,0.37495422,0.44532013,0.8421753,0.6924316,0.22302246,81.0
1050,-0.97792435,0.37495422,0.44532013,0.7508423,0.6701294,0.20603028,81.0
1051,-0.42517376,0.35365295,0.37773895,0.7508423,0.6701294,0.20603028,81.0
1052,-0.42517376,0.35365295,0.37773895,0.43117675,0.5851685,0.10513916,81.0
1053,-0.05200386,0.2501831,0.33960724,0.43117675,0.5851685,0.10513916,81.0
1054,-0.05200386,0.2501831,0.33960724,0.32178956,0.540564,0.045666505,81.0
1055,1.3979359,-0.0064697266,0.17673874,0.32178956,0.540564,0.045666505,81.0
1056,1.3979359,-0.0064697266,0.17673874,-0.019116212,0.4704712,-0.16992188,81.0
1057,1.552248,-0.081077576,0.16425323,-0.019116212,0.4704712,-0.16992188,81.0
1058,1.552248,-0.081077576,0.16425323,-0.019116212,0.4704712,-0.16992188,82.0
1059,1.552248,-0.081077576,0.16425323,-0.13381349,0.45878908,-0.22514649,82.0
1060,1.5083389,-0.2469101,0.17268372,-0.13381349,0.45878908,-0.22514649,82.0
1061,1.5083389,-0.2469101,0.17268372,-0.44816896,0.29311523,-0.32178956,82.0
1062,0.9822693,-0.20575714,0.19477463,-0.44816896,0.29311523,-0.32178956,82.0
1063,0.9822693,-0.20575714,0.19477463,-0.5299439,0.18585205,-0.33028564,82.0
1064,0.10985184,-0.11730194,0.5744705,-0.5299439,0.18585205,-0.33028564,82.0
1065,0.10985184,-0.11730194,0.5744705,-0.6690674,-0.15611573,-0.3462158,82.0
1066,0.035842896,-0.06616974,0.60910034,-0.6690674,-0.15611573,-0.3462158,82.0
1067,0.035842896,-0.06616974,0.60910034,-0.6966797,-0.26019287,-0.35577393,82.0
1068,0.24781513,-0.08856964,0.89222336,-0.6966797,-0.26019287,-0.35577393,82.0
1069,0.24781513,-0.08856964,0.89222336,-0.6945557,-0.5033936,-0.3982544,82.0
1070,0.3576393,-0.11885071,0.68358994,-0.6945557,-0.5033936,-0.3982544,82.0
1071,0.3576393,-0.11885071,0.68358994,-0.6637573,-0.55543214,-0.4088745,82.0
1072,0.33768559,-0.18611145,0.5537071,-0.6637573,-0.55543214,-0.4088745,82.0
1073,0.33768559,-0.18611145,0.5537071,-0.60216063,-0.5872925,-0.38975832,82.0
1074,-0.17861843,-0.1108017,0.46017838,-0.60216063,-0.5872925,-0.38975832,82.0
1075,-0.17861843,-0.1108017,0.46017838,-0.544812,-0.6435791,-0.3164795,82.0
1076,-0.7579212,0.06135559,0.39524078,-0.544812,-0.6435791,-0.3164795,82.0
1077,-0.7579212,0.06135559,0.39524078,-0.42268068,-0.72854006,-0.2347046,82.0
1078,-0.7811785,0.21655273,0.3646927,-0.42268068,-0.72854006,-0.2347046,82.0
1079,-0.7811785,0.21655273,0.3646927,-0.3090454,-0.7805786,-0.14337158,82.0
1080,0.21225166,0.39437103,0.43465042,-0.3090454,-0.7805786,-0.14337158,82.0
1081,0.21225166,0.39437103,0.43465042,-0.38232422,-0.6881836,-0.023364259,82.0
1082,0.59951305,0.37065887,0.26246643,-0.38232422,-0.6881836,-0.023364259,82.0
1083,0.59951305,0.37065887,0.26246643,-0.48321533,-0.61702883,0.010620117,82.0
1084,1.1670494,0.4055481,-0.017139435,-0.48321533,-0.61702883,0.010620117,82.0
1085,1.1670494,0.4055481,-0.017139435,-0.7805786,-0.41949463,0.07327881,82.0
1086,1.0756559,0.3583603,-0.35739136,-0.7805786,-0.41949463,0.07327881,82.0
1087,1.0756559,0.3583603,-0.35739136,-1.1406006,-0.21452637,0.14018555,82.0
1088,0.28466988,0.21951294,-0.5586815,-1.1406006,-0.21452637,0.14018555,82.0
1089,0.28466988,0.21951294,-0.5586815,-1.3763672,-0.118945315,0.16885987,82.0
1090,-0.69804573,-0.03025055,-0.55187607,-1.3763672,-0.118945315,0.16885987,82.0
1091,-0.69804573,-0.03025055,-0.55187607,-1.4156617,-0.11682129,0.16673584,82.0
1092,-1.3134537,-0.2690735,-0.41040802,-1.4156617,-0.11682129,0.16673584,82.0
1093,-1.3134537,-0.2690735,-0.41040802,-1.3668091,-0.17416993,0.13699952,82.0
1094,-1.4452457,-0.43229675,-0.24126434,-1.3668091,-0.17416993,0.13699952,82.0
1095,-1.4452457,-0.43229675,-0.24126434,-1.2351197,-0.24957275,0.060534667,82.0
1096,-1.3063679,-0.5443878,-0.10414505,-1.2351197,-0.24957275,0.060534667,82.0
1097,-1.3063679,-0.5443878,-0.10414505,-1.0588257,-0.34090576,-0.050976563,82.0
1098,-1.1098528,-0.59194183,-0.035282135,-1.0588257,-0.34090576,-0.050976563,82.0
1099,-1.1098528,-0.59194183,-0.035282135,-0.8857178,-0.43117675,-0.17523193,82.0
1100,-0.9073162,-0.5726242,-0.03937149,-0.8857178,-0.43117675,-0.17523193,82.0
1101,-0.9073162,-0.5726242,-0.03937149,-0.7147339,-0.5235718,-0.30054933,82.0
1102,-0.6962881,-0.4289093,-0.11914444,-0.7147339,-0.5235718,-0.30054933,82.0
1103,-0.6962881,-0.4289093,-0.11914444,-0.542688,-0.5979126,-0.42055663,82.0
1104,-0.5466175,-0.21515656,-0.21338272,-0.542688,-0.5979126,-0.42055663,82.0
1105,-0.5466175,-0.21515656,-0.21338272,-0.41099855,-0.65419924,-0.5171997,82.0
1106,-0.41131783,-0.035568237,-0.28434372,-0.41099855,-0.65419924,-0.5171997,82.0
1107,-0.41131783,-0.035568237,-0.28434372,-0.28461915,-0.70198977,-0.59897465,82.0
1108,-0.1710949,0.082359314,-0.32260132,-0.28461915,-0.70198977,-0.59897465,82.0
1109,-0.1710949,0.082359314,-0.32260132,-0.18903808,-0.7104859,-0.6573853,82.0
1110,0.15844917,0.18458557,-0.3682747,-0.18903808,-0.7104859,-0.6573853,82.0
1111,0.15844917,0.18458557,-0.3682747,-0.1731079,-0.68924564,-0.6977417,82.0
1112,0.49400806,0.2733841,-0.46709442,-0.1731079,-0.68924564,-0.6977417,82.0
1113,0.49400806,0.2733841,-0.46709442,-0.19222413,-0.66269535,-0.74022216,82.0
1114,0.9079876,0.31141663,-0.6270447,-0.19222413,-0.66269535,-0.74022216,82.0
1115,0.9079876,0.31141663,-0.6270447,-0.25063476,-0.64995116,-0.8071289,82.0
1116,1.5973377,0.21986389,-0.7954216,-0.25063476,-0.64995116,-0.8071289,82.0
1117,1.5973377,0.21986389,-0.7954216,-0.2888672,-0.64782715,-0.9218262,82.0
1118,2.6187267,-0.0037460327,-0.9083977,-0.2888672,-0.64782715,-0.9218262,82.0
1119,2.6187267,-0.0037460327,-0.9083977,-0.28355715,-0.58198243,-1.0609497,82.0
1120,3.4616928,-0.1866684,-0.9440155,-0.28355715,-0.58198243,-1.0609497,82.0
1121,3.4616928,-0.1866684,-0.9440155,-0.36745605,-0.41418457,-1.1257324,82.0
1122,3.490448,-0.20988464,-0.95719147,-0.36745605,-0.41418457,-1.1257324,82.0
1123,3.490448,-0.20988464,-0.95719147,-0.5915405,-0.34833986,-1.0736939,82.0
1124,2.9351683,-0.20638275,-0.9222107,-0.5915405,-0.34833986,-1.0736939,82.0
1125,2.9351683,-0.20638275,-0.9222107,-0.7126099,-0.3154175,-0.97280276,82.0
1126,2.2768211,-0.30671692,-0.71813965,-0.7126099,-0.3154175,-0.97280276,82.0
1127,2.2768211,-0.30671692,-0.71813965,-0.59897465,-0.29630128,-0.86553955,82.0
1128,1.6065397,-0.48427582,-0.39255524,-0.59897465,-0.29630128,-0.86553955,82.0
1129,1.6065397,-0.48427582,-0.39255524,-0.19328614,-0.2623169,-0.77526855,82.0
1130,0.7806053,-0.6016083,-0.11123657,-0.19328614,-0.2623169,-0.77526855,82.0
1131,0.7806053,-0.6016083,-0.11123657,0.33878174,-0.20603028,-0.6138428,82.0
1132,-0.25271225,-0.53639984,-0.0091667175,0.33878174,-0.20603028,-0.6138428,82.0
1133,-0.25271225,-0.53639984,-0.0091667175,0.8209351,-0.16248779,-0.32816163,82.0
1134,-1.0818939,-0.30015564,-0.09300232,0.8209351,-0.16248779,-0.32816163,82.0
1135,-1.0818939,-0.30015564,-0.09300232,1.2436157,-0.11363526,0.023364259,82.0
1136,-1.2992668,0.0357666,-0.23530197,1.2436157,-0.11363526,0.023364259,82.0
1137,-1.2992668,0.0357666,-0.23530197,1.632312,0.008496094,0.35789797,82.0
1138,-1.0734224,0.4267807,-0.39361572,1.632312,0.008496094,0.35789797,82.0
1139,-1.0734224,0.4267807,-0.39361572,1.8829468,0.21027832,0.6637573,82.0
1140,-0.7853737,0.79286194,-0.6565323,1.8829468,0.21027832,0.6637573,82.0
1141,-0.7853737,0.79286194,-0.6565323,1.8861328,0.39613038,0.93138427,82.0
1142,-0.55605793,1.0330658,-0.91145706,1.8861328,0.39613038,0.93138427,82.0
1143,-0.55605793,1.0330658,-0.91145706,1.719397,0.5787964,1.1427246,82.0
1144,-0.3860569,1.067421,-0.8645172,1.719397,0.5787964,1.1427246,82.0
1145,-0.3860569,1.067421,-0.8645172,1.4666382,0.77102053,1.2892822,82.0
1146,-0.37179756,0.8794861,-0.4399681,1.4666382,0.77102053,1.2892822,82.0
1147,-0.37179756,0.8794861,-0.4399681,1.2244996,0.9589966,1.3912354,82.0
1148,-0.57159615,0.5094681,0.089336395,1.2244996,0.9589966,1.3912354,82.0
1149,-0.57159615,0.5094681,0.089336395,1.0343994,1.1023682,1.4761963,82.0
1150,-0.8481102,0.07180786,0.4733963,1.0343994,1.1023682,1.4761963,82.0
1151,-0.8481102,0.07180786,0.4733963,0.901648,1.1937011,1.5569092,82.0
1152,-1.0279388,-0.3108902,0.69330215,0.901648,1.1937011,1.5569092,82.0
1153,-1.0279388,-0.3108902,0.69330215,0.84111327,1.2372437,1.5951416,82.0
1154,-1.0809212,-0.5318451,0.83005524,0.84111327,1.2372437,1.5951416,82.0
1155,-1.0809212,-0.5318451,0.83005524,0.8400513,1.2531738,1.5739014,82.0
1156,-1.1192665,-0.5878525,0.8994827,0.8400513,1.2531738,1.5739014,82.0
1157,-1.1192665,-0.5878525,0.8994827,0.8527954,1.2255615,1.4995606,82.0
1158,-1.1192665,-0.5878525,0.8994827,0.8527954,1.2255615,1.4995606,82.0
1159,-1.2368803,-0.5602722,0.8811569,0.8527954,1.2255615,1.4995606,82.0
1160,-1.2368803,-0.5602722,0.8811569,0.87615967,1.178833,1.3933594,82.0
1161,-1.408926,-0.5007782,0.78473663,0.87615967,1.178833,1.3933594,82.0
1162,-1.408926,-0.5007782,0.78473663,0.8857178,1.1044922,1.2574219,82.0
1163,-1.408926,-0.5007782,0.78473663,0.87403566,1.0312134,1.1044922,82.0
1164,-1.5477829,-0.4034195,0.7043266,0.87403566,1.0312134,1.1044922,82.0
1165,-1.6380558,-0.2623062,0.6568451,0.87403566,1.0312134,1.1044922,82.0
1166,-1.6380558,-0.2623062,0.6568451,0.81881106,0.95368654,0.9409424,82.0
1167,-1.6624832,-0.13433075,0.6148567,0.81881106,0.95368654,0.9409424,82.0
1168,-1.6624832,-0.13433075,0.6148567,0.72641605,0.85704345,0.76358646,82.0
1169,-1.5661564,-0.06517792,0.59349823,0.72641605,0.85704345,0.76358646,82.0
1170,-1.5661564,-0.06517792,0.59349823,0.60959476,0.75296634,0.5798584,82.0
1171,-1.3820515,-0.05697632,0.6280098,0.60959476,0.75296634,0.5798584,82.0
1172,-1.3820515,-0.05697632,0.6280098,0.48321533,0.630835,0.39400634,82.0
1173,-1.0866594,-0.090415955,0.67523575,0.48321533,0.630835,0.39400634,82.0
1174,-1.0866594,-0.090415955,0.67523575,0.36533204,0.49489745,0.20072022,82.0
1175,-0.618803,-0.13719177,0.63978577,0.36533204,0.49489745,0.20072022,82.0
1176,-0.618803,-0.13719177,0.63978577,0.24744873,0.3430298,-0.008496094,82.0
1177,0.031092644,-0.19091797,0.509861,0.24744873,0.3430298,-0.008496094,82.0
1178,0.031092644,-0.19091797,0.509861,0.118945315,0.18797608,-0.22939454,82.0
1179,0.68064785,-0.23166656,0.35863113,0.118945315,0.18797608,-0.22939454,82.0
1180,0.68064785,-0.23166656,0.35863113,-0.019116212,0.04248047,-0.44073486,82.0
1181,1.0362053,-0.23944855,0.29273987,-0.019116212,0.04248047,-0.44073486,82.0
1182,1.0362053,-0.23944855,0.29273987,-0.1539917,-0.1178833,-0.6138428,82.0
1183,1.0266447,-0.1920929,0.36193848,-0.1539917,-0.1178833,-0.6138428,82.0
1184,1.0266447,-0.1920929,0.36193848,-0.29417726,-0.29099122,-0.72960204,82.0
1185,0.9325218,-0.0846405,0.45052338,-0.29417726,-0.29099122,-0.72960204,82.0
1186,0.9325218,-0.0846405,0.45052338,-0.4364868,-0.4619751,-0.8262451,82.0
1187,1.0972509,0.0035552979,0.43190002,-0.4364868,-0.4619751,-0.8262451,82.0
1188,1.0972509,0.0035552979,0.43190002,-0.57561034,-0.59472656,-0.92713624,82.0
1189,1.522356,0.03603363,0.31088638,-0.57561034,-0.59472656,-0.92713624,82.0
1190,1.522356,0.03603363,0.31088638,-0.7306641,-0.6637573,-1.0343994,82.0
1191,1.7993422,0.0018386841,0.19831848,-0.7306641,-0.6637573,-1.0343994,82.0
1192,1.7993422,0.0018386841,0.19831848,-0.8867798,-0.6488892,-1.09281,82.0
1193,1.3944054,-0.055145264,0.22796631,-0.8867798,-0.6488892,-1.09281,82.0
1194,1.3944054,-0.055145264,0.22796631,-0.998291,-0.5703003,-1.0237793,82.0
1195,0.3111534,-0.07790375,0.3130722,-0.998291,-0.5703003,-1.0237793,82.0
1196,0.3111534,-0.07790375,0.3130722,-1.0174073,-0.53525394,-0.83898926,82.0
1197,-0.65108967,-0.017753601,0.2727356,-1.0174073,-0.53525394,-0.83898926,82.0
1198,-0.65108967,-0.017753601,0.2727356,-0.90058595,-0.57454836,-0.61702883,82.0
1199,-0.76811314,0.18351746,0.08378601,-0.90058595,-0.57454836,-0.61702883,82.0
1200,-0.76811314,0.18351746,0.08378601,-0.7688965,-0.5968506,-0.41418457,82.0
1201,-0.101270676,0.44102478,-0.13344574,-0.7688965,-0.5968506,-0.41418457,82.0
1202,-0.101270676,0.44102478,-0.13344574,-0.76464844,-0.5511841,-0.2623169,82.0
1203,0.738369,0.58036804,-0.30511093,-0.76464844,-0.5511841,-0.2623169,82.0
1204,0.738369,0.58036804,-0.30511093,-0.92501223,-0.42268068,-0.17735596,82.0
1205,1.1119108,0.51306915,-0.43370056,-0.92501223,-0.42268068,-0.17735596,82.0
1206,1.1119108,0.51306915,-0.43370056,-1.1926392,-0.23789063,-0.13912354,82.0
1207,0.6674824,0.2914505,-0.5172348,-1.1926392,-0.23789063,-0.13912354,82.0
1208,0.6674824,0.2914505,-0.5172348,-1.4793824,-0.083898924,-0.1263794,82.0
1209,-0.31013012,0.040901184,-0.5287781,-1.4793824,-0.083898924,-0.1263794,82.0
1210,-0.31013012,0.040901184,-0.5287781,-1.6131958,-0.038232423,-0.16036378,82.0
1211,-1.1646442,-0.12210846,-0.4854393,-1.6131958,-0.038232423,-0.16036378,82.0
1212,-1.1646442,-0.12210846,-0.4854393,-1.6206299,-0.0637207,-0.2262085,82.0
1213,-1.5112562,-0.2445221,-0.42199326,-1.6206299,-0.0637207,-0.2262085,82.0
1214,-1.5112562,-0.2445221,-0.42199326,-1.4984986,-0.12319336,-0.32816163,82.0
1215,-1.4762163,-0.36304474,-0.34378052,-1.4984986,-0.12319336,-0.32816163,82.0
1216,-1.4762163,-0.36304474,-0.34378052,-1.2977784,-0.21558838,-0.44816896,82.0
1217,-1.3044844,-0.42871857,-0.25169754,-1.2977784,-0.21558838,-0.44816896,82.0
1218,-1.3044844,-0.42871857,-0.25169754,-1.1129884,-0.3164795,-0.56817627,82.0
1219,-1.074996,-0.3749466,-0.1735878,-1.1129884,-0.3164795,-0.56817627,82.0
1220,-1.074996,-0.3749466,-0.1735878,-0.9600586,-0.4163086,-0.6701294,82.0
1221,-0.82084846,-0.21669006,-0.1499939,-0.9600586,-0.4163086,-0.6701294,82.0
1222,-0.82084846,-0.21669006,-0.1499939,-0.7858887,-0.49383545,-0.7582764,82.0
1223,-0.5916767,-0.01689148,-0.21435547,-0.7858887,-0.49383545,-0.7582764,82.0
1224,-0.5916767,-0.01689148,-0.21435547,-0.65419924,-0.5479981,-0.8230591,82.0
1225,-0.44234753,0.14653015,-0.31848145,-0.65419924,-0.5479981,-0.8230591,82.0
1226,-0.44234753,0.14653015,-0.31848145,-0.5256958,-0.5968506,-0.86341554,82.0
1227,-0.44234753,0.14653015,-0.31848145,-0.41949463,-0.63826907,-0.8814697,82.0
1228,-0.26687813,0.24617767,-0.405056,-0.41949463,-0.63826907,-0.8814697,82.0
1229,1.4125347,0.5161896,-0.8277321,-0.41949463,-0.63826907,-0.8814697,82.0
1230,1.4125347,0.5161896,-0.8277321,-0.35471192,-0.64782715,-0.8889038,82.0
1231,1.4125347,0.5161896,-0.8277321,-0.33984375,-0.63826907,-0.8995239,82.0
1232,1.4125347,0.5161896,-0.8277321,-0.38551027,-0.6488892,-0.93138427,82.0
1233,1.1300278,0.4129486,-0.66218567,-0.38551027,-0.6488892,-0.93138427,82.0
1234,5.0718813,-0.056800842,-1.0951042,-0.38551027,-0.6488892,-0.93138427,82.0
1235,5.0718813,-0.056800842,-1.0951042,-0.4333008,-0.6605713,-0.99298096,82.0
1236,5.0718813,-0.056800842,-1.0951042,-0.44498292,-0.5522461,-1.0567017,82.0
1237,5.0718813,-0.056800842,-1.0951042,-0.5331299,-0.35471192,-1.0174073,82.0
1238,4.6175385,-0.09246063,-1.0680275,-0.5331299,-0.35471192,-1.0174073,82.0
1239,4.6175385,-0.09246063,-1.0680275,-0.72960204,-0.26125488,-0.8527954,82.0
1240,3.613061,-0.053329468,-1.0613708,-0.72960204,-0.26125488,-0.8527954,82.0
1241,3.613061,-0.053329468,-1.0613708,-0.8358032,-0.24957275,-0.65632325,82.0
1242,2.6455755,-0.12369537,-0.77635574,-0.8358032,-0.24957275,-0.65632325,82.0
1243,2.6455755,-0.12369537,-0.77635574,-0.63826907,-0.22408448,-0.5033936,82.0
1244,1.7291555,-0.35027313,-0.25009918,-0.63826907,-0.22408448,-0.5033936,82.0
1245,1.7291555,-0.35027313,-0.25009918,-0.1720459,-0.15505372,-0.37701416,82.0
1246,0.6998768,-0.5685501,0.13545609,-0.1720459,-0.15505372,-0.37701416,82.0
1247,0.6998768,-0.5685501,0.13545609,0.39188233,-0.06478272,-0.17947999,82.0
1248,-0.36504936,-0.57128143,0.13309479,0.39188233,-0.06478272,-0.17947999,82.0
1249,-0.36504936,-0.57128143,0.13309479,0.84748536,0.009558106,0.13062744,82.0
1250,-1.0274639,-0.3127594,-0.12752151,0.84748536,0.009558106,0.13062744,82.0
1251,-1.0274639,-0.3127594,-0.12752151,1.260608,0.09451904,0.46834716,82.0
1252,-1.0700665,0.13523865,-0.40763474,1.260608,0.09451904,0.46834716,82.0
1253,-1.0700665,0.13523865,-0.40763474,1.5590333,0.26550293,0.7943848,82.0
1254,-0.89473724,0.5951538,-0.63233185,1.5590333,0.26550293,0.7943848,82.0
1255,-0.89473724,0.5951538,-0.63233185,1.6864747,0.44179687,1.0938721,82.0
1256,-0.819684,0.8767319,-0.7860069,1.6864747,0.44179687,1.0938721,82.0
1257,-0.819684,0.8767319,-0.7860069,1.6705445,0.59047854,1.358313,82.0
1258,-0.8148298,0.9422226,-0.7288437,1.6705445,0.59047854,1.358313,82.0
1259,-0.8148298,0.9422226,-0.7288437,1.5696534,0.71791995,1.5515991,82.0
1260,-0.7932091,0.81355286,-0.35580444,1.5696534,0.71791995,1.5515991,82.0
1261,-0.7932091,0.81355286,-0.35580444,1.4687623,0.8496094,1.6631104,82.0
1262,-0.78800964,0.5183563,0.15549469,1.4687623,0.8496094,1.6631104,82.0
1263,-0.78800964,0.5183563,0.15549469,1.3848633,0.98448485,1.7077149,82.0
1264,-0.83740234,0.11204529,0.55109406,1.3848633,0.98448485,1.7077149,82.0
1265,-0.83740234,0.11204529,0.55109406,1.3222046,1.088562,1.721521,82.0
1266,-0.87191105,-0.26011658,0.7597122,1.3222046,1.088562,1.721521,82.0
1267,-0.87191105,-0.26011658,0.7597122,1.3222046,1.088562,1.721521,82.0
1268,-0.87191105,-0.26011658,0.7597122,1.2457398,1.1639649,1.7024049,82.0
1269,-0.8489456,-0.46459198,0.827713,1.2457398,1.1639649,1.7024049,82.0
1270,-0.8489456,-0.46459198,0.827713,1.1660889,1.2085694,1.632312,82.0
1271,-0.90102005,-0.5084915,0.8315811,1.1660889,1.2085694,1.632312,82.0
1272,-0.90102005,-0.5084915,0.8315811,1.1076783,1.2181275,1.5101807,82.0
1273,-1.1417141,-0.48350525,0.8312073,1.1076783,1.2181275,1.5101807,82.0
1274,-1.1417141,-0.48350525,0.8312073,1.0864381,1.2000732,1.3530029,82.0
1275,-1.521636,-0.42610168,0.819458,1.0864381,1.2000732,1.3530029,82.0
1276,-1.521636,-0.42610168,0.819458,1.0577637,1.1533448,1.1894531,82.0
1277,-1.521636,-0.42610168,0.819458,1.0120972,1.0875,1.0280274,82.0
1278,-1.8873281,-0.32224274,0.7479744,1.0120972,1.0875,1.0280274,82.0
1279,-2.7540522,-0.05042267,0.7968292,1.0120972,1.0875,1.0280274,82.0
1280,-2.7540522,-0.05042267,0.7968292,0.9547486,1.0131592,0.8612915,82.0
1281,-2.7540522,-0.05042267,0.7968292,0.86341554,0.92926025,0.68499756,82.0
1282,-2.7540522,-0.05042267,0.7968292,0.7317261,0.8358032,0.4970215,82.0
1283,-2.313386,-0.018753052,0.7881355,0.7317261,0.8358032,0.4970215,82.0
1284,-2.313386,-0.018753052,0.7881355,0.5851685,0.7338501,0.29948732,82.0
1285,-1.7968273,-0.045333862,0.7763939,0.5851685,0.7338501,0.29948732,82.0
1286,-1.7968273,-0.045333862,0.7763939,0.4258667,0.60959476,0.090270996,82.0
1287,-1.1407576,-0.108688354,0.71032333,0.4258667,0.60959476,0.090270996,82.0
1288,-1.1407576,-0.108688354,0.71032333,0.26019287,0.4715332,-0.1263794,82.0
1289,-0.31263065,-0.19636536,0.5497513,0.26019287,0.4715332,-0.1263794,82.0
1290,-0.31263065,-0.19636536,0.5497513,0.08283692,0.32603762,-0.36320803,82.0
1291,0.58702946,-0.26757812,0.33267212,0.08283692,0.32603762,-0.36320803,82.0
1292,0.58702946,-0.26757812,0.33267212,-0.098767094,0.18797608,-0.5787964,82.0
1293,1.2301712,-0.3085556,0.16534424,-0.098767094,0.18797608,-0.5787964,82.0
1294,1.2301712,-0.3085556,0.16534424,-0.2527588,0.05522461,-0.7593384,82.0
1295,1.2197447,-0.30364227,0.16009521,-0.2527588,0.05522461,-0.7593384,82.0
1296,1.2197447,-0.30364227,0.16009521,-0.37701416,-0.12000733,-0.8612915,82.0
1297,0.7889433,-0.21442413,0.29619217,-0.37701416,-0.12000733,-0.8612915,82.0
1298,0.7889433,-0.21442413,0.29619217,-0.5012695,-0.34940186,-0.91864014,82.0
1299,0.5939112,-0.051887512,0.46832657,-0.5012695,-0.34940186,-0.91864014,82.0
1300,0.5939112,-0.051887512,0.46832657,-0.59047854,-0.54375,-0.9759888,82.0
1301,0.8363104,0.09160614,0.55313873,-0.59047854,-0.54375,-0.9759888,82.0
1302,0.8363104,0.09160614,0.55313873,-0.69136965,-0.6839356,-1.0428956,82.0
1303,1.3037901,0.103256226,0.49398804,-0.69136965,-0.6839356,-1.0428956,82.0
1304,1.3037901,0.103256226,0.49398804,-0.81987303,-0.7476563,-1.0938721,82.0
1305,1.5697403,0.010757446,0.35858154,-0.81987303,-0.7476563,-1.0938721,82.0
1306,1.5697403,0.010757446,0.35858154,-0.94625247,-0.7147339,-1.0747559,82.0
1307,1.2051945,-0.030639648,0.2567978,-0.94625247,-0.7147339,-1.0747559,82.0
1308,1.2051945,-0.030639648,0.2567978,-1.0471436,-0.635083,-0.95368654,82.0
1309,0.31398487,0.02909851,0.22489548,-1.0471436,-0.635083,-0.95368654,82.0
1310,0.31398487,0.02909851,0.22489548,-1.0598878,-0.6074707,-0.7540283,82.0
1311,-0.3772173,0.17250824,0.18797302,-1.0598878,-0.6074707,-0.7540283,82.0
1312,-0.3772173,0.17250824,0.18797302,-0.9781128,-0.61065674,-0.5256958,82.0
1313,-0.33462334,0.39879608,0.07546234,-0.9781128,-0.61065674,-0.5256958,82.0
1314,-0.33462334,0.39879608,0.07546234,-0.9866089,-0.5703003,-0.30373535,82.0
1315,0.22417164,0.6072769,-0.12821579,-0.9866089,-0.5703003,-0.30373535,82.0
1316,0.22417164,0.6072769,-0.12821579,-1.1257324,-0.5012695,-0.1444336,82.0
1317,0.7908249,0.6467972,-0.35557556,-1.1257324,-0.5012695,-0.1444336,82.0
1318,0.7908249,0.6467972,-0.35557556,-1.3211426,-0.38975832,-0.08283692,82.0
1319,0.8848572,0.44558716,-0.5118294,-1.3211426,-0.38975832,-0.08283692,82.0
1320,0.8848572,0.44558716,-0.5118294,-1.5696534,-0.25063476,-0.08496094,82.0
1321,0.31102276,0.084114075,-0.533844,-1.5696534,-0.25063476,-0.08496094,82.0
1322,0.31102276,0.084114075,-0.533844,-1.7332032,-0.1731079,-0.13168946,82.0
1323,-0.5686865,-0.2287445,-0.48899078,-1.7332032,-0.1731079,-0.13168946,82.0
1324,-0.5686865,-0.2287445,-0.48899078,-1.7565674,-0.1731079,-0.2262085,82.0
1325,-1.270977,-0.41210938,-0.45067596,-1.7565674,-0.1731079,-0.2262085,82.0
1326,-1.270977,-0.41210938,-0.45067596,-1.62594,-0.2347046,-0.36108398,82.0
1327,-1.6522179,-0.51867676,-0.39539337,-1.62594,-0.2347046,-0.36108398,82.0
1328,-1.6522179,-0.51867676,-0.39539337,-1.3455689,-0.35895997,-0.51188964,82.0
1329,-1.7242031,-0.52848816,-0.2810135,-1.3455689,-0.35895997,-0.51188964,82.0
1330,-1.7242031,-0.52848816,-0.2810135,-1.1236085,-0.4959595,-0.64782715,82.0
1331,-1.5357838,-0.44779205,-0.13678741,-1.1236085,-0.4959595,-0.64782715,82.0
1332,-1.5357838,-0.44779205,-0.13678741,-0.84536135,-0.62127686,-0.7720825,82.0
1333,-1.2110243,-0.2528,-0.098018646,-0.84536135,-0.62127686,-0.7720825,82.0
1334,-1.2110243,-0.2528,-0.098018646,-0.6159668,-0.7327881,-0.8750977,82.0
1335,-0.8449917,-0.0158844,-0.208004,-0.6159668,-0.7327881,-0.8750977,82.0
1336,-0.8449917,-0.0158844,-0.208004,-0.3971924,-0.811377,-0.9653687,82.0
1337,-0.45290947,0.15377045,-0.35341644,-0.3971924,-0.811377,-0.9653687,82.0
1338,-0.45290947,0.15377045,-0.35341644,-0.2081543,-0.85491943,-1.0237793,82.0
1339,-0.45290947,0.15377045,-0.35341644,-0.078588866,-0.8527954,-1.0354614,82.0
1340,-0.06258392,0.26956177,-0.42160034,-0.078588866,-0.8527954,-1.0354614,82.0
1341,1.3263493,0.73070526,-0.6861839,-0.078588866,-0.8527954,-1.0354614,82.0
1342,1.3263493,0.73070526,-0.6861839,-0.029736329,-0.81243896,-1.0036011,82.0
1343,1.3263493,0.73070526,-0.6861839,-0.06159668,-0.72004396,-0.9324463,82.0
1344,1.3263493,0.73070526,-0.6861839,-0.1731079,-0.634021,-0.8517334,82.0
1345,1.8564653,0.6961365,-0.9211273,-0.1731079,-0.634021,-0.8517334,82.0
1346,1.8564653,0.6961365,-0.9211273,-0.26868898,-0.5894165,-0.7805786,82.0
1347,2.7699137,0.5239639,-1.080162,-0.26868898,-0.5894165,-0.7805786,82.0
1348,2.7699137,0.5239639,-1.080162,-0.33665773,-0.47578126,-0.7349121,82.0
1349,3.7452278,0.29875946,-1.0684891,-0.33665773,-0.47578126,-0.7349121,82.0
1350,3.7452278,0.29875946,-1.0684891,-0.45878908,-0.21877442,-0.63614506,82.0
1351,4.0705833,0.2457962,-0.9187088,-0.45878908,-0.21877442,-0.63614506,82.0
1352,4.0705833,0.2457962,-0.9187088,-0.7593384,0.04885254,-0.42905274,82.0
1353,3.6606903,0.42749786,-0.7336235,-0.7593384,0.04885254,-0.42905274,82.0
1354,3.6606903,0.42749786,-0.7336235,-1.171399,0.24213867,-0.20284425,82.0
1355,2.9931765,0.56238556,-0.5242882,-1.171399,0.24213867,-0.20284425,82.0
1356,2.9931765,0.56238556,-0.5242882,-1.4517701,0.3971924,-0.008496094,82.0
1357,2.38906,0.37348175,-0.20689392,-1.4517701,0.3971924,-0.008496094,82.0
1358,2.38906,0.37348175,-0.20689392,-1.4517701,0.3971924,-0.008496094,82.0
1359,2.38906,0.37348175,-0.20689392,-1.5707153,0.5851685,0.14549561,82.0
1360,1.6753712,-0.102005005,0.10422516,-1.5707153,0.5851685,0.14549561,82.0
1361,1.6753712,-0.102005005,0.10422516,-1.532483,0.7763306,0.28355715,82.0
1362,0.4360733,-0.67063904,0.23501587,-1.532483,0.7763306,0.28355715,82.0
1363,0.4360733,-0.67063904,0.23501587,-1.3997315,0.9611206,0.5511841,82.0
1364,-1.0556211,-1.0692902,0.25553894,-1.3997315,0.9611206,0.5511841,82.0
1365,-1.0556211,-1.0692902,0.25553894,-1.0397094,0.96643066,0.84111327,82.0
1366,-1.8540916,-1.1184845,0.2738533,-1.0397094,0.96643066,0.84111327,82.0
1367,-1.8540916,-1.1184845,0.2738533,-0.42799073,0.9653687,1.0906861,82.0
1368,-1.7704563,-0.80781555,0.31889725,-0.42799073,0.9653687,1.0906861,82.0
1369,-1.7704563,-0.80781555,0.31889725,0.19328614,1.002539,1.3243287,82.0
1370,-1.4748611,-0.2745819,0.41179276,0.19328614,1.002539,1.3243287,82.0
1371,-1.4748611,-0.2745819,0.41179276,0.68074954,1.0110352,1.5664673,82.0
1372,-1.3946228,0.27478027,0.57159805,0.68074954,1.0110352,1.5664673,82.0
1373,-1.3946228,0.27478027,0.57159805,0.813501,1.0397094,1.7523193,82.0
1374,-1.4498787,0.5430298,0.70991516,0.813501,1.0397094,1.7523193,82.0
1375,-1.4498787,0.5430298,0.70991516,0.8071289,1.0386475,1.8510865,82.0
1376,-1.4435091,0.42221832,0.744545,0.8071289,1.0386475,1.8510865,82.0
1377,-1.4435091,0.42221832,0.744545,0.8092529,1.0269654,1.8404664,82.0
1378,-1.334568,0.0627594,0.7350044,0.8092529,1.0269654,1.8404664,82.0
1379,-1.334568,0.0627594,0.7350044,0.8421753,1.0237793,1.7416992,82.0
1380,-1.2374058,-0.35819244,0.7571106,0.8421753,1.0237793,1.7416992,82.0
1381,-1.2374058,-0.35819244,0.7571106,0.88359374,1.0556396,1.6376221,82.0
1382,-1.2502031,-0.60824585,0.7379379,0.88359374,1.0556396,1.6376221,82.0
1383,-1.2502031,-0.60824585,0.7379379,1.0152832,1.089624,1.5080566,82.0
1384,-1.3784466,-0.56848145,0.5900688,1.0152832,1.089624,1.5080566,82.0
1385,-1.3784466,-0.56848145,0.5900688,1.1225464,1.1098022,1.3530029,82.0
1386,-1.5484476,-0.31150818,0.34118652,1.1225464,1.1098022,1.3530029,82.0
1387,-1.5484476,-0.31150818,0.34118652,1.1363525,1.1140503,1.173523,82.0
1388,-1.7726574,-0.043006897,0.17765808,1.1363525,1.1140503,1.173523,82.0
1389,-1.7726574,-0.043006897,0.17765808,1.0386475,1.1108643,0.9876709,82.0
1390,-2.0087261,0.05470276,0.27020264,1.0386475,1.1108643,0.9876709,82.0
1391,-2.0087261,0.05470276,0.27020264,0.8963379,1.0683838,0.7869507,82.0
1392,-2.180089,-0.07145691,0.5268936,0.8963379,1.0683838,0.7869507,82.0
1393,-2.180089,-0.07145691,0.5268936,0.7858887,0.9834229,0.5628662,82.0
1394,-2.2332678,-0.29826355,0.7340393,0.7858887,0.9834229,0.5628662,82.0
1395,-2.2332678,-0.29826355,0.7340393,0.7317261,0.86341554,0.3334717,82.0
1396,-2.0861874,-0.41573334,0.76402664,0.7317261,0.86341554,0.3334717,82.0
1397,-2.0861874,-0.41573334,0.76402664,0.727478,0.7434082,0.090270996,82.0
1398,-1.749443,-0.38737488,0.65686035,0.727478,0.7434082,0.090270996,82.0
1399,-1.749443,-0.38737488,0.65686035,0.7880127,0.61065674,-0.15823975,82.0
1400,-1.26192,-0.3266983,0.6404419,0.7880127,0.61065674,-0.15823975,82.0
1401,-1.26192,-0.3266983,0.6404419,0.7954468,0.47578126,-0.37595215,82.0
1402,-0.6264181,-0.2515564,0.8019638,0.7954468,0.47578126,-0.37595215,82.0
1403,-0.6264181,-0.2515564,0.8019638,0.70942384,0.40037844,-0.5564942,82.0
1404,0.043580055,-0.15275574,0.8923645,0.70942384,0.40037844,-0.5564942,82.0
1405,0.043580055,-0.15275574,0.8923645,0.53100586,0.31116945,-0.6956177,82.0
1406,0.73158073,-0.13066101,0.73010254,0.53100586,0.31116945,-0.6956177,82.0
1407,0.73158073,-0.13066101,0.73010254,0.31435546,0.23151855,-0.8209351,82.0
1408,1.4020615,-0.19248962,0.4302864,0.31435546,0.23151855,-0.8209351,82.0
1409,1.4020615,-0.19248962,0.4302864,0.14018555,0.14230958,-0.93563235,82.0
1410,1.7475405,-0.24298859,0.27231598,0.14018555,0.14230958,-0.93563235,82.0
1411,1.7475405,-0.24298859,0.27231598,0.04460449,0.026550293,-1.0057251,82.0
1412,1.5462017,-0.23013306,0.355999,0.04460449,0.026550293,-1.0057251,82.0
1413,1.5462017,-0.23013306,0.355999,0.0053100586,-0.118945315,-1.0078491,82.0
1414,1.0729113,-0.14907074,0.50707626,0.0053100586,-0.118945315,-1.0078491,82.0
1415,1.0729113,-0.14907074,0.50707626,0.025488282,-0.32072756,-0.96643066,82.0
1416,0.7631149,-0.028511047,0.5848465,0.025488282,-0.32072756,-0.96643066,82.0
1417,0.7631149,-0.028511047,0.5848465,0.019116212,-0.50870365,-0.8931519,82.0
1418,0.6641054,0.10269165,0.5485916,0.019116212,-0.50870365,-0.8931519,82.0
1419,0.6641054,0.10269165,0.5485916,-0.0541626,-0.6711914,-0.7848267,82.0
1420,0.5575905,0.24461365,0.3990059,-0.0541626,-0.6711914,-0.7848267,82.0
1421,0.5575905,0.24461365,0.3990059,-0.08602295,-0.7890747,-0.6690674,82.0
1422,0.17674923,0.3840561,0.15485,-0.08602295,-0.7890747,-0.6690674,82.0
1423,0.17674923,0.3840561,0.15485,-0.043542482,-0.90270996,-0.50233155,82.0
1424,-0.35675716,0.46139526,-0.098083496,-0.043542482,-0.90270996,-0.50233155,82.0
1425,-0.35675716,0.46139526,-0.098083496,0.06796875,-1.1002442,-0.29523927,82.0
1426,-0.4139576,0.479805,-0.29406738,0.06796875,-1.1002442,-0.29523927,82.0
1427,-0.4139576,0.479805,-0.29406738,0.26337892,-1.3168945,-0.083898924,82.0
1428,0.30047417,0.49447632,-0.42502213,0.26337892,-1.3168945,-0.083898924,82.0
1429,0.30047417,0.49447632,-0.42502213,0.45772704,-1.4560181,0.11257324,82.0
1430,1.3727398,0.5650406,-0.4953766,0.45772704,-1.4560181,0.11257324,82.0
1431,1.3727398,0.5650406,-0.4953766,0.5214478,-1.4825684,0.29948732,82.0
1432,2.2045393,0.71593475,-0.5204811,0.5214478,-1.4825684,0.29948732,82.0
1433,2.2045393,0.71593475,-0.5204811,0.41206056,-1.3784913,0.45772704,82.0
1434,2.3405476,0.8937073,-0.46977997,0.41206056,-1.3784913,0.45772704,82.0
1435,2.3405476,0.8937073,-0.46977997,0.15930176,-1.1204224,0.5851685,82.0
1436,1.5568857,0.9900055,-0.31298065,0.15930176,-1.1204224,0.5851685,82.0
1437,1.5568857,0.9900055,-0.31298065,-0.19434814,-0.8644776,0.6796875,82.0
1438,0.17792988,0.91709137,-0.13595581,-0.19434814,-0.8644776,0.6796875,82.0
1439,0.17792988,0.91709137,-0.13595581,-0.55968016,-0.67331547,0.72004396,82.0
1440,-1.1329861,0.70978546,-0.09831238,-0.55968016,-0.67331547,0.72004396,82.0
1441,-1.1329861,0.70978546,-0.09831238,-0.8581055,-0.5692383,0.70198977,82.0
1442,-1.956975,0.45249176,-0.20025635,-0.8581055,-0.5692383,0.70198977,82.0
1443,-1.956975,0.45249176,-0.20025635,-1.088562,-0.5511841,0.635083,82.0
1444,-2.2130413,0.17261505,-0.2939682,-1.088562,-0.5511841,0.635083,82.0
1445,-2.2130413,0.17261505,-0.2939682,-1.183081,-0.5564942,0.5065796,82.0
1446,-2.087572,-0.11628723,-0.30387497,-1.183081,-0.5564942,0.5065796,82.0
1447,-2.087572,-0.11628723,-0.30387497,-1.2191895,-0.5798584,0.34833986,82.0
1448,-1.8258076,-0.43199158,-0.295578,-1.2191895,-0.5798584,0.34833986,82.0
1449,-1.8258076,-0.43199158,-0.295578,-1.1257324,-0.62340087,0.16036378,82.0
1450,-1.4683857,-0.7384491,-0.31793213,-1.1257324,-0.62340087,0.16036378,82.0
1451,-1.4683857,-0.7384491,-0.31793213,-0.9303223,-0.7083618,-0.027612304,82.0
1452,-0.9437027,-0.9044342,-0.3420906,-0.9303223,-0.7083618,-0.027612304,82.0
1453,-0.9437027,-0.9044342,-0.3420906,-0.66481936,-0.76358646,-0.20390625,82.0
1454,-0.9437027,-0.9044342,-0.3420906,-0.4258667,-0.811377,-0.3154175,82.0
1455,-0.45046997,-0.832016,-0.3299446,-0.4258667,-0.811377,-0.3154175,82.0
1456,0.19913387,-0.114356995,-0.68753815,-0.4258667,-0.811377,-0.3154175,82.0
1457,0.19913387,-0.114356995,-0.68753815,-0.22089843,-0.87191164,-0.38338622,82.0
1458,0.19913387,-0.114356995,-0.68753815,-0.06478272,-0.94625247,-0.4439209,82.0
1459,0.19913387,-0.114356995,-0.68753815,0.035046387,-1.0004151,-0.544812,82.0
1460,0.83720016,0.072502136,-0.8716507,0.035046387,-1.0004151,-0.544812,82.0
1461,0.83720016,0.072502136,-0.8716507,0.032922365,-1.0067872,-0.69986576,82.0
1462,1.6994352,0.11200714,-1.1050606,0.032922365,-1.0067872,-0.69986576,82.0
1463,1.6994352,0.11200714,-1.1050606,0.032922365,-1.0067872,-0.69986576,83.0
1464,1.6994352,0.11200714,-1.1050606,-0.046728518,-1.0057251,-0.9483765,83.0
1465,2.8374786,-0.03504181,-1.3643837,-0.046728518,-1.0057251,-0.9483765,83.0
1466,2.8374786,-0.03504181,-1.3643837,-0.05522461,-0.96430665,-1.2871583,83.0
1467,3.93678,-0.2178421,-1.6695328,-0.05522461,-0.96430665,-1.2871583,83.0
1468,3.93678,-0.2178421,-1.6695328,-0.19328614,-0.83686525,-1.6025757,83.0
1469,4.5151825,-0.31749725,-1.9752731,-0.19328614,-0.83686525,-1.6025757,83.0
1470,4.5151825,-0.31749725,-1.9752731,-0.41418457,-0.7657105,-1.8521484,83.0
1471,4.646826,-0.53821564,-1.9777908,-0.41418457,-0.7657105,-1.8521484,83.0
1472,4.646826,-0.53821564,-1.9777908,-0.45135498,-0.73597413,-2.0348146,83.0
1473,4.482586,-1.0065155,-1.3400116,-0.45135498,-0.73597413,-2.0348146,83.0
1474,4.482586,-1.0065155,-1.3400116,-0.10620117,-0.68074954,-2.1155274,83.0
1475,3.6965303,-1.4705048,-0.24150085,-0.10620117,-0.68074954,-2.1155274,83.0
1476,3.6965303,-1.4705048,-0.24150085,0.72216797,-0.5809204,-2.0295045,83.0
1477,2.0481424,-1.3592453,0.61426926,0.72216797,-0.5809204,-2.0295045,83.0
1478,2.0481424,-1.3592453,0.61426926,1.5335449,-0.42905274,-1.6854126,83.0
1479,-0.09920597,-0.5341263,0.7080536,1.5335449,-0.42905274,-1.6854126,83.0
1480,-0.09920597,-0.5341263,0.7080536,2.083667,-0.29311523,-1.1331666,83.0
1481,-1.9313793,0.48149872,0.17214203,2.083667,-0.29311523,-1.1331666,83.0
1482,-1.9313793,0.48149872,0.17214203,2.4649293,-0.26762697,-0.50020754,83.0
1483,-2.6645374,1.3083191,-0.45689392,2.4649293,-0.26762697,-0.50020754,83.0
1484,-2.6645374,1.3083191,-0.45689392,2.6667116,-0.17841797,0.08071289,83.0
1485,-2.3082657,1.8009644,-0.9095955,2.6667116,-0.17841797,0.08071289,83.0
1486,-2.3082657,1.8009644,-0.9095955,2.6868896,0.083898924,0.5543701,83.0
1487,-1.5964661,1.9359741,-1.3094139,2.6868896,0.083898924,0.5543701,83.0
1488,-1.5964661,1.9359741,-1.3094139,2.53396,0.35471192,0.905896,83.0
1489,-1.1103516,1.8487167,-1.6500587,2.53396,0.35471192,0.905896,83.0
1490,-1.1103516,1.8487167,-1.6500587,2.1941164,0.62552494,1.1246704,83.0
1491,-0.91522217,1.6516571,-1.6274109,2.1941164,0.62552494,1.1246704,83.0
1492,-0.91522217,1.6516571,-1.6274109,1.814978,0.84536135,1.2149414,83.0
1493,-0.894824,1.337532,-1.066967,1.814978,0.84536135,1.2149414,83.0
1494,-0.894824,1.337532,-1.066967,1.4793824,1.0683838,1.2149414,83.0
1495,-0.9340601,0.8905792,-0.17552185,1.4793824,1.0683838,1.2149414,83.0
1496,-0.9340601,0.8905792,-0.17552185,1.177771,1.3253907,1.177771,83.0
1497,-0.9812813,0.35923004,0.69405746,1.177771,1.3253907,1.177771,83.0
1498,-0.9812813,0.35923004,0.69405746,0.8442993,1.5792115,1.1384766,83.0
1499,-1.0158119,-0.19355011,1.2844963,0.8442993,1.5792115,1.1384766,83.0
1500,-1.0158119,-0.19355011,1.2844963,0.55968016,1.7809937,1.1448487,83.0
1501,-0.9996977,-0.64523315,1.5694809,0.55968016,1.7809937,1.1448487,83.0
1502,-0.9996977,-0.64523315,1.5694809,0.33028564,1.8702027,1.1501588,83.0
1503,-0.9087181,-0.82733154,1.5389862,0.33028564,1.8702027,1.1501588,83.0
1504,-0.9087181,-0.82733154,1.5389862,0.10195313,1.906311,1.1098022,83.0
1505,-0.9725313,-0.7557831,1.2521362,0.10195313,1.906311,1.1098022,83.0
1506,-0.9725313,-0.7557831,1.2521362,-0.040356446,1.8287842,1.0726318,83.0
1507,-1.2418318,-0.63560486,0.9051857,-0.040356446,1.8287842,1.0726318,83.0
1508,-1.2418318,-0.63560486,0.9051857,-0.04248047,1.6779785,1.0120972,83.0
1509,-1.4589434,-0.56726074,0.61805725,-0.04248047,1.6779785,1.0120972,83.0
1510,-1.4589434,-0.56726074,0.61805725,0.057348635,1.5282348,0.90908206,83.0
1511,-1.5253582,-0.5664215,0.4416008,0.057348635,1.5282348,0.90908206,83.0
1512,-1.5253582,-0.5664215,0.4416008,0.21240234,1.360437,0.7784546,83.0
1513,-1.4322014,-0.57395935,0.41227722,0.21240234,1.360437,0.7784546,83.0
1514,-1.4322014,-0.57395935,0.41227722,0.36108398,1.1915772,0.62764895,83.0
1515,-1.1784267,-0.51651764,0.5082512,0.36108398,1.1915772,0.62764895,83.0
1516,-1.1784267,-0.51651764,0.5082512,0.46622315,1.0354614,0.47471926,83.0
1517,-0.8345747,-0.38646698,0.66439056,0.46622315,1.0354614,0.47471926,83.0
1518,-0.8345747,-0.38646698,0.66439056,0.4991455,0.8952759,0.3462158,83.0
1519,-0.46050644,-0.22058868,0.7685356,0.4991455,0.8952759,0.3462158,83.0
1520,-0.46050644,-0.22058868,0.7685356,0.45454103,0.7519043,0.22514649,83.0
1521,0.047341347,-0.09552765,0.74129105,0.45454103,0.7519043,0.22514649,83.0
1522,0.047341347,-0.09552765,0.74129105,0.34940186,0.60322267,0.093457036,83.0
1523,0.71160316,-0.04017639,0.6063652,0.34940186,0.60322267,0.093457036,83.0
1524,0.71160316,-0.04017639,0.6063652,0.20496826,0.49383545,-0.04991455,83.0
1525,1.15732,-0.02193451,0.4990692,0.20496826,0.49383545,-0.04991455,83.0
1526,1.15732,-0.02193451,0.4990692,0.027612304,0.41737062,-0.16779785,83.0
1527,0.97020435,0.030853271,0.45643616,0.027612304,0.41737062,-0.16779785,83.0
1528,0.97020435,0.030853271,0.45643616,-0.18372802,0.31435546,-0.23895264,83.0
1529,0.6071081,0.087387085,0.39418793,-0.18372802,0.31435546,-0.23895264,83.0
1530,0.6071081,0.087387085,0.39418793,-0.31010744,0.24744873,-0.25700685,83.0
1531,-0.056171417,0.31791687,0.264534,-0.31010744,0.24744873,-0.25700685,83.0
1532,-0.056171417,0.31791687,0.264534,-0.7051758,0.028674318,-0.34940186,83.0
1533,-0.04203224,0.3139267,0.13350296,-0.7051758,0.028674318,-0.34940186,83.0
1534,-0.04203224,0.3139267,0.13350296,-0.84323734,-0.04248047,-0.40037844,83.0
1535,0.2706833,0.14981079,-0.04108429,-0.84323734,-0.04248047,-0.40037844,83.0
1536,0.2706833,0.14981079,-0.04108429,-1.2202514,-0.19647217,-0.54693604,83.0
1537,0.24408531,-0.01776123,-0.13101196,-1.2202514,-0.19647217,-0.54693604,83.0
1538,0.24408531,-0.01776123,-0.13101196,-1.2988404,-0.24957275,-0.55968016,83.0
1539,-0.5263262,-0.39894104,0.0260849,-1.2988404,-0.24957275,-0.55968016,83.0
1540,-0.5263262,-0.39894104,0.0260849,-1.2722901,-0.5140137,-0.4959595,83.0
1541,-0.628788,-0.41164398,0.012420654,-1.2722901,-0.5140137,-0.4959595,83.0
1542,-0.628788,-0.41164398,0.012420654,-1.183081,-0.6202149,-0.4598511,83.0
1543,-0.35813332,-0.4131012,0.2319107,-1.183081,-0.6202149,-0.4598511,83.0
1544,-0.35813332,-0.4131012,0.2319107,-0.9632446,-0.8729736,-0.362146,83.0
1545,0.13883495,-0.30008698,0.07731247,-0.9632446,-0.8729736,-0.362146,83.0
1546,0.13883495,-0.30008698,0.07731247,-0.9494385,-0.93775636,-0.35471192,83.0
1547,1.5812826,-0.11036682,0.02684021,-0.9494385,-0.93775636,-0.35471192,83.0
1548,1.5812826,-0.11036682,0.02684021,-1.0821899,-0.9855469,-0.4333008,83.0
1549,1.6390982,-0.06567383,-0.13981628,-1.0821899,-0.9855469,-0.4333008,83.0
1550,1.6390982,-0.06567383,-0.13981628,-1.1682129,-0.9696167,-0.47578126,83.0
1551,1.0433826,-0.07460022,-0.11674881,-1.1682129,-0.9696167,-0.47578126,83.0
1552,1.0433826,-0.07460022,-0.11674881,-1.4719483,-0.94625247,-0.5936646,83.0
1553,0.46310043,-0.07361603,-0.25273514,-1.4719483,-0.94625247,-0.5936646,83.0
1554,0.46310043,-0.07361603,-0.25273514,-1.5133667,-0.9600586,-0.62977296,83.0
1555,-0.99024963,-0.16622925,-0.23833466,-1.5133667,-0.9600586,-0.62977296,83.0
1556,-0.99024963,-0.16622925,-0.23833466,-1.4602661,-1.0375855,-0.7423462,83.0
1557,-1.0841179,-0.11199951,-0.36672974,-1.4602661,-1.0375855,-0.7423462,83.0
