,accx,accy,accz,gyrox,gyroy,gyroz,heart rate
0,walk,walk,walk,walk,walk,walk,walk
1,-9.826147,-55.10543,44.405823,0.0,0.0,0.0,0.0
2,-9.826147,-55.10543,44.405823,-0.038232423,0.04248047,0.023364259,0.0
3,-7.8752737,-44.072052,35.379776,-0.038232423,0.04248047,0.023364259,0.0
4,-7.8752737,-44.072052,35.379776,-0.03079834,0.026550293,0.014868164,0.0
5,-6.3105707,-35.274673,28.27462,-0.03079834,0.026550293,0.014868164,0.0
6,-6.3105707,-35.274673,28.27462,-0.047790527,0.027612304,0.0031860352,0.0
7,-5.0547066,-28.211548,22.640923,-0.047790527,0.027612304,0.0031860352,0.0
8,-5.0547066,-28.211548,22.640923,-0.04460449,0.015930176,-0.0031860352,0.0
9,-4.036112,-22.509789,18.13615,-0.04460449,0.015930176,-0.0031860352,0.0
10,-4.036112,-22.509789,18.13615,-0.021240234,-0.004248047,-0.011682129,0.0
11,-3.2135696,-17.96186,14.535728,-0.021240234,-0.004248047,-0.011682129,0.0
12,-3.2135696,-17.96186,14.535728,-0.008496094,-0.012744141,-0.020178223,0.0
13,-2.5508118,-14.416485,11.671883,-0.008496094,-0.012744141,-0.020178223,0.0
14,-2.5508118,-14.416485,11.671883,0.0021240234,-0.014868164,-0.027612304,0.0
15,-2.020276,-11.638336,9.400467,0.0021240234,-0.014868164,-0.027612304,0.0
16,-2.020276,-11.638336,9.400467,0.0,-0.019116212,-0.026550293,0.0
17,-2.020276,-11.638336,9.400467,0.004248047,-0.029736329,-0.013806152,0.0
18,-1.6022558,-9.389744,7.568577,0.004248047,-0.029736329,-0.013806152,0.0
19,-1.2847834,-7.5144196,6.0623665,0.004248047,-0.029736329,-0.013806152,0.0
20,-1.2847834,-7.5144196,6.0623665,0.033984374,-0.04991455,0.009558106,0.0
21,-1.0444403,-5.9536743,4.8316193,0.033984374,-0.04991455,0.009558106,0.0
22,-1.0444403,-5.9536743,4.8316193,0.032922365,-0.05628662,0.016992187,0.0
23,-0.8328295,-4.7335434,3.8514023,0.032922365,-0.05628662,0.016992187,0.0
24,-0.8328295,-4.7335434,3.8514023,0.022302246,-0.058410645,0.011682129,0.0
25,-0.8328295,-4.7335434,3.8514023,0.015930176,-0.046728518,0.008496094,0.0
26,-0.6377363,-3.7815475,3.0894089,0.015930176,-0.046728518,0.008496094,0.0
27,-0.47924423,-3.0114899,2.4867477,0.015930176,-0.046728518,0.008496094,0.0
28,-0.47924423,-3.0114899,2.4867477,-0.008496094,-0.03186035,0.007434082,0.0
29,-0.38400555,-2.405922,1.980423,-0.008496094,-0.03186035,0.007434082,0.0
30,-0.38400555,-2.405922,1.980423,0.009558106,-0.03079834,0.010620117,0.0
31,-0.31801987,-1.9330139,1.5719833,0.009558106,-0.03079834,0.010620117,0.0
32,-0.31801987,-1.9330139,1.5719833,0.033984374,-0.039294433,0.0180542,0.0
33,-0.24157429,-1.537529,1.253109,0.033984374,-0.039294433,0.0180542,0.0
34,-0.24157429,-1.537529,1.253109,0.039294433,-0.04460449,0.020178223,0.0
35,-0.16479206,-1.191803,0.99095154,0.039294433,-0.04460449,0.020178223,0.0
36,-0.16479206,-1.191803,0.99095154,0.020178223,-0.046728518,0.021240234,0.0
37,-0.11186218,-0.9294281,0.7656975,0.020178223,-0.046728518,0.021240234,0.0
38,-0.11186218,-0.9294281,0.7656975,0.0021240234,-0.0361084,0.014868164,0.0
39,-0.081347466,-0.75222015,0.56264496,0.0021240234,-0.0361084,0.014868164,0.0
40,-0.081347466,-0.75222015,0.56264496,-0.010620117,-0.0361084,0.013806152,0.0
41,-0.05627632,-0.6444397,0.38158798,-0.010620117,-0.0361084,0.013806152,0.0
42,-0.05627632,-0.6444397,0.38158798,-0.021240234,-0.043542482,0.029736329,0.0
43,-0.05627632,-0.6444397,0.38158798,-0.07646485,-0.038232423,0.033984374,0.0
44,-0.03601265,-0.57759094,0.25707626,-0.07646485,-0.038232423,0.033984374,0.0
45,-0.037574768,-0.47779083,0.23807144,-0.07646485,-0.038232423,0.033984374,0.0
46,-0.037574768,-0.47779083,0.23807144,-0.20284425,-0.004248047,0.0021240234,0.0
47,-0.03414917,-0.4673767,0.32395172,-0.20284425,-0.004248047,0.0021240234,0.0
48,-0.03414917,-0.4673767,0.32395172,-0.31329346,0.03079834,0.026550293,0.0
49,-0.043712616,-0.57120514,0.44421768,-0.31329346,0.03079834,0.026550293,0.0
50,-0.043712616,-0.57120514,0.44421768,-0.10195313,-0.023364259,0.060534667,0.0
51,-0.021126747,-0.5853195,0.5079384,-0.10195313,-0.023364259,0.060534667,0.0
52,-0.021126747,-0.5853195,0.5079384,-0.010620117,-0.025488282,0.14549561,0.0
53,0.09874821,-0.38536072,0.4604149,-0.010620117,-0.025488282,0.14549561,0.0
54,0.09874821,-0.38536072,0.4604149,-0.08283692,0.009558106,0.20603028,0.0
55,0.18466282,-0.035888672,0.25639343,-0.08283692,0.009558106,0.20603028,0.0
56,0.18466282,-0.035888672,0.25639343,-0.19222413,0.08920898,0.10513916,0.0
57,0.18466282,-0.035888672,0.25639343,-0.19222413,0.08920898,0.10513916,89.0
58,0.16441727,0.2411499,-0.013477325,-0.19222413,0.08920898,0.10513916,89.0
59,0.16441727,0.2411499,-0.013477325,-0.21346436,0.07752686,0.095581055,89.0
60,0.093691826,0.27374268,-0.17166138,-0.21346436,0.07752686,0.095581055,89.0
61,0.093691826,0.27374268,-0.17166138,-0.23258057,0.08496094,0.06903076,89.0
62,0.028664589,0.14907074,-0.11362457,-0.23258057,0.08496094,0.06903076,89.0
63,0.028664589,0.14907074,-0.11362457,-0.043542482,0.03079834,-0.019116212,89.0
64,-0.0036182404,0.024742126,0.004398346,-0.043542482,0.03079834,-0.019116212,89.0
65,-0.0036182404,0.024742126,0.004398346,-0.07646485,0.052038576,-0.08071289,89.0
66,-0.0066547394,0.006210327,0.015907288,-0.07646485,0.052038576,-0.08071289,89.0
67,-0.0066547394,0.006210327,0.015907288,-0.1274414,0.046728518,-0.11682129,89.0
68,0.014903069,-0.023849487,-0.06124878,-0.1274414,0.046728518,-0.11682129,89.0
69,0.014903069,-0.023849487,-0.06124878,-0.107263185,0.021240234,-0.14761963,89.0
70,0.014903069,-0.023849487,-0.06124878,-0.10513916,0.0010620117,-0.18054199,89.0
71,0.049349785,-0.086364746,-0.1432991,-0.10513916,0.0010620117,-0.18054199,89.0
72,0.07434273,-0.13173676,-0.1727066,-0.10513916,0.0010620117,-0.18054199,89.0
73,0.07434273,-0.13173676,-0.1727066,-0.121069334,-0.015930176,-0.1996582,89.0
74,0.07721138,-0.16462708,-0.17434692,-0.121069334,-0.015930176,-0.1996582,89.0
75,0.07721138,-0.16462708,-0.17434692,-0.1444336,-0.0361084,-0.22196046,89.0
76,0.065052986,-0.16955566,-0.1808815,-0.1444336,-0.0361084,-0.22196046,89.0
77,0.065052986,-0.16955566,-0.1808815,-0.18903808,-0.04991455,-0.26868898,89.0
78,0.05079651,-0.15367126,-0.23051834,-0.18903808,-0.04991455,-0.26868898,89.0
79,0.05079651,-0.15367126,-0.23051834,-0.2803711,-0.04460449,-0.32072756,89.0
80,0.034705162,-0.16926575,-0.34940338,-0.2803711,-0.04460449,-0.32072756,89.0
81,0.034705162,-0.16926575,-0.34940338,-0.3802002,-0.045666505,-0.38338622,89.0
82,0.005730629,-0.1924057,-0.52295685,-0.3802002,-0.045666505,-0.38338622,89.0
83,0.005730629,-0.1924057,-0.52295685,-0.5331299,-0.047790527,-0.49171144,89.0
84,-0.020280838,-0.19255066,-0.757061,-0.5331299,-0.047790527,-0.49171144,89.0
85,-0.020280838,-0.19255066,-0.757061,-0.8007569,-0.02442627,-0.6616333,89.0
86,0.009849548,-0.26085663,-1.0411949,-0.8007569,-0.02442627,-0.6616333,89.0
87,0.009849548,-0.26085663,-1.0411949,-1.1873292,0.0998291,-0.88253176,89.0
88,0.009849548,-0.26085663,-1.0411949,-1.6015137,0.20072022,-1.1246704,89.0
89,0.09247494,-0.5508957,-1.3497276,-1.6015137,0.20072022,-1.1246704,89.0
90,0.20637798,-1.0092239,-1.6618042,-1.6015137,0.20072022,-1.1246704,89.0
91,0.20637798,-1.0092239,-1.6618042,-2.1611938,0.32922363,-1.4007934,89.0
92,0.39425278,-1.6680603,-1.8676872,-2.1611938,0.32922363,-1.4007934,89.0
93,0.39425278,-1.6680603,-1.8676872,-2.453247,0.5235718,-1.632312,89.0
94,0.6431608,-2.530777,-1.9415512,-2.453247,0.5235718,-1.632312,89.0
95,0.6431608,-2.530777,-1.9415512,-2.5063477,0.5533081,-1.8001099,89.0
96,0.8309231,-3.1677094,-1.8851013,-2.5063477,0.5533081,-1.8001099,89.0
97,0.8309231,-3.1677094,-1.8851013,-2.6359131,0.5787964,-1.9487915,89.0
98,0.9082804,-3.2732391,-1.7421875,-2.6359131,0.5787964,-1.9487915,89.0
99,0.9082804,-3.2732391,-1.7421875,-2.8642457,0.51082766,-2.090039,89.0
100,0.9567394,-3.0587158,-1.6111336,-2.8642457,0.51082766,-2.090039,89.0
101,0.9567394,-3.0587158,-1.6111336,-3.165857,0.42692873,-2.2514648,89.0
102,1.0953598,-2.9573822,-1.5564957,-3.165857,0.42692873,-2.2514648,89.0
103,1.0953598,-2.9573822,-1.5564957,-3.435608,0.35895997,-2.4787354,89.0
104,1.319953,-3.1792984,-1.5445137,-3.435608,0.35895997,-2.4787354,89.0
105,1.319953,-3.1792984,-1.5445137,-3.6777465,0.29417726,-2.720874,89.0
106,1.5912409,-3.6603699,-1.5869675,-3.6777465,0.29417726,-2.720874,89.0
107,1.5912409,-3.6603699,-1.5869675,-3.7775757,0.28355715,-2.9407105,89.0
108,1.8937931,-4.1783676,-1.6975899,-3.7775757,0.28355715,-2.9407105,89.0
109,1.8937931,-4.1783676,-1.6975899,-3.4855225,0.13806152,-3.2009034,89.0
110,2.1731033,-4.338608,-1.6720619,-3.4855225,0.13806152,-3.2009034,89.0
111,2.1731033,-4.338608,-1.6720619,-3.2125854,-0.13168946,-3.443042,89.0
112,2.5069885,-3.909813,-1.4923744,-3.2125854,-0.13168946,-3.443042,89.0
113,2.5069885,-3.909813,-1.4923744,-3.3878174,-0.33878174,-3.714917,89.0
114,3.011035,-3.2689285,-1.5300217,-3.3878174,-0.33878174,-3.714917,89.0
115,3.011035,-3.2689285,-1.5300217,-3.810498,-0.3451538,-3.9485595,89.0
116,3.5692282,-2.9083405,-1.9282761,-3.810498,-0.3451538,-3.9485595,89.0
117,3.5692282,-2.9083405,-1.9282761,-4.330884,-0.2888672,-4.1599,89.0
118,4.0732293,-2.927414,-2.504818,-4.330884,-0.2888672,-4.1599,89.0
119,4.0732293,-2.927414,-2.504818,-4.6569214,-0.20921631,-4.3075194,89.0
120,4.562282,-3.1632385,-3.0593872,-4.6569214,-0.20921631,-4.3075194,89.0
121,4.562282,-3.1632385,-3.0593872,-4.6484256,-0.03079834,-4.341504,89.0
122,4.887765,-3.4139023,-3.447216,-4.6484256,-0.03079834,-4.341504,89.0
123,4.887765,-3.4139023,-3.447216,-4.0908694,-0.10195313,-4.166272,89.0
124,4.940803,-3.5162964,-3.512436,-4.0908694,-0.10195313,-4.166272,89.0
125,4.940803,-3.5162964,-3.512436,-3.263562,-0.098767094,-3.8508546,89.0
126,4.7680597,-3.4057846,-3.165245,-3.263562,-0.098767094,-3.8508546,89.0
127,4.7680597,-3.4057846,-3.165245,-2.073047,-0.21877442,-3.4196777,89.0
128,4.372346,-3.009201,-2.6203918,-2.073047,-0.21877442,-3.4196777,89.0
129,4.372346,-3.009201,-2.6203918,-1.1321045,-0.29417726,-2.7962768,89.0
130,3.7582529,-2.2500458,-2.1433487,-1.1321045,-0.29417726,-2.7962768,89.0
131,3.7582529,-2.2500458,-2.1433487,-0.43754885,-0.2899292,-2.162256,89.0
132,2.9698224,-1.170517,-1.7999115,-0.43754885,-0.2899292,-2.162256,89.0
133,2.9698224,-1.170517,-1.7999115,-0.2357666,-0.21983643,-1.6131958,89.0
134,2.0658116,-7.4005127E-4,-1.4780884,-0.2357666,-0.21983643,-1.6131958,89.0
135,2.0658116,-7.4005127E-4,-1.4780884,-0.4056885,-0.08814698,-1.2329956,89.0
136,1.2174196,0.7665863,-1.2481308,-0.4056885,-0.08814698,-1.2329956,89.0
137,1.2174196,0.7665863,-1.2481308,-0.7688965,0.107263185,-0.991919,89.0
138,0.55163336,0.91031647,-1.2242126,-0.7688965,0.107263185,-0.991919,89.0
139,0.55163336,0.91031647,-1.2242126,-1.0333375,0.27718505,-0.83474123,89.0
140,0.07314253,0.69353485,-1.3602676,-1.0333375,0.27718505,-0.83474123,89.0
141,0.07314253,0.69353485,-1.3602676,-1.1246704,0.4248047,-0.70092773,89.0
142,-0.264179,0.51908875,-1.4364815,-1.1246704,0.4248047,-0.70092773,89.0
143,-0.264179,0.51908875,-1.4364815,-1.0726318,0.5214478,-0.5649902,89.0
144,-0.46312547,0.59882355,-1.3802643,-1.0726318,0.5214478,-0.5649902,89.0
145,-0.46312547,0.59882355,-1.3802643,-1.0248413,0.57454836,-0.4598511,89.0
146,-0.5375047,0.81173706,-1.3279877,-1.0248413,0.57454836,-0.4598511,89.0
147,-0.5375047,0.81173706,-1.3279877,-1.0428956,0.6159668,-0.36639404,89.0
148,-0.45941043,0.92085266,-1.3168716,-1.0428956,0.6159668,-0.36639404,89.0
149,-0.45941043,0.92085266,-1.3168716,-1.0609497,0.6510132,-0.26337892,89.0
150,-0.2462027,0.852417,-1.3265915,-1.0609497,0.6510132,-0.26337892,89.0
151,-0.2462027,0.852417,-1.3265915,-1.0375855,0.6287109,-0.15930176,89.0
152,0.03945136,0.72080994,-1.3323059,-1.0375855,0.6287109,-0.15930176,89.0
153,0.03945136,0.72080994,-1.3323059,-0.98873293,0.5979126,-0.05522461,89.0
154,0.29984713,0.6455536,-1.2235107,-0.98873293,0.5979126,-0.05522461,89.0
155,0.29984713,0.6455536,-1.2235107,-0.9547486,0.5703003,0.04885254,89.0
156,0.46152067,0.6220474,-1.023571,-0.9547486,0.5703003,0.04885254,89.0
157,0.46152067,0.6220474,-1.023571,-0.9154541,0.54693604,0.15930176,89.0
158,0.46152067,0.6220474,-1.023571,-0.9154541,0.54693604,0.15930176,89.0
159,0.46275902,0.61465454,-0.851902,-0.9154541,0.54693604,0.15930176,89.0
160,0.46275902,0.61465454,-0.851902,-0.9122681,0.5033936,0.2793091,89.0
161,0.3601122,0.6154556,-0.7332802,-0.9122681,0.5033936,0.2793091,89.0
162,0.3601122,0.6154556,-0.7332802,-0.88359374,0.42161867,0.39188233,89.0
163,0.24332643,0.6250305,-0.6763458,-0.88359374,0.42161867,0.39188233,89.0
164,0.24332643,0.6250305,-0.6763458,-0.811377,0.33771974,0.4991455,89.0
165,0.1493609,0.6190033,-0.6281853,-0.811377,0.33771974,0.4991455,89.0
166,0.1493609,0.6190033,-0.6281853,-0.6669434,0.25700685,0.5798584,89.0
167,0.07455468,0.5994034,-0.4773178,-0.6669434,0.25700685,0.5798584,89.0
168,0.07455468,0.5994034,-0.4773178,-0.52675784,0.17416993,0.6510132,89.0
169,0.044885397,0.5940857,-0.2509346,-0.52675784,0.17416993,0.6510132,89.0
170,0.044885397,0.5940857,-0.2509346,-0.48533937,0.0998291,0.6945557,89.0
171,0.10321784,0.5892334,-0.13380432,-0.48533937,0.0998291,0.6945557,89.0
172,0.10321784,0.5892334,-0.13380432,-0.44816896,0.045666505,0.7041138,89.0
173,0.18254995,0.5591278,-0.14601898,-0.44816896,0.045666505,0.7041138,89.0
174,0.18254995,0.5591278,-0.14601898,-0.36320803,0.011682129,0.6966797,89.0
175,0.20564675,0.52749634,-0.10405731,-0.36320803,0.011682129,0.6966797,89.0
176,0.20564675,0.52749634,-0.10405731,-0.29311523,-0.02442627,0.6956177,89.0
177,0.2097323,0.4994812,0.08412552,-0.29311523,-0.02442627,0.6956177,89.0
178,0.2097323,0.4994812,0.08412552,-0.29205322,-0.035046387,0.6754395,89.0
179,0.23211694,0.4761734,0.29122543,-0.29205322,-0.035046387,0.6754395,89.0
180,0.23211694,0.4761734,0.29122543,-0.29948732,-0.045666505,0.62977296,89.0
181,0.34359145,0.4808197,0.30425644,-0.29948732,-0.045666505,0.62977296,89.0
182,0.34359145,0.4808197,0.30425644,-0.36320803,-0.04248047,0.51188964,89.0
183,0.7091627,0.42658997,0.16066742,-0.36320803,-0.04248047,0.51188964,89.0
184,0.7091627,0.42658997,0.16066742,-0.34833986,-0.033984374,0.29523927,89.0
185,1.1926599,0.26182556,0.19619751,-0.34833986,-0.033984374,0.29523927,89.0
186,1.1926599,0.26182556,0.19619751,-0.27293703,-0.07327881,0.09664307,89.0
187,1.3818378,0.16261292,0.3943138,-0.27293703,-0.07327881,0.09664307,89.0
188,1.3818378,0.16261292,0.3943138,-0.36533204,-0.07752686,-0.13275146,89.0
189,1.1588516,0.21109772,0.4239235,-0.36533204,-0.07752686,-0.13275146,89.0
190,1.1588516,0.21109772,0.4239235,-0.5299439,-0.12956543,-0.26337892,89.0
191,0.45536518,0.31482697,0.24359512,-0.5299439,-0.12956543,-0.26337892,89.0
192,0.45536518,0.31482697,0.24359512,-0.4991455,-0.29099122,-0.21452637,89.0
193,-0.48207045,0.44205475,0.05312729,-0.4991455,-0.29099122,-0.21452637,89.0
194,-0.48207045,0.44205475,0.05312729,-0.22727051,-0.42799073,-0.060534667,89.0
195,-1.0508299,0.5640564,-0.14324188,-0.22727051,-0.42799073,-0.060534667,89.0
196,-1.0508299,0.5640564,-0.14324188,0.078588866,-0.4056885,0.16036378,89.0
197,-1.0492578,0.65031433,-0.41262817,0.078588866,-0.4056885,0.16036378,89.0
198,-1.0492578,0.65031433,-0.41262817,0.24638672,-0.17841797,0.4078125,89.0
199,-0.7344625,0.7544098,-0.6952629,0.24638672,-0.17841797,0.4078125,89.0
200,-0.7344625,0.7544098,-0.6952629,0.14655761,0.17947999,0.62340087,89.0
201,-0.4697845,0.91249084,-0.91804886,0.14655761,0.17947999,0.62340087,89.0
202,-0.4697845,0.91249084,-0.91804886,-0.28780517,0.6042847,0.77314454,89.0
203,-0.41126442,1.1504059,-1.160965,-0.28780517,0.6042847,0.77314454,89.0
204,-0.41126442,1.1504059,-1.160965,-0.85704345,0.9600586,0.7943848,89.0
205,-0.40717316,1.2149048,-1.2474861,-0.85704345,0.9600586,0.7943848,89.0
206,-0.40717316,1.2149048,-1.2474861,-1.1459106,1.1140503,0.74022216,89.0
207,-0.5851135,1.6023026,-1.7502365,-1.1459106,1.1140503,0.74022216,89.0
208,-0.5851135,1.6023026,-1.7502365,-1.8011719,1.4199097,0.46622315,89.0
209,-0.5010011,1.4720764,-1.7785225,-1.8011719,1.4199097,0.46622315,89.0
210,-0.5010011,1.4720764,-1.7785225,-1.9509156,1.4995606,0.35789797,89.0
211,-0.64113283,1.1459122,-1.9369774,-1.9509156,1.4995606,0.35789797,89.0
212,-0.64113283,1.1459122,-1.9369774,-2.18562,1.6524903,0.040356446,89.0
213,-0.49429035,1.0391083,-1.7654877,-2.18562,1.6524903,0.040356446,89.0
214,-0.49429035,1.0391083,-1.7654877,-2.2365968,1.6769165,-0.046728518,89.0
215,-0.6518655,0.89632416,-1.4213982,-2.2365968,1.6769165,-0.046728518,89.0
216,-0.6518655,0.89632416,-1.4213982,-2.2981935,1.6386842,-0.27612305,89.0
217,-0.38770342,0.9280319,-1.2350922,-2.2981935,1.6386842,-0.27612305,89.0
218,-0.38770342,0.9280319,-1.2350922,-2.2886353,1.6089478,-0.3355957,89.0
219,-0.019635439,0.71403503,-0.97071457,-2.2886353,1.6089478,-0.3355957,89.0
220,-0.019635439,0.71403503,-0.97071457,-2.179248,1.4974365,-0.48109132,89.0
221,0.2495625,0.6537628,-0.9097748,-2.179248,1.4974365,-0.48109132,89.0
222,0.2495625,0.6537628,-0.9097748,-2.1027832,1.454956,-0.5214478,89.0
223,0.43108296,0.15447998,-0.8831177,-2.1027832,1.454956,-0.5214478,89.0
224,0.43108296,0.15447998,-0.8831177,-1.725769,1.2924683,-0.65844727,89.0
225,0.5221002,0.19488525,-0.8126831,-1.725769,1.2924683,-0.65844727,89.0
226,0.5221002,0.19488525,-0.8126831,-1.6100098,1.2319336,-0.70942384,89.0
227,0.47300243,0.18885803,-0.7659683,-1.6100098,1.2319336,-0.70942384,89.0
228,0.47300243,0.18885803,-0.7659683,-1.4963745,1.0609497,-0.8687256,89.0
229,0.5071373,0.36315918,-0.66726685,-1.4963745,1.0609497,-0.8687256,89.0
230,0.5071373,0.36315918,-0.66726685,-1.4740723,0.99510497,-0.9218262,89.0
231,0.4108367,0.33674622,-0.53889084,-1.4740723,0.99510497,-0.9218262,89.0
232,0.4108367,0.33674622,-0.53889084,-1.3328247,0.76677245,-1.0736939,89.0
233,0.44398928,0.41996002,-0.4508896,-1.3328247,0.76677245,-1.0736939,89.0
234,0.44398928,0.41996002,-0.4508896,-1.3083985,0.6881836,-1.1299804,89.0
235,0.4775424,0.39643097,-0.36006546,-1.3083985,0.6881836,-1.1299804,89.0
236,0.4775424,0.39643097,-0.36006546,-1.2478638,0.5320679,-1.2468017,89.0
237,0.55067396,0.43115997,-0.27212143,-1.2478638,0.5320679,-1.2468017,89.0
238,0.55067396,0.43115997,-0.27212143,-1.174585,0.36851808,-1.357251,89.0
239,0.6570432,0.42699432,-0.18404388,-1.174585,0.36851808,-1.357251,89.0
240,0.6570432,0.42699432,-0.18404388,-1.0620117,0.22939454,-1.4666382,89.0
241,0.78060293,0.36747742,-0.08389282,-1.0620117,0.22939454,-1.4666382,89.0
242,0.78060293,0.36747742,-0.08389282,-0.8485474,0.053100586,-1.5792115,89.0
243,1.0219922,0.22779083,0.13640213,-0.8485474,0.053100586,-1.5792115,89.0
244,1.0219922,0.22779083,0.13640213,-0.6690674,-0.12531738,-1.6684204,89.0
245,0.99184895,0.2850876,0.15855789,-0.6690674,-0.12531738,-1.6684204,89.0
246,0.99184895,0.2850876,0.15855789,-0.5692383,-0.1731079,-1.6662964,89.0
247,1.0285254,0.2527542,0.23316956,-0.5692383,-0.1731079,-1.6662964,89.0
248,1.0285254,0.2527542,0.23316956,-0.3419678,-0.26444092,-1.6599244,89.0
249,1.0672903,0.28925323,0.3089981,-0.3419678,-0.26444092,-1.6599244,89.0
250,1.0672903,0.28925323,0.3089981,-0.29948732,-0.29099122,-1.6238159,89.0
251,1.2063465,0.21168518,0.4018364,-0.29948732,-0.29099122,-1.6238159,89.0
252,1.2063465,0.21168518,0.4018364,-0.16779785,-0.33240968,-1.5611572,89.0
253,1.3190932,-0.021446228,0.49095154,-0.16779785,-0.33240968,-1.5611572,89.0
254,1.3190932,-0.021446228,0.49095154,0.011682129,-0.36639404,-1.4740723,89.0
255,1.300416,-0.18164825,0.5890007,0.011682129,-0.36639404,-1.4740723,89.0
256,1.300416,-0.18164825,0.5890007,0.13381349,-0.3430298,-1.2988404,89.0
257,1.3336191,-0.21045685,0.62652206,0.13381349,-0.3430298,-1.2988404,89.0
258,1.3336191,-0.21045685,0.62652206,0.12213135,-0.29630128,-1.0917481,89.0
259,1.5808115,-0.2744522,0.51187515,0.12213135,-0.29630128,-1.0917481,89.0
260,1.5808115,-0.2744522,0.51187515,0.17523193,-0.29630128,-0.8708496,89.0
261,1.7166271,-0.4881897,0.30005264,0.17523193,-0.29630128,-0.8708496,89.0
262,1.7166271,-0.4881897,0.30005264,0.33665773,-0.31966552,-0.60322267,89.0
263,1.3067493,-0.67165375,0.121097565,0.33665773,-0.31966552,-0.60322267,89.0
264,1.3067493,-0.67165375,0.121097565,0.33665773,-0.31966552,-0.60322267,89.0
265,1.3067493,-0.67165375,0.121097565,0.67650145,-0.33134767,-0.1731079,89.0
266,0.42918873,-0.5401764,0.023269653,0.67650145,-0.33134767,-0.1731079,89.0
267,0.42918873,-0.5401764,0.023269653,0.8889038,-0.270813,0.35577393,89.0
268,-0.3399253,-0.103904724,-0.0678215,0.8889038,-0.270813,0.35577393,89.0
269,-0.3399253,-0.103904724,-0.0678215,0.99935305,-0.20178223,0.84536135,89.0
270,-0.68635654,0.2558899,-0.12908554,0.99935305,-0.20178223,0.84536135,89.0
271,-0.68635654,0.2558899,-0.12908554,0.92926025,-0.10620117,1.260608,89.0
272,-0.7856941,0.44490814,-0.16996765,0.92926025,-0.10620117,1.260608,89.0
273,-0.7856941,0.44490814,-0.16996765,0.6595093,0.029736329,1.5866455,89.0
274,-0.83833313,0.43482208,-0.26988602,0.6595093,0.029736329,1.5866455,89.0
275,-0.83833313,0.43482208,-0.26988602,0.46516114,0.1263794,1.8394043,89.0
276,-0.85562706,0.22014618,-0.39654922,0.46516114,0.1263794,1.8394043,89.0
277,-0.85562706,0.22014618,-0.39654922,0.4609131,0.16567384,2.0082643,89.0
278,-0.71868134,-0.13807678,-0.46253967,0.4609131,0.16567384,2.0082643,89.0
279,-0.71868134,-0.13807678,-0.46253967,0.7041138,0.1709839,2.1091554,89.0
280,-0.38781166,-0.51685333,-0.43605804,0.7041138,0.1709839,2.1091554,89.0
281,-0.38781166,-0.51685333,-0.43605804,1.0821899,0.21027832,2.1080933,89.0
282,0.031474113,-0.7745819,-0.34867477,1.0821899,0.21027832,2.1080933,89.0
283,0.031474113,-0.7745819,-0.34867477,1.2043213,0.30161133,2.0178223,89.0
284,0.27998877,-0.88916016,-0.24020767,1.2043213,0.30161133,2.0178223,89.0
285,0.27998877,-0.88916016,-0.24020767,1.1947632,0.42161867,1.9604737,89.0
286,0.21052647,-0.7566376,-0.2036171,1.1947632,0.42161867,1.9604737,89.0
287,0.21052647,-0.7566376,-0.2036171,0.8857178,0.55755615,1.9785279,89.0
288,-0.08030939,-0.47118378,-0.26018143,0.8857178,0.55755615,1.9785279,89.0
289,-0.08030939,-0.47118378,-0.26018143,0.5150757,0.60959476,2.0284424,89.0
290,-0.49404526,-0.31659698,-0.32385635,0.5150757,0.60959476,2.0284424,89.0
291,-0.49404526,-0.31659698,-0.32385635,0.31329346,0.59260255,2.073047,89.0
292,-0.8962374,-0.32312775,-0.34169006,0.31329346,0.59260255,2.073047,89.0
293,-0.8962374,-0.32312775,-0.34169006,0.21558838,0.53525394,2.1176515,89.0
294,-1.1690774,-0.38807678,-0.3007698,0.21558838,0.53525394,2.1176515,89.0
295,-1.1690774,-0.38807678,-0.3007698,0.22514649,0.48109132,2.092163,89.0
296,-1.3744345,-0.45606995,-0.24194717,0.22514649,0.48109132,2.092163,89.0
297,-1.3744345,-0.45606995,-0.24194717,0.33878174,0.40144044,2.0220704,89.0
298,-1.6359367,-0.51114655,-0.147892,0.33878174,0.40144044,2.0220704,89.0
299,-1.6359367,-0.51114655,-0.147892,0.55543214,0.26125488,1.9222412,89.0
300,-1.9919157,-0.46858215,0.025730133,0.55543214,0.26125488,1.9222412,89.0
301,-1.9919157,-0.46858215,0.025730133,0.77314454,0.09451904,1.7501954,89.0
302,-2.4224634,-0.34688568,0.272377,0.77314454,0.09451904,1.7501954,89.0
303,-2.4224634,-0.34688568,0.272377,0.996167,-0.10407715,1.545227,89.0
304,-2.7218697,-0.29483032,0.63113403,0.996167,-0.10407715,1.545227,89.0
305,-2.7218697,-0.29483032,0.63113403,1.2776002,-0.29736328,1.2818482,89.0
306,-2.5928645,-0.40473938,1.0478134,1.2776002,-0.29736328,1.2818482,89.0
307,-2.5928645,-0.40473938,1.0478134,1.5537232,-0.45029297,0.95368654,89.0
308,-2.025781,-0.5957184,1.2886047,1.5537232,-0.45029297,0.95368654,89.0
309,-2.025781,-0.5957184,1.2886047,1.725769,-0.541626,0.5787964,89.0
310,-1.3010569,-0.7501068,1.2817764,1.725769,-0.541626,0.5787964,89.0
311,-1.3010569,-0.7501068,1.2817764,1.7650635,-0.58410645,0.17735596,89.0
312,-0.54027176,-0.8228378,1.1997871,1.7650635,-0.58410645,0.17735596,89.0
313,-0.54027176,-0.8228378,1.1997871,1.6397461,-0.5883545,-0.21452637,89.0
314,0.27745056,-0.82019806,1.2077675,1.6397461,-0.5883545,-0.21452637,89.0
315,0.27745056,-0.82019806,1.2077675,1.3476928,-0.56392825,-0.59260255,89.0
316,1.0310669,-0.79467773,1.2817535,1.3476928,-0.56392825,-0.59260255,89.0
317,1.0310669,-0.79467773,1.2817535,0.996167,-0.52038574,-0.9281983,89.0
318,1.587842,-0.75849915,1.3098412,0.996167,-0.52038574,-0.9281983,89.0
319,1.587842,-0.75849915,1.3098412,0.59047854,-0.42905274,-1.1671509,89.0
320,1.938633,-0.6933594,1.221775,0.59047854,-0.42905274,-1.1671509,89.0
321,1.938633,-0.6933594,1.221775,0.121069334,-0.25913087,-1.2786621,89.0
322,2.259244,-0.56336975,0.9375534,0.121069334,-0.25913087,-1.2786621,89.0
323,2.259244,-0.56336975,0.9375534,-0.32072756,-0.13806152,-1.4039795,89.0
324,2.8274517,-0.40084076,0.39774704,-0.32072756,-0.13806152,-1.4039795,89.0
325,2.8274517,-0.40084076,0.39774704,-0.7827026,-0.083898924,-1.5919555,89.0
326,3.3657823,-0.27928162,-0.23264313,-0.7827026,-0.083898924,-1.5919555,89.0
327,3.3657823,-0.27928162,-0.23264313,-1.3317627,-0.033984374,-1.7703736,89.0
328,3.0005727,-0.2288208,-0.58384323,-1.3317627,-0.033984374,-1.7703736,89.0
329,3.0005727,-0.2288208,-0.58384323,-1.7724975,-0.02442627,-1.8213501,89.0
330,1.6002502,-0.16365051,-0.50359726,-1.7724975,-0.02442627,-1.8213501,89.0
331,1.6002502,-0.16365051,-0.50359726,-1.901001,0.007434082,-1.6535523,89.0
332,0.18051767,-0.08072662,-0.12736511,-1.901001,0.007434082,-1.6535523,89.0
333,0.18051767,-0.08072662,-0.12736511,-1.6694825,0.05522461,-1.3158325,89.0
334,-0.43573713,0.047683716,0.14727783,-1.6694825,0.05522461,-1.3158325,89.0
335,-0.43573713,0.047683716,0.14727783,-1.2999023,0.093457036,-0.903772,89.0
336,-0.37189293,0.41251373,-0.077430725,-1.2999023,0.093457036,-0.903772,89.0
337,-0.37189293,0.41251373,-0.077430725,-1.1246704,0.13699952,-0.52250975,89.0
338,-0.19912577,0.9550705,-0.72740936,-1.1246704,0.13699952,-0.52250975,89.0
339,-0.19912577,0.9550705,-0.72740936,-1.0503296,0.12000733,-0.28355715,89.0
340,-0.38123655,1.342804,-1.3144112,-1.0503296,0.12000733,-0.28355715,89.0
341,-0.38123655,1.342804,-1.3144112,-1.1034302,0.08071289,-0.17523193,89.0
342,-0.94859266,1.3855286,-1.4564362,-1.1034302,0.08071289,-0.17523193,89.0
343,-0.94859266,1.3855286,-1.4564362,-1.1459106,-0.007434082,-0.15186767,89.0
344,-1.6091914,1.2870483,-1.1881943,-1.1459106,-0.007434082,-0.15186767,89.0
345,-1.6091914,1.2870483,-1.1881943,-1.2372437,-0.06690674,-0.19434814,89.0
346,-2.0830073,1.2404022,-0.842926,-1.2372437,-0.06690674,-0.19434814,89.0
347,-2.0830073,1.2404022,-0.842926,-1.1724609,-0.13699952,-0.24532472,89.0
348,-2.2393432,1.2211075,-0.65050125,-1.1724609,-0.13699952,-0.24532472,89.0
349,-2.2393432,1.2211075,-0.65050125,-1.0386475,-0.15611573,-0.32497558,89.0
350,-2.1108716,1.1943054,-0.6017494,-1.0386475,-0.15611573,-0.32497558,89.0
351,-2.1108716,1.1943054,-0.6017494,-0.9483765,-0.17523193,-0.42799073,89.0
352,-1.8271859,1.1916885,-0.59861374,-0.9483765,-0.17523193,-0.42799073,89.0
353,-1.8271859,1.1916885,-0.59861374,-0.9759888,-0.1731079,-0.5915405,89.0
354,-1.4425592,1.2298889,-0.5851059,-0.9759888,-0.1731079,-0.5915405,89.0
355,-1.4425592,1.2298889,-0.5851059,-1.0726318,-0.17416993,-0.8379273,89.0
356,-0.9811106,1.0751266,-0.4238472,-1.0726318,-0.17416993,-0.8379273,89.0
357,-0.9811106,1.0751266,-0.4238472,-1.4092896,-0.16248779,-1.0535157,89.0
358,-0.36860418,0.5580902,0.057064056,-1.4092896,-0.16248779,-1.0535157,89.0
359,-0.36860418,0.5580902,0.057064056,-1.5218629,0.043542482,-1.2298096,89.0
360,0.321352,0.14762878,0.55688095,-1.5218629,0.043542482,-1.2298096,89.0
361,0.321352,0.14762878,0.55688095,-1.6461182,0.13062744,-1.358313,89.0
362,0.9270768,0.08274841,0.6372299,-1.6461182,0.13062744,-1.358313,89.0
363,0.9270768,0.08274841,0.6372299,-1.5813354,0.32072756,-1.450708,89.0
364,1.4576404,0.03161621,0.26565552,-1.5813354,0.32072756,-1.450708,89.0
365,1.4576404,0.03161621,0.26565552,-1.0418335,0.4322388,-1.4241577,89.0
366,1.7476797,-0.0898819,-0.25857162,-1.0418335,0.4322388,-1.4241577,89.0
367,1.7476797,-0.0898819,-0.25857162,-0.36427003,0.3334717,-1.3243287,89.0
368,1.6992302,0.014213562,-0.5708847,-0.36427003,0.3334717,-1.3243287,89.0
369,1.6992302,0.014213562,-0.5708847,0.10195313,0.052038576,-1.1990112,89.0
370,1.4384856,0.44860077,-0.56900024,0.10195313,0.052038576,-1.1990112,89.0
371,1.4384856,0.44860077,-0.56900024,0.18372802,-0.20921631,-1.002539,89.0
372,1.4384856,0.44860077,-0.56900024,0.18372802,-0.20921631,-1.002539,89.0
373,1.1172924,0.81494904,-0.3716545,0.18372802,-0.20921631,-1.002539,89.0
374,1.1172924,0.81494904,-0.3716545,0.15186767,-0.35577393,-0.75509036,89.0
375,0.87816,0.7762604,-0.15884781,0.15186767,-0.35577393,-0.75509036,89.0
376,0.87816,0.7762604,-0.15884781,0.16779785,-0.42374268,-0.50445557,89.0
377,0.7769542,0.5217743,-0.032341003,0.16779785,-0.42374268,-0.50445557,89.0
378,0.7769542,0.5217743,-0.032341003,0.19647217,-0.38232422,-0.3079834,89.0
379,0.79866314,0.29724884,0.12641144,0.19647217,-0.38232422,-0.3079834,89.0
380,0.79866314,0.29724884,0.12641144,0.21134034,-0.2824951,-0.20284425,89.0
381,0.8664942,0.10324097,0.41197968,0.21134034,-0.2824951,-0.20284425,89.0
382,0.8664942,0.10324097,0.41197968,0.14018555,-0.13381349,-0.1444336,89.0
383,0.82583666,-0.02960205,0.6472359,0.14018555,-0.13381349,-0.1444336,89.0
384,0.82583666,-0.02960205,0.6472359,-0.078588866,0.039294433,-0.06903076,89.0
385,0.5948491,0.072769165,0.60118866,-0.078588866,0.039294433,-0.06903076,89.0
386,0.5948491,0.072769165,0.60118866,-0.39400634,0.21240234,0.028674318,89.0
387,0.21950722,0.3906784,0.2574768,-0.39400634,0.21240234,0.028674318,89.0
388,0.21950722,0.3906784,0.2574768,-0.6552612,0.28674316,0.06796875,89.0
389,-0.056559563,0.5681839,-0.20019531,-0.6552612,0.28674316,0.06796875,89.0
390,-0.056559563,0.5681839,-0.20019531,-0.7041138,0.25913087,-0.010620117,89.0
391,0.1378212,0.22200012,-0.55270004,-0.7041138,0.25913087,-0.010620117,89.0
392,0.1378212,0.22200012,-0.55270004,-0.3727661,0.11151123,-0.270813,89.0
393,0.7356844,-0.6695404,-0.50671005,-0.3727661,0.11151123,-0.270813,89.0
394,0.7356844,-0.6695404,-0.50671005,0.47684327,-0.013806152,-0.5851685,89.0
395,1.1424417,-1.5022812,-0.034553528,0.47684327,-0.013806152,-0.5851685,89.0
396,1.1424417,-1.5022812,-0.034553528,1.364685,-0.07115479,-0.7954468,89.0
397,0.94525194,-1.7358932,0.32009888,1.364685,-0.07115479,-0.7954468,89.0
398,0.94525194,-1.7358932,0.32009888,2.0146363,-0.040356446,-0.78164065,89.0
399,0.49494648,-1.6286774,0.19985199,2.0146363,-0.040356446,-0.78164065,89.0
400,0.49494648,-1.6286774,0.19985199,2.613611,-0.09451904,-0.4800293,89.0
401,0.5165868,-1.5682755,0.0053634644,2.613611,-0.09451904,-0.4800293,89.0
402,0.5165868,-1.5682755,0.0053634644,2.9279664,-0.08602295,0.087084964,89.0
403,1.1476936,-1.6537323,0.108867645,2.9279664,-0.08602295,0.087084964,89.0
404,1.1476936,-1.6537323,0.108867645,2.8578737,0.06159668,0.86341554,89.0
405,1.7238803,-1.6501846,0.25966644,2.8578737,0.06159668,0.86341554,89.0
406,1.7238803,-1.6501846,0.25966644,2.4553711,0.2262085,1.7151489,89.0
407,1.6382837,-1.1547928,0.18040085,2.4553711,0.2262085,1.7151489,89.0
408,1.6382837,-1.1547928,0.18040085,1.8670167,0.3451538,2.35448,89.0
409,0.87146664,-0.3997116,0.04372406,1.8670167,0.3451538,2.35448,89.0
410,0.87146664,-0.3997116,0.04372406,1.1469727,0.5161377,2.812207,89.0
411,-0.24469662,0.10108948,0.027580261,1.1469727,0.5161377,2.812207,89.0
412,-0.24469662,0.10108948,0.027580261,0.47790527,0.6924316,3.1286867,89.0
413,-1.3084402,0.2929077,-0.015827179,0.47790527,0.6924316,3.1286867,89.0
414,-1.3084402,0.2929077,-0.015827179,-0.04885254,0.8485474,3.3665771,89.0
415,-2.0200434,0.2537079,-0.22906876,-0.04885254,0.8485474,3.3665771,89.0
416,-2.0200434,0.2537079,-0.22906876,-0.31860352,0.89846194,3.5152588,89.0
417,-2.3403754,0.1323471,-0.56357574,-0.31860352,0.89846194,3.5152588,89.0
418,-2.3403754,0.1323471,-0.56357574,-0.3451538,0.85704345,3.5683594,89.0
419,-2.4070902,0.058395386,-0.7916565,-0.3451538,0.85704345,3.5683594,89.0
420,-2.4070902,0.058395386,-0.7916565,-0.19647217,0.7720825,3.5025146,89.0
421,-2.379981,0.0118637085,-0.77150726,-0.19647217,0.7720825,3.5025146,89.0
422,-2.379981,0.0118637085,-0.77150726,0.058410645,0.68712157,3.2986085,89.0
423,-2.361846,-0.062149048,-0.5351639,0.058410645,0.68712157,3.2986085,89.0
424,-2.361846,-0.062149048,-0.5351639,0.3154175,0.6223389,2.9789429,89.0
425,-2.4399037,-0.14955139,-0.18976593,0.3154175,0.6223389,2.9789429,89.0
426,-2.4399037,-0.14955139,-0.18976593,0.5076416,0.5533081,2.5976808,89.0
427,-2.648029,-0.14438629,0.1384201,0.5076416,0.5533081,2.5976808,89.0
428,-2.648029,-0.14438629,0.1384201,0.5607422,0.5012695,2.18562,89.0
429,-2.8181424,-0.024238586,0.40418243,0.5607422,0.5012695,2.18562,89.0
430,-2.8181424,-0.024238586,0.40418243,0.55543214,0.44179687,1.7735596,89.0
431,-2.7954443,0.10897827,0.5480881,0.55543214,0.44179687,1.7735596,89.0
432,-2.7954443,0.10897827,0.5480881,0.4609131,0.34940186,1.3391968,89.0
433,-2.5133452,0.113220215,0.52695847,0.4609131,0.34940186,1.3391968,89.0
434,-2.5133452,0.113220215,0.52695847,0.37701416,0.21134034,0.8782837,89.0
435,-1.92541,-0.09076691,0.45084,0.37701416,0.21134034,0.8782837,89.0
436,-1.92541,-0.09076691,0.45084,0.39506838,0.033984374,0.37595215,89.0
437,-1.0455039,-0.41249084,0.4774437,0.39506838,0.033984374,0.37595215,89.0
438,-1.0455039,-0.41249084,0.4774437,0.45560303,-0.16673584,-0.14655761,89.0
439,0.011363089,-0.7177582,0.62111664,0.45560303,-0.16673584,-0.14655761,89.0
440,0.011363089,-0.7177582,0.62111664,0.5320679,-0.36320803,-0.64995116,89.0
441,1.0418541,-0.8882828,0.83579636,0.5320679,-0.36320803,-0.64995116,89.0
442,1.0418541,-0.8882828,0.83579636,0.5713623,-0.53525394,-1.0567017,89.0
443,1.7866938,-0.8316803,1.0633621,0.5713623,-0.53525394,-1.0567017,89.0
444,1.7866938,-0.8316803,1.0633621,0.4088745,-0.6149048,-1.3211426,89.0
445,2.1208103,-0.6214447,1.202034,0.4088745,-0.6149048,-1.3211426,89.0
446,2.1208103,-0.6214447,1.202034,0.16567384,-0.70305175,-1.5123047,89.0
447,2.4092093,-0.4344864,1.0864067,0.16567384,-0.70305175,-1.5123047,89.0
448,2.4092093,-0.4344864,1.0864067,-0.028674318,-0.85598147,-1.7703736,89.0
449,2.9262688,-0.40372467,0.726326,-0.028674318,-0.85598147,-1.7703736,89.0
450,2.9262688,-0.40372467,0.726326,-0.16673584,-1.0375855,-2.1367676,89.0
451,3.1603875,-0.51207733,0.34043503,-0.16673584,-1.0375855,-2.1367676,89.0
452,3.1603875,-0.51207733,0.34043503,-0.3536499,-1.1852051,-2.4638672,89.0
453,2.5556173,-0.5971832,0.22289658,-0.3536499,-1.1852051,-2.4638672,89.0
454,2.5556173,-0.5971832,0.22289658,-0.4343628,-1.2000732,-2.5913086,89.0
455,1.4192376,-0.58322906,0.53982925,-0.4343628,-1.2000732,-2.5913086,89.0
456,1.4192376,-0.58322906,0.53982925,-0.32391357,-1.0864381,-2.4054565,89.0
457,0.5166154,-0.41867065,0.9705353,-0.32391357,-1.0864381,-2.4054565,89.0
458,0.5166154,-0.41867065,0.9705353,-0.14655761,-0.88996583,-1.9657837,89.0
459,0.18937874,0.023460388,0.88681793,-0.14655761,-0.88996583,-1.9657837,89.0
460,0.18937874,0.023460388,0.88681793,-0.06584473,-0.7072998,-1.4857544,89.0
461,0.20053864,0.7138519,0.052814484,-0.06584473,-0.7072998,-1.4857544,89.0
462,0.20053864,0.7138519,0.052814484,-0.18797608,-0.5777344,-1.177771,89.0
463,0.107684135,1.2991486,-1.0093842,-0.18797608,-0.5777344,-1.177771,89.0
464,0.107684135,1.2991486,-1.0093842,-0.53737795,-0.5076416,-1.0821899,89.0
465,-0.29432154,1.497879,-1.5795174,-0.53737795,-0.5076416,-1.0821899,89.0
466,-0.29432154,1.497879,-1.5795174,-1.1310425,-0.41524658,-1.1055542,89.0
467,-0.92804766,1.3574219,-1.4465103,-1.1310425,-0.41524658,-1.1055542,89.0
468,-0.92804766,1.3574219,-1.4465103,-1.7597535,-0.30479738,-1.1862671,89.0
469,-1.5607734,1.0242844,-0.95840454,-1.7597535,-0.30479738,-1.1862671,89.0
470,-1.5607734,1.0242844,-0.95840454,-1.9466676,-0.2357666,-1.2510499,89.0
471,-1.8915143,0.75896454,-0.5730705,-1.9466676,-0.2357666,-1.2510499,89.0
472,-1.8915143,0.75896454,-0.5730705,-2.0220704,-0.11469727,-1.2829102,89.0
473,-1.8277621,0.7777405,-0.498497,-2.0220704,-0.11469727,-1.2829102,89.0
474,-1.8277621,0.7777405,-0.498497,-2.0188844,0.012744141,-1.3168945,89.0
475,-1.5035915,0.9300995,-0.6558151,-2.0188844,0.012744141,-1.3168945,89.0
476,-1.5035915,0.9300995,-0.6558151,-1.9190552,0.1263794,-1.4103516,89.0
477,-1.0710983,0.9303131,-0.8250313,-1.9190552,0.1263794,-1.4103516,89.0
478,-1.0710983,0.9303131,-0.8250313,-1.5993897,0.14230958,-1.5346069,89.0
479,-0.5578184,0.8328018,-0.83003235,-1.5993897,0.14230958,-1.5346069,89.0
480,-0.5578184,0.8328018,-0.83003235,-1.2744141,0.12213135,-1.628064,89.0
481,-0.5578184,0.8328018,-0.83003235,-1.2744141,0.12213135,-1.628064,89.0
482,0.039694786,0.75122833,-0.65665436,-1.2744141,0.12213135,-1.628064,89.0
483,0.039694786,0.75122833,-0.65665436,-1.1151123,0.16354981,-1.6705445,89.0
484,0.57976604,0.6271286,-0.41134644,-1.1151123,0.16354981,-1.6705445,89.0
485,0.57976604,0.6271286,-0.41134644,-0.9345703,0.14124756,-1.6142578,89.0
486,0.90585375,0.5617981,-0.22302246,-0.9345703,0.14124756,-1.6142578,89.0
487,0.90585375,0.5617981,-0.22302246,-0.85491943,0.107263185,-1.4698242,89.0
488,0.97825956,0.60500336,-0.11871338,-0.85491943,0.107263185,-1.4698242,89.0
489,0.97825956,0.60500336,-0.11871338,-0.7848267,0.05628662,-1.2595459,89.0
490,0.9023464,0.6363983,-0.013767242,-0.7848267,0.05628662,-1.2595459,89.0
491,0.9023464,0.6363983,-0.013767242,-0.6680054,-0.012744141,-1.0174073,89.0
492,0.8430805,0.5958252,0.13022232,-0.6680054,-0.012744141,-1.0174073,89.0
493,0.8430805,0.5958252,0.13022232,-0.4980835,-0.07540283,-0.7678345,89.0
494,0.8715105,0.49637604,0.26026917,-0.4980835,-0.07540283,-0.7678345,89.0
495,0.8715105,0.49637604,0.26026917,-0.33028564,-0.118945315,-0.541626,89.0
496,0.867362,0.42243958,0.3016243,-0.33028564,-0.118945315,-0.541626,89.0
497,0.867362,0.42243958,0.3016243,-0.21240234,-0.14549561,-0.3536499,89.0
498,0.72380924,0.40110016,0.25670624,-0.21240234,-0.14549561,-0.3536499,89.0
499,0.72380924,0.40110016,0.25670624,-0.13275146,-0.1444336,-0.20284425,89.0
500,0.62357855,0.33908844,0.21790314,-0.13275146,-0.1444336,-0.20284425,89.0
501,0.62357855,0.33908844,0.21790314,-0.03079834,-0.11257324,-0.093457036,89.0
502,0.76585484,0.17289734,0.23984909,-0.03079834,-0.11257324,-0.093457036,89.0
503,0.76585484,0.17289734,0.23984909,0.07115479,-0.057348635,-0.014868164,89.0
504,1.0201302,0.003501892,0.25758743,0.07115479,-0.057348635,-0.014868164,89.0
505,1.0201302,0.003501892,0.25758743,0.053100586,0.050976563,0.08814698,89.0
506,1.3162627,-0.049102783,0.14989471,0.053100586,0.050976563,0.08814698,89.0
507,1.3162627,-0.049102783,0.14989471,-0.09664307,0.1529297,0.15930176,89.0
508,1.7349434,-0.15013123,-0.11288452,-0.09664307,0.1529297,0.15930176,89.0
509,1.7349434,-0.15013123,-0.11288452,-0.07752686,0.14124756,0.14974366,89.0
510,1.9495025,-0.5317993,-0.3490486,-0.07752686,0.14124756,0.14974366,89.0
511,1.9495025,-0.5317993,-0.3490486,0.38232422,-0.0361084,0.1274414,89.0
512,1.4867873,-0.9398346,-0.37817764,0.38232422,-0.0361084,0.1274414,89.0
513,1.4867873,-0.9398346,-0.37817764,0.90270996,-0.09133301,0.24851075,89.0
514,0.62086296,-1.1059799,-0.27296448,0.90270996,-0.09133301,0.24851075,89.0
515,0.62086296,-1.1059799,-0.27296448,1.4592041,-0.10195313,0.49171144,89.0
516,0.14854622,-1.1816635,-0.20290375,1.4592041,-0.10195313,0.49171144,89.0
517,0.14854622,-1.1816635,-0.20290375,2.1038454,-0.124255374,0.79226077,89.0
518,0.47138834,-1.3208313,-0.1919632,2.1038454,-0.124255374,0.79226077,89.0
519,0.47138834,-1.3208313,-0.1919632,2.6380372,-0.095581055,1.1087402,89.0
520,1.1850204,-1.5332031,-0.19209671,2.6380372,-0.095581055,1.1087402,89.0
521,1.1850204,-1.5332031,-0.19209671,2.9407105,-0.008496094,1.4974365,89.0
522,1.6176205,-1.5260468,-0.19200897,2.9407105,-0.008496094,1.4974365,89.0
523,1.6176205,-1.5260468,-0.19200897,2.707068,0.1985962,1.8627685,89.0
524,1.3969164,-1.1410065,-0.18712616,2.707068,0.1985962,1.8627685,89.0
525,1.3969164,-1.1410065,-0.18712616,2.2376587,0.38551027,2.250403,89.0
526,0.46791172,-0.54154205,-0.12942505,2.2376587,0.38551027,2.250403,89.0
527,0.46791172,-0.54154205,-0.12942505,1.6025757,0.59897465,2.5668824,89.0
528,-0.8063593,0.032180786,0.0022850037,1.6025757,0.59897465,2.5668824,89.0
529,-0.8063593,0.032180786,0.0022850037,0.89208984,0.7986328,2.8568115,89.0
530,-1.901423,0.32834625,0.11442566,0.89208984,0.7986328,2.8568115,89.0
531,-1.901423,0.32834625,0.11442566,0.25806886,0.9685547,3.1095703,89.0
532,-2.50428,0.31765747,0.09804535,0.25806886,0.9685547,3.1095703,89.0
533,-2.50428,0.31765747,0.09804535,-0.17629395,1.0683838,3.3102906,89.0
534,-2.5914364,0.13314056,-0.023162842,-0.17629395,1.0683838,3.3102906,89.0
535,-2.5914364,0.13314056,-0.023162842,-0.36639404,1.1098022,3.42074,89.0
536,-2.3718548,-0.06816864,-0.16768646,-0.36639404,1.1098022,3.42074,89.0
537,-2.3718548,-0.06816864,-0.16768646,-0.35789797,1.1278565,3.4281738,89.0
538,-2.1075668,-0.20331573,-0.24604034,-0.35789797,1.1278565,3.4281738,89.0
539,-2.1075668,-0.20331573,-0.24604034,-0.21134034,1.1257324,3.3219726,89.0
540,-2.0138488,-0.22185516,-0.19777298,-0.21134034,1.1257324,3.3219726,89.0
541,-2.0138488,-0.22185516,-0.19777298,-0.06159668,1.1257324,3.1138184,89.0
542,-2.156013,-0.12696075,-0.036647797,-0.06159668,1.1257324,3.1138184,89.0
543,-2.156013,-0.12696075,-0.036647797,0.0361084,1.1406006,2.8302612,89.0
544,-2.4776301,0.031227112,0.13630676,0.0361084,1.1406006,2.8302612,89.0
545,-2.4776301,0.031227112,0.13630676,0.035046387,1.0991821,2.4829834,89.0
546,-2.8351924,0.15290833,0.21363449,0.035046387,1.0991821,2.4829834,89.0
547,-2.8351924,0.15290833,0.21363449,0.032922365,0.9388184,2.085791,89.0
548,-3.0226216,0.18119049,0.21126556,0.032922365,0.9388184,2.085791,89.0
549,-3.0226216,0.18119049,0.21126556,0.08920898,0.71154785,1.6333741,89.0
550,-2.937238,0.116744995,0.2852974,0.08920898,0.71154785,1.6333741,89.0
551,-2.937238,0.116744995,0.2852974,0.21452637,0.4704712,1.1490967,89.0
552,-2.5874736,-0.005836487,0.48501205,0.21452637,0.4704712,1.1490967,89.0
553,-2.5874736,-0.005836487,0.48501205,0.38232422,0.22302246,0.632959,89.0
554,-1.9344931,-0.20462036,0.6736069,0.38232422,0.22302246,0.632959,89.0
555,-1.9344931,-0.20462036,0.6736069,0.5171997,0.007434082,0.09133301,89.0
556,-1.0187005,-0.48905182,0.7706108,0.5171997,0.007434082,0.09133301,89.0
557,-1.0187005,-0.48905182,0.7706108,0.632959,-0.23364258,-0.45135498,89.0
558,-0.047736228,-0.76008606,0.8298416,0.632959,-0.23364258,-0.45135498,89.0
559,-0.047736228,-0.76008606,0.8298416,0.63933104,-0.46622315,-0.9547486,89.0
560,0.7046211,-0.87542725,0.9352722,0.63933104,-0.46622315,-0.9547486,89.0
561,0.7046211,-0.87542725,0.9352722,0.63826907,-0.66588134,-1.357251,89.0
562,1.0348394,-0.8205185,1.1535873,0.63826907,-0.66588134,-1.357251,89.0
563,1.0348394,-0.8205185,1.1535873,0.5522461,-0.7391602,-1.6493043,89.0
564,1.2575591,-0.7398224,1.3489571,0.5522461,-0.7391602,-1.6493043,89.0
565,1.2575591,-0.7398224,1.3489571,0.43861085,-0.8612915,-1.9254273,89.0
566,2.1229417,-0.7975998,1.2521019,0.43861085,-0.8612915,-1.9254273,89.0
567,2.1229417,-0.7975998,1.2521019,0.36427003,-0.9611206,-2.2907593,89.0
568,3.5361953,-0.93398285,0.80236435,0.36427003,-0.9611206,-2.2907593,89.0
569,3.5361953,-0.93398285,0.80236435,0.14974366,-1.080066,-2.6773317,89.0
570,4.156459,-0.93686676,0.21485138,0.14974366,-1.080066,-2.6773317,89.0
571,4.156459,-0.93686676,0.21485138,-0.25594482,-1.0875,-2.8780518,89.0
572,3.1715174,-0.66703033,-0.117240906,-0.25594482,-1.0875,-2.8780518,89.0
573,3.1715174,-0.66703033,-0.117240906,-0.5161377,-1.002539,-2.7760987,89.0
574,1.7247872,-0.25269318,-0.014778137,-0.5161377,-1.002539,-2.7760987,89.0
575,1.7247872,-0.25269318,-0.014778137,-0.544812,-0.84323734,-2.4766114,89.0
576,1.1963215,0.09302521,0.27518845,-0.544812,-0.84323734,-2.4766114,89.0
577,1.1963215,0.09302521,0.27518845,-0.40462646,-0.63614506,-2.1484497,89.0
578,1.1963215,0.09302521,0.27518845,-0.40462646,-0.63614506,-2.1484497,87.0
579,1.4645281,0.3620453,0.23818207,-0.40462646,-0.63614506,-2.1484497,87.0
580,1.4645281,0.3620453,0.23818207,-0.35895997,-0.46409914,-1.9041871,87.0
581,1.5642252,0.598526,-0.35358047,-0.35895997,-0.46409914,-1.9041871,87.0
582,1.5642252,0.598526,-0.35358047,-0.6573853,-0.3069214,-1.6970948,87.0
583,0.9969611,0.8713989,-1.096035,-0.6573853,-0.3069214,-1.6970948,87.0
584,0.9969611,0.8713989,-1.096035,-1.170337,-0.17947999,-1.5303589,87.0
585,-0.026906013,1.2107391,-1.428379,-1.170337,-0.17947999,-1.5303589,87.0
586,-0.026906013,1.2107391,-1.428379,-1.7332032,-0.1178833,-1.4241577,87.0
587,-1.0717692,1.4732895,-1.2626381,-1.7332032,-0.1178833,-1.4241577,87.0
588,-1.0717692,1.4732895,-1.2626381,-2.2493408,-0.025488282,-1.3901733,87.0
589,-1.7934875,1.3972244,-0.9304352,-2.2493408,-0.025488282,-1.3901733,87.0
590,-1.7934875,1.3972244,-0.9304352,-2.3056276,-0.019116212,-1.360437,87.0
591,-2.0272827,1.1681442,-0.7387581,-2.3056276,-0.019116212,-1.360437,87.0
592,-2.0272827,1.1681442,-0.7387581,-2.084729,-0.035046387,-1.3126465,87.0
593,-1.7675295,1.165268,-0.7757988,-2.084729,-0.035046387,-1.3126465,87.0
594,-1.7675295,1.165268,-0.7757988,-1.9594116,0.038232423,-1.3413209,87.0
595,-1.2611551,1.230545,-0.89380646,-1.9594116,0.038232423,-1.3413209,87.0
596,-1.2611551,1.230545,-0.89380646,-1.7066529,0.078588866,-1.445398,87.0
597,-0.72888255,1.0936279,-0.91677856,-1.7066529,0.078588866,-1.445398,87.0
598,-0.72888255,1.0936279,-0.91677856,-1.2372437,0.027612304,-1.6206299,87.0
599,-0.19674134,0.86891174,-0.7317734,-1.2372437,0.027612304,-1.6206299,87.0
600,-0.19674134,0.86891174,-0.7317734,-0.89421386,-0.0361084,-1.7863038,87.0
601,0.33633256,0.68727875,-0.3286934,-0.89421386,-0.0361084,-1.7863038,87.0
602,0.33633256,0.68727875,-0.3286934,-0.70942384,-0.035046387,-1.8733886,87.0
603,0.7551012,0.48988342,0.13990021,-0.70942384,-0.035046387,-1.8733886,87.0
604,0.7551012,0.48988342,0.13990021,-0.53100586,-0.025488282,-1.8266602,87.0
605,0.9179969,0.33625793,0.45949173,-0.53100586,-0.025488282,-1.8266602,87.0
606,0.9179969,0.33625793,0.45949173,-0.37382814,-0.011682129,-1.6429322,87.0
607,0.85390425,0.33215332,0.5564499,-0.37382814,-0.011682129,-1.6429322,87.0
608,0.85390425,0.33215332,0.5564499,-0.28355715,-0.007434082,-1.3476928,87.0
609,0.6686826,0.46276855,0.4979782,-0.28355715,-0.007434082,-1.3476928,87.0
610,0.6686826,0.46276855,0.4979782,-0.26444092,-0.007434082,-0.9897949,87.0
611,0.49330807,0.63803864,0.39668655,-0.26444092,-0.007434082,-0.9897949,87.0
612,0.49330807,0.63803864,0.39668655,-0.27399904,-0.02442627,-0.6287109,87.0
613,0.45033503,0.7633362,0.29413223,-0.27399904,-0.02442627,-0.6287109,87.0
614,0.45033503,0.7633362,0.29413223,-0.3164795,-0.04885254,-0.3069214,87.0
615,0.59315395,0.73576355,0.18296432,-0.3164795,-0.04885254,-0.3069214,87.0
616,0.59315395,0.73576355,0.18296432,-0.33771974,-0.06584473,-0.0722168,87.0
617,0.86878586,0.51151276,0.080783844,-0.33771974,-0.06584473,-0.0722168,87.0
618,0.86878586,0.51151276,0.080783844,-0.2899292,-0.04248047,0.08496094,87.0
619,1.1179414,0.20297241,0.05072403,-0.2899292,-0.04248047,0.08496094,87.0
620,1.1179414,0.20297241,0.05072403,-0.18585205,0.004248047,0.19753419,87.0
621,1.2200613,0.003074646,0.08478165,-0.18585205,0.004248047,0.19753419,87.0
622,1.2200613,0.003074646,0.08478165,-0.10620117,0.078588866,0.31860352,87.0
623,1.1119742,0.08718872,0.12960434,-0.10620117,0.078588866,0.31860352,87.0
624,1.1119742,0.08718872,0.12960434,-0.24744873,0.18691407,0.46516114,87.0
625,0.8914714,0.3649292,0.089012146,-0.24744873,0.18691407,0.46516114,87.0
626,0.8914714,0.3649292,0.089012146,-0.51826173,0.25806886,0.5798584,87.0
627,0.94247437,0.39847565,-0.13713837,-0.51826173,0.25806886,0.5798584,87.0
628,0.94247437,0.39847565,-0.13713837,-0.5299439,0.16354981,0.57454836,87.0
629,1.219348,-0.1016922,-0.41629028,-0.5299439,0.16354981,0.57454836,87.0
630,1.219348,-0.1016922,-0.41629028,-0.011682129,-0.060534667,0.5246338,87.0
631,1.2645407,-0.7935333,-0.51976395,-0.011682129,-0.060534667,0.5246338,87.0
632,1.2645407,-0.7935333,-0.51976395,0.76464844,-0.21877442,0.5479981,87.0
633,0.9495721,-1.1704559,-0.41683578,0.76464844,-0.21877442,0.5479981,87.0
634,0.9495721,-1.1704559,-0.41683578,1.454956,-0.2347046,0.6690674,87.0
635,0.5718403,-1.2002716,-0.24177933,1.454956,-0.2347046,0.6690674,87.0
636,0.5718403,-1.2002716,-0.24177933,2.1112792,-0.24744873,0.8485474,87.0
637,0.5155778,-1.0597305,-0.19532776,2.1112792,-0.24744873,0.8485474,87.0
638,0.5155778,-1.0597305,-0.19532776,2.538208,-0.23682861,1.0651978,87.0
639,0.7479725,-0.9055023,-0.30688477,2.538208,-0.23682861,1.0651978,87.0
640,0.7479725,-0.9055023,-0.30688477,2.5775025,-0.17947999,1.2903442,87.0
641,0.858449,-0.8175812,-0.4249649,2.5775025,-0.17947999,1.2903442,87.0
642,0.858449,-0.8175812,-0.4249649,2.340674,-0.090270996,1.5335449,87.0
643,0.51257706,-0.7528305,-0.4010315,2.340674,-0.090270996,1.5335449,87.0
644,0.51257706,-0.7528305,-0.4010315,1.9636596,0.0180542,1.7724975,87.0
645,-0.23279762,-0.67964935,-0.2682495,1.9636596,0.0180542,1.7724975,87.0
646,-0.23279762,-0.67964935,-0.2682495,1.7087768,0.09451904,2.0252564,87.0
647,-1.1151934,-0.5689392,-0.14220047,1.7087768,0.09451904,2.0252564,87.0
648,-1.1151934,-0.5689392,-0.14220047,1.4645141,0.18054199,2.2376587,87.0
649,-1.8742838,-0.42669678,-0.09176254,1.4645141,0.18054199,2.2376587,87.0
650,-1.8742838,-0.42669678,-0.09176254,1.26167,0.26444092,2.4266968,87.0
651,-2.3383188,-0.3349533,-0.09662628,1.26167,0.26444092,2.4266968,87.0
652,-2.3383188,-0.3349533,-0.09662628,1.1374146,0.33134767,2.5732543,87.0
653,-2.4754891,-0.32530212,-0.080768585,1.1374146,0.33134767,2.5732543,87.0
654,-2.4754891,-0.32530212,-0.080768585,1.0726318,0.38869628,2.6603394,87.0
655,-2.3392534,-0.37117004,-0.0089149475,1.0726318,0.38869628,2.6603394,87.0
656,-2.3392534,-0.37117004,-0.0089149475,1.0301514,0.43967286,2.6497192,87.0
657,-2.0648842,-0.43351746,0.07907486,1.0301514,0.43967286,2.6497192,87.0
658,-2.0648842,-0.43351746,0.07907486,0.9791748,0.48746338,2.5424562,87.0
659,-1.8054595,-0.5039139,0.13331604,0.9791748,0.48746338,2.5424562,87.0
660,-1.8054595,-0.5039139,0.13331604,0.89846194,0.52888185,2.3364258,87.0
661,-1.6357737,-0.5675049,0.16021729,0.89846194,0.52888185,2.3364258,87.0
662,-1.6357737,-0.5675049,0.16021729,0.7943848,0.56392825,2.073047,87.0
663,-1.5514901,-0.56230927,0.18442535,0.7943848,0.56392825,2.073047,87.0
664,-1.5514901,-0.56230927,0.18442535,0.6287109,0.5979126,1.7958618,87.0
665,-1.5143123,-0.46836853,0.20369339,0.6287109,0.5979126,1.7958618,87.0
666,-1.5143123,-0.46836853,0.20369339,0.39082032,0.62127686,1.5292969,87.0
667,-1.4921017,-0.31136322,0.20039368,0.39082032,0.62127686,1.5292969,87.0
668,-1.4921017,-0.31136322,0.20039368,0.118945315,0.59472656,1.2776002,87.0
669,-1.4231246,-0.19192505,0.1754036,0.118945315,0.59472656,1.2776002,87.0
670,-1.4231246,-0.19192505,0.1754036,-0.11044922,0.51082766,1.0248413,87.0
671,-1.2303941,-0.19498444,0.21626282,-0.11044922,0.51082766,1.0248413,87.0
672,-1.2303941,-0.19498444,0.21626282,-0.15717773,0.36108398,0.7699585,87.0
673,-0.8869641,-0.3099823,0.34270096,-0.15717773,0.36108398,0.7699585,87.0
674,-0.8869641,-0.3099823,0.34270096,-0.0722168,0.16036378,0.48746338,87.0
675,-0.39682698,-0.48254395,0.5056572,-0.0722168,0.16036378,0.48746338,87.0
676,-0.39682698,-0.48254395,0.5056572,0.12000733,-0.06265869,0.15611573,87.0
677,0.17542171,-0.6526489,0.6900101,0.12000733,-0.06265869,0.15611573,87.0
678,0.17542171,-0.6526489,0.6900101,0.34090576,-0.2984253,-0.20072022,87.0
679,0.6821952,-0.64849854,0.8934746,0.34090576,-0.2984253,-0.20072022,87.0
680,0.6821952,-0.64849854,0.8934746,0.3079834,-0.48109132,-0.5012695,87.0
681,0.86835146,-0.41784668,1.0805626,0.3079834,-0.48109132,-0.5012695,87.0
682,0.86835146,-0.41784668,1.0805626,0.08071289,-0.61278075,-0.721106,87.0
683,0.8897617,-0.22504425,1.2782936,0.08071289,-0.61278075,-0.721106,87.0
684,0.8897617,-0.22504425,1.2782936,-0.045666505,-0.79332274,-0.93138427,87.0
685,1.3070242,-0.25564575,1.4318771,-0.045666505,-0.79332274,-0.93138427,87.0
686,1.3070242,-0.25564575,1.4318771,-0.057348635,-0.9451904,-1.2563599,87.0
687,2.0431414,-0.43505096,1.391243,-0.057348635,-0.9451904,-1.2563599,87.0
688,2.0431414,-0.43505096,1.391243,-0.08814698,-1.0535157,-1.6769165,87.0
689,2.0850625,-0.54537964,1.0627861,-0.08814698,-1.0535157,-1.6769165,87.0
690,2.0850625,-0.54537964,1.0627861,-0.24107666,-1.1289185,-2.0125122,87.0
691,0.9420738,-0.48020935,0.6810036,-0.24107666,-1.1289185,-2.0125122,87.0
692,0.9420738,-0.48020935,0.6810036,-0.2793091,-1.1820191,-2.1197755,87.0
693,-0.47307444,-0.28330994,0.67938614,-0.2793091,-1.1820191,-2.1197755,87.0
694,-0.47307444,-0.28330994,0.67938614,-0.09133301,-1.1883911,-2.0178223,87.0
695,-0.47307444,-0.28330994,0.67938614,-0.09133301,-1.1883911,-2.0178223,88.0
696,-1.0253832,-0.075805664,1.0302887,-0.09133301,-1.1883911,-2.0178223,88.0
697,-1.0253832,-0.075805664,1.0302887,0.27293703,-1.1427246,-1.7767457,88.0
698,-0.60860014,0.10254669,1.189209,0.27293703,-1.1427246,-1.7767457,88.0
699,-0.60860014,0.10254669,1.189209,0.4959595,-0.994043,-1.4974365,88.0
700,0.057528973,0.32485962,0.71818924,0.4959595,-0.994043,-1.4974365,88.0
701,0.057528973,0.32485962,0.71818924,0.43754885,-0.8241211,-1.2744141,88.0
702,0.3491969,0.61001587,-0.23079681,0.43754885,-0.8241211,-1.2744141,88.0
703,0.3491969,0.61001587,-0.23079681,0.045666505,-0.6637573,-1.179895,88.0
704,0.1589961,0.8019028,-1.0082817,0.045666505,-0.6637573,-1.179895,88.0
705,0.1589961,0.8019028,-1.0082817,-0.45772704,-0.54693604,-1.1883911,88.0
706,-0.36696815,0.76620483,-1.165268,-0.45772704,-0.54693604,-1.1883911,88.0
707,-0.36696815,0.76620483,-1.165268,-0.8644776,-0.4619751,-1.2266235,88.0
708,-0.9432206,0.5768814,-0.8473015,-0.8644776,-0.4619751,-1.2266235,88.0
709,-0.9432206,0.5768814,-0.8473015,-1.080066,-0.38657227,-1.2436157,88.0
710,-1.2914662,0.3934021,-0.5044403,-1.080066,-0.38657227,-1.2436157,88.0
711,-1.2914662,0.3934021,-0.5044403,-1.1289185,-0.31329346,-1.2276856,88.0
712,-1.2858341,0.2611847,-0.4019394,-1.1289185,-0.31329346,-1.2276856,88.0
713,-1.2858341,0.2611847,-0.4019394,-1.0280274,-0.25806886,-1.2276856,88.0
714,-0.9904103,0.27267456,-0.44325638,-1.0280274,-0.25806886,-1.2276856,88.0
715,-0.9904103,0.27267456,-0.44325638,-0.9324463,-0.23895264,-1.2372437,88.0
716,-0.52783847,0.047035217,-0.5521622,-0.9324463,-0.23895264,-1.2372437,88.0
717,-0.52783847,0.047035217,-0.5521622,-0.52250975,-0.23364258,-1.3296387,88.0
718,-0.19432878,0.031799316,-0.4867134,-0.52250975,-0.23364258,-1.3296387,88.0
719,-0.19432878,0.031799316,-0.4867134,-0.3430298,-0.23151855,-1.3657471,88.0
720,0.4294002,-0.21822357,-0.22794342,-0.3430298,-0.23151855,-1.3657471,88.0
721,0.4294002,-0.21822357,-0.22794342,0.08602295,-0.25063476,-1.4252198,88.0
722,0.5994284,-0.19363403,-0.097709656,0.08602295,-0.25063476,-1.4252198,88.0
723,0.5994284,-0.19363403,-0.097709656,0.19753419,-0.2538208,-1.4135376,88.0
724,0.8890643,-0.23704529,0.17799759,0.19753419,-0.2538208,-1.4135376,88.0
725,0.8890643,-0.23704529,0.17799759,0.38869628,-0.26762697,-1.2404298,88.0
726,0.8273647,-0.1568451,0.20250702,0.38869628,-0.26762697,-1.2404298,88.0
727,0.8273647,-0.1568451,0.20250702,0.4163086,-0.27293703,-1.1459106,88.0
728,0.6315818,-0.068725586,0.17991257,0.4163086,-0.27293703,-1.1459106,88.0
729,0.6315818,-0.068725586,0.17991257,0.4959595,-0.3090454,-0.7699585,88.0
730,0.45358086,-0.03858185,0.13709259,0.4959595,-0.3090454,-0.7699585,88.0
731,0.45358086,-0.03858185,0.13709259,0.51932377,-0.31966552,-0.6223389,88.0
732,0.19290614,0.076301575,-0.02779007,0.51932377,-0.31966552,-0.6223389,88.0
733,0.19290614,0.076301575,-0.02779007,0.5766724,-0.33878174,-0.20284425,88.0
734,0.17851925,0.041610718,-0.044548035,0.5766724,-0.33878174,-0.20284425,88.0
735,0.17851925,0.041610718,-0.044548035,0.60216063,-0.33878174,-0.087084964,88.0
736,0.63734674,-0.10788727,-0.06600952,0.60216063,-0.33878174,-0.087084964,88.0
737,0.63734674,-0.10788727,-0.06600952,0.69986576,-0.29205322,0.16354981,88.0
738,0.7046895,-0.24945068,0.006126404,0.69986576,-0.29205322,0.16354981,88.0
739,0.7046895,-0.24945068,0.006126404,0.7327881,-0.26337892,0.22196046,88.0
740,1.2098818,-0.41130066,0.03036499,0.7327881,-0.26337892,0.22196046,88.0
741,1.2098818,-0.41130066,0.03036499,0.66588134,-0.13487549,0.35895997,88.0
742,1.102561,-0.37335205,0.028526306,0.66588134,-0.13487549,0.35895997,88.0
743,1.102561,-0.37335205,0.028526306,0.541626,-0.08496094,0.39400634,88.0
744,1.1030207,-0.17372131,-0.13838577,0.541626,-0.08496094,0.39400634,88.0
745,1.1030207,-0.17372131,-0.13838577,0.19116211,-0.028674318,0.42692873,88.0
746,1.1450019,-0.09000397,-0.39035797,0.19116211,-0.028674318,0.42692873,88.0
747,1.1450019,-0.09000397,-0.39035797,-0.059472658,-0.11044922,0.3462158,88.0
748,1.3567243,-0.5205002,-0.53076935,-0.059472658,-0.11044922,0.3462158,88.0
749,1.3567243,-0.5205002,-0.53076935,0.32709962,-0.40037844,0.18160401,88.0
750,1.6083164,-1.3047028,-0.3685608,0.32709962,-0.40037844,0.18160401,88.0
751,1.6083164,-1.3047028,-0.3685608,1.1406006,-0.65419924,-0.008496094,88.0
752,1.6321974,-2.3252106,0.25771332,1.1406006,-0.65419924,-0.008496094,88.0
753,1.6321974,-2.3252106,0.25771332,2.7261841,-0.7423462,-0.08814698,88.0
754,1.1495075,-2.3432236,0.643425,2.7261841,-0.7423462,-0.08814698,88.0
755,1.1495075,-2.3432236,0.643425,3.2370117,-0.7104859,0.0010620117,88.0
756,0.4609146,-2.1289902,0.90719604,3.2370117,-0.7104859,0.0010620117,88.0
757,0.4609146,-2.1289902,0.90719604,3.9220092,-0.5649902,0.3440918,88.0
758,-0.14807701,-1.4303513,0.7343025,3.9220092,-0.5649902,0.3440918,88.0
759,-0.14807701,-1.4303513,0.7343025,4.073877,-0.40037844,0.82836914,88.0
760,-0.51626444,-0.49601746,0.36880112,4.073877,-0.40037844,0.82836914,88.0
761,-0.51626444,-0.49601746,0.36880112,3.7648315,-0.2357666,1.2595459,88.0
762,-0.66942024,0.2923584,0.21476746,3.7648315,-0.2357666,1.2595459,88.0
763,-0.66942024,0.2923584,0.21476746,3.2805543,-0.081774905,1.5176147,88.0
764,-0.79255533,0.49215698,0.5169182,3.2805543,-0.081774905,1.5176147,88.0
765,-0.79255533,0.49215698,0.5169182,2.8536255,0.07540283,1.6503662,88.0
766,-1.12047,0.17021179,1.0181007,2.8536255,0.07540283,1.6503662,88.0
767,-1.12047,0.17021179,1.0181007,2.5159059,0.2442627,1.7119629,88.0
768,-1.6090593,-0.2035141,1.3598061,2.5159059,0.2442627,1.7119629,88.0
769,-1.6090593,-0.2035141,1.3598061,2.2461548,0.45347902,1.7661256,88.0
770,-2.0598307,-0.31497192,1.3960342,2.2461548,0.45347902,1.7661256,88.0
771,-2.0598307,-0.31497192,1.3960342,2.0475585,0.65419924,1.8181641,88.0
772,-2.3288336,-0.16020203,1.2707481,2.0475585,0.65419924,1.8181641,88.0
773,-2.3288336,-0.16020203,1.2707481,1.8532104,0.81881106,1.8415283,88.0
774,-2.3417168,0.0691452,1.1088715,1.8532104,0.81881106,1.8415283,88.0
775,-2.3417168,0.0691452,1.1088715,1.6524903,0.9451904,1.8139161,88.0
776,-2.133066,0.1579895,0.98511887,1.6524903,0.9451904,1.8139161,88.0
777,-2.133066,0.1579895,0.98511887,1.4358399,1.0397094,1.7576294,88.0
778,-1.7925613,0.07047272,0.86940765,1.4358399,1.0397094,1.7576294,88.0
779,-1.7925613,0.07047272,0.86940765,1.2191895,1.1119263,1.6875366,88.0
780,-1.4159095,-0.051383972,0.7280197,1.2191895,1.1119263,1.6875366,88.0
781,-1.4159095,-0.051383972,0.7280197,0.94625247,1.175647,1.6153198,88.0
782,-1.1164191,-0.06600952,0.5332222,0.94625247,1.175647,1.6153198,88.0
783,-1.1164191,-0.06600952,0.5332222,0.59472656,1.2276856,1.5675293,88.0
784,-1.1164191,-0.06600952,0.5332222,0.59472656,1.2276856,1.5675293,89.0
785,-0.9364214,0.025512695,0.3340721,0.59472656,1.2276856,1.5675293,89.0
786,-0.9364214,0.025512695,0.3340721,0.17735596,1.2414917,1.5600952,89.0
787,-0.866166,0.12529755,0.18980408,0.17735596,1.2414917,1.5600952,89.0
788,-0.866166,0.12529755,0.18980408,-0.2166504,1.183081,1.6110718,89.0
789,-0.9164802,0.16474152,0.12448883,-0.2166504,1.183081,1.6110718,89.0
790,-0.9164802,0.16474152,0.12448883,-0.4715332,1.0365235,1.6737305,89.0
791,-1.0195976,0.15400696,0.14590454,-0.4715332,1.0365235,1.6737305,89.0
792,-1.0195976,0.15400696,0.14590454,-0.54693604,0.83474123,1.7268311,89.0
793,-1.023979,0.13402557,0.24956131,-0.54693604,0.83474123,1.7268311,89.0
794,-1.023979,0.13402557,0.24956131,-0.5055176,0.59260255,1.7565674,89.0
795,-0.8543516,0.10435486,0.41532135,-0.5055176,0.59260255,1.7565674,89.0
796,-0.8543516,0.10435486,0.41532135,-0.362146,0.32709962,1.7300171,89.0
797,-0.7000584,0.11833954,0.6004944,-0.362146,0.32709962,1.7300171,89.0
798,-0.7000584,0.11833954,0.6004944,-0.18372802,0.047790527,1.6917847,89.0
799,-0.81389195,0.2693634,0.77275467,-0.18372802,0.047790527,1.6917847,89.0
800,-0.81389195,0.2693634,0.77275467,-0.045666505,-0.22196046,1.6418701,89.0
801,-1.1587673,0.5307236,0.95355606,-0.045666505,-0.22196046,1.6418701,89.0
802,-1.1587673,0.5307236,0.95355606,0.08920898,-0.49383545,1.538855,89.0
803,-1.3731198,0.73244476,1.2510643,0.08920898,-0.49383545,1.538855,89.0
804,-1.3731198,0.73244476,1.2510643,0.20603028,-0.7317261,1.3413209,89.0
805,-1.0515842,0.7238388,1.7077255,0.20603028,-0.7317261,1.3413209,89.0
806,-1.0515842,0.7238388,1.7077255,0.32285157,-0.90908206,1.0163453,89.0
807,-0.14546663,0.5708084,2.0317688,0.32285157,-0.90908206,1.0163453,89.0
808,-0.14546663,0.5708084,2.0317688,0.29523927,-1.0651978,0.5713623,89.0
809,0.51304567,0.56129456,1.748146,0.29523927,-1.0651978,0.5713623,89.0
810,0.51304567,0.56129456,1.748146,-0.09451904,-1.2478638,0.04460449,89.0
811,-0.2067998,0.8118057,0.9603195,-0.09451904,-1.2478638,0.04460449,89.0
812,-0.2067998,0.8118057,0.9603195,-0.59260255,-1.442212,-0.48533937,89.0
813,-1.9203959,1.0614853,0.5685959,-0.59260255,-1.442212,-0.48533937,89.0
814,-1.9203959,1.0614853,0.5685959,-0.7890747,-1.5781494,-0.8612915,89.0
815,-3.0046518,1.040741,1.1662674,-0.7890747,-1.5781494,-0.8612915,89.0
816,-3.0046518,1.040741,1.1662674,-0.7327881,-1.4400879,-1.0875,89.0
817,-2.8545394,0.7499161,2.0717316,-0.7327881,-1.4400879,-1.0875,89.0
818,-2.8545394,0.7499161,2.0717316,-0.6138428,-1.2053833,-1.2478638,89.0
819,-1.9300427,0.34022522,2.110157,-0.6138428,-1.2053833,-1.2478638,89.0
820,-1.9300427,0.34022522,2.110157,-0.5766724,-0.93563235,-1.4347779,89.0
821,-0.796329,-0.021278381,0.95661926,-0.5766724,-0.93563235,-1.4347779,89.0
822,-0.796329,-0.021278381,0.95661926,-0.54587406,-0.7625244,-1.7395753,89.0
823,0.16759968,-0.24435425,-0.60074615,-0.54587406,-0.7625244,-1.7395753,89.0
824,0.16759968,-0.24435425,-0.60074615,-0.5586182,-0.69986576,-2.1102173,89.0
825,0.8087015,-0.31468964,-1.6032639,-0.5586182,-0.69986576,-2.1102173,89.0
826,0.8087015,-0.31468964,-1.6032639,-0.89208984,-0.59260255,-2.4649293,89.0
827,1.1143074,-0.3774948,-1.6625824,-0.89208984,-0.59260255,-2.4649293,89.0
828,1.1143074,-0.3774948,-1.6625824,-1.3891114,-0.48321533,-2.7782228,89.0
829,1.3082306,-0.73057556,-0.99853516,-1.3891114,-0.48321533,-2.7782228,89.0
830,1.3082306,-0.73057556,-0.99853516,-1.7268311,-0.39188233,-3.0384157,89.0
831,1.6149195,-1.3500748,-0.09587479,-1.7268311,-0.39188233,-3.0384157,89.0
832,1.6149195,-1.3500748,-0.09587479,-1.630188,-0.3525879,-3.163733,89.0
833,2.0519576,-1.8081818,0.37460327,-1.630188,-0.3525879,-3.163733,89.0
834,2.0519576,-1.8081818,0.37460327,-1.3413209,-0.45560303,-3.1456788,89.0
835,2.5111341,-2.1241379,0.49113464,-1.3413209,-0.45560303,-3.1456788,89.0
836,2.5111341,-2.1241379,0.49113464,-0.9897949,0.029736329,-2.9194703,89.0
837,2.5994225,-2.3040314,0.5656738,-0.9897949,0.029736329,-2.9194703,89.0
838,2.5994225,-2.3040314,0.5656738,-1.085376,-0.04141846,-2.4256349,89.0
839,2.4766572,-1.7822418,0.14984131,-1.085376,-0.04141846,-2.4256349,89.0
840,2.4766572,-1.7822418,0.14984131,-0.81243896,0.30479738,-2.0995972,89.0
841,2.3150294,-0.7556381,-0.7036896,-0.81243896,0.30479738,-2.0995972,89.0
842,2.3150294,-0.7556381,-0.7036896,-0.35577393,0.36427003,-1.6535523,89.0
843,1.9625704,0.011909485,-1.3655777,-0.35577393,0.36427003,-1.6535523,89.0
844,1.9625704,0.011909485,-1.3655777,-0.17416993,0.25700685,-1.175647,89.0
845,1.6428591,0.3768158,-1.5407791,-0.17416993,0.25700685,-1.175647,89.0
846,1.6428591,0.3768158,-1.5407791,-0.16248779,0.078588866,-0.8230591,89.0
847,1.4736989,0.54608154,-1.4310608,-0.16248779,0.078588866,-0.8230591,89.0
848,1.4736989,0.54608154,-1.4310608,-0.37595215,0.029736329,-0.5522461,89.0
849,1.3040202,0.5218048,-1.2495346,-0.37595215,0.029736329,-0.5522461,89.0
850,1.3040202,0.5218048,-1.2495346,-0.6435791,0.07434082,-0.35789797,89.0
851,0.9827671,0.32739258,-1.0434265,-0.6435791,0.07434082,-0.35789797,89.0
852,0.9827671,0.32739258,-1.0434265,-0.7805786,0.13275146,-0.21346436,89.0
853,0.6104326,0.09572601,-0.806736,-0.7805786,0.13275146,-0.21346436,89.0
854,0.6104326,0.09572601,-0.806736,-0.69986576,0.17629395,-0.13912354,89.0
855,0.36051416,-0.037322998,-0.6140175,-0.69986576,0.17629395,-0.13912354,89.0
856,0.36051416,-0.037322998,-0.6140175,-0.5511841,0.21558838,-0.13168946,89.0
857,0.29934883,-0.035255432,-0.5302391,-0.5511841,0.21558838,-0.13168946,89.0
858,0.29934883,-0.035255432,-0.5302391,-0.48321533,0.27718505,-0.15080567,89.0
859,0.2853043,0.06568909,-0.5718727,-0.48321533,0.27718505,-0.15080567,89.0
860,0.2853043,0.06568909,-0.5718727,-0.58304447,0.3419678,-0.14761963,89.0
861,0.10972524,0.25613403,-0.7493324,-0.58304447,0.3419678,-0.14761963,89.0
862,0.10972524,0.25613403,-0.7493324,-0.79013675,0.34090576,-0.07327881,89.0
863,-0.18220258,0.44071198,-0.97860336,-0.79013675,0.34090576,-0.07327881,89.0
864,-0.18220258,0.44071198,-0.97860336,-0.9515625,0.24638672,0.03079834,89.0
865,-0.1279397,0.33271027,-1.0694809,-0.9515625,0.24638672,0.03079834,89.0
866,-0.1279397,0.33271027,-1.0694809,-0.7657105,0.038232423,0.019116212,89.0
867,0.4955244,-0.21762848,-0.9074402,-0.7657105,0.038232423,0.019116212,89.0
868,0.4955244,-0.21762848,-0.9074402,-0.14337158,-0.21452637,-0.098767094,89.0
869,1.3197718,-0.9859772,-0.5372429,-0.14337158,-0.21452637,-0.098767094,89.0
870,1.3197718,-0.9859772,-0.5372429,0.7423462,-0.41312256,-0.18054199,89.0
871,1.7947216,-1.5068054,-0.15422058,0.7423462,-0.41312256,-0.18054199,89.0
872,1.7947216,-1.5068054,-0.15422058,1.4921265,-0.45666504,-0.13487549,89.0
873,1.760045,-1.5607376,0.077941895,1.4921265,-0.45666504,-0.13487549,89.0
874,1.760045,-1.5607376,0.077941895,2.175,-0.4895874,0.07752686,89.0
875,1.521452,-1.2884598,0.14206696,2.175,-0.4895874,0.07752686,89.0
876,1.521452,-1.2884598,0.14206696,2.6125488,-0.53525394,0.47896728,89.0
877,1.3509626,-0.84008026,0.20088577,2.6125488,-0.53525394,0.47896728,89.0
878,1.3509626,-0.84008026,0.20088577,2.6401613,-0.53100586,1.0365235,89.0
879,1.1314907,-0.25751495,0.39156723,2.6401613,-0.53100586,1.0365235,89.0
880,1.1314907,-0.25751495,0.39156723,2.3035035,-0.46516114,1.630188,89.0
881,0.62218475,0.33538818,0.6668663,2.3035035,-0.46516114,1.630188,89.0
882,0.62218475,0.33538818,0.6668663,1.9753418,-0.44498292,2.1357057,89.0
883,-0.1885314,0.69693756,0.90996933,1.9753418,-0.44498292,2.1357057,89.0
884,-0.1885314,0.69693756,0.90996933,1.7395753,-0.3971924,2.535022,89.0
885,-1.1613474,0.79971313,1.0318336,1.7395753,-0.3971924,2.535022,89.0
886,-1.1613474,0.79971313,1.0318336,1.5643433,-0.32285157,2.8695557,89.0
887,-2.114027,0.90159607,0.9835243,1.5643433,-0.32285157,2.8695557,89.0
888,-2.114027,0.90159607,0.9835243,1.265918,-0.15186767,3.0968263,89.0
889,-2.8450546,1.0446548,0.8182907,1.265918,-0.15186767,3.0968263,89.0
890,-2.8450546,1.0446548,0.8182907,1.0110352,0.021240234,3.2667482,89.0
891,-3.2636046,1.1267776,0.67494583,1.0110352,0.021240234,3.2667482,89.0
892,-3.2636046,1.1267776,0.67494583,0.8209351,0.16248779,3.3347168,89.0
893,-3.4246533,1.1741028,0.5733185,0.8209351,0.16248779,3.3347168,89.0
894,-3.4246533,1.1741028,0.5733185,0.8209351,0.16248779,3.3347168,88.0
895,-3.4246533,1.1741028,0.5733185,0.6669434,0.26019287,3.2922363,88.0
896,-3.431483,1.1944962,0.41615295,0.6669434,0.26019287,3.2922363,88.0
897,-3.431483,1.1944962,0.41615295,0.48640138,0.31116945,3.1233766,88.0
898,-3.4665854,1.1471634,0.21053314,0.48640138,0.31116945,3.1233766,88.0
899,-3.4665854,1.1471634,0.21053314,0.51188964,0.23789063,2.8706176,88.0
900,-3.589516,1.0674286,0.10102081,0.51188964,0.23789063,2.8706176,88.0
901,-3.589516,1.0674286,0.10102081,0.6403931,0.14761963,2.5509522,88.0
902,-3.6746402,1.007019,0.19865417,0.6403931,0.14761963,2.5509522,88.0
903,-3.6746402,1.007019,0.19865417,0.81881106,0.04248047,2.1973023,88.0
904,-3.5714383,0.98506165,0.45643234,0.81881106,0.04248047,2.1973023,88.0
905,-3.5714383,0.98506165,0.45643234,0.9791748,-0.04885254,1.8287842,88.0
906,-3.21478,0.9714737,0.7299042,0.9791748,-0.04885254,1.8287842,88.0
907,-3.21478,0.9714737,0.7299042,1.0609497,-0.10407715,1.448584,88.0
908,-2.6556377,0.9152527,0.88962555,1.0609497,-0.10407715,1.448584,88.0
909,-2.6556377,0.9152527,0.88962555,1.088562,-0.14761963,1.0471436,88.0
910,-1.9039168,0.76387024,0.93618774,1.088562,-0.14761963,1.0471436,88.0
911,-1.9039168,0.76387024,0.93618774,1.0981201,-0.18903808,0.60109866,88.0
912,-0.8606944,0.48880768,0.96868896,1.0981201,-0.18903808,0.60109866,88.0
913,-0.8606944,0.48880768,0.96868896,1.1034302,-0.2357666,0.12000733,88.0
914,0.37716722,0.11943054,1.059742,1.1034302,-0.2357666,0.12000733,88.0
915,0.37716722,0.11943054,1.059742,1.0312134,-0.28355715,-0.34727785,88.0
916,1.3977909,-0.1842041,1.1558762,1.0312134,-0.28355715,-0.34727785,88.0
917,1.3977909,-0.1842041,1.1558762,0.8315552,-0.32178956,-0.6966797,88.0
918,1.8803055,-0.26444244,1.2076454,0.8315552,-0.32178956,-0.6966797,88.0
919,1.8803055,-0.26444244,1.2076454,0.5341919,-0.33134767,-0.90058595,88.0
920,1.8562098,-0.10546875,1.2347298,0.5341919,-0.33134767,-0.90058595,88.0
921,1.8562098,-0.10546875,1.2347298,0.107263185,-0.3164795,-1.0174073,88.0
922,1.8534005,0.05860138,1.2499275,0.107263185,-0.3164795,-1.0174073,88.0
923,1.8534005,0.05860138,1.2499275,-0.3058594,-0.3355957,-1.1692749,88.0
924,2.3121517,-0.05986786,1.137085,-0.3058594,-0.3355957,-1.1692749,88.0
925,2.3121517,-0.05986786,1.137085,-0.72641605,-0.3440918,-1.4390259,88.0
926,2.634377,-0.44054413,0.76220703,-0.72641605,-0.3440918,-1.4390259,88.0
927,2.634377,-0.44054413,0.76220703,-1.0949341,-0.36639404,-1.719397,88.0
928,1.9929509,-0.81155396,0.29003906,-1.0949341,-0.36639404,-1.719397,88.0
929,1.9929509,-0.81155396,0.29003906,-1.3137085,-0.4333008,-1.8903809,88.0
930,0.8060795,-0.95947266,0.090774536,-1.3137085,-0.4333008,-1.8903809,88.0
931,0.8060795,-0.95947266,0.090774536,-1.2436157,-0.4630371,-1.9349854,88.0
932,-0.029281914,-0.96762085,0.2818451,-1.2436157,-0.4630371,-1.9349854,88.0
933,-0.029281914,-0.96762085,0.2818451,-0.89846194,-0.45560303,-1.8468384,88.0
934,-0.292615,-0.8818741,0.531826,-0.89846194,-0.45560303,-1.8468384,88.0
935,-0.292615,-0.8818741,0.531826,-0.5033936,-0.3982544,-1.6174439,88.0
936,-0.13692403,-0.6136856,0.40982056,-0.5033936,-0.3982544,-1.6174439,88.0
937,-0.13692403,-0.6136856,0.40982056,-0.32816163,-0.31860352,-1.363623,88.0
938,0.15045834,-0.15416718,-0.15424728,-0.32816163,-0.31860352,-1.363623,88.0
939,0.15045834,-0.15416718,-0.15424728,-0.3812622,-0.24744873,-1.2149414,88.0
940,0.27849656,0.2598877,-0.82557297,-0.3812622,-0.24744873,-1.2149414,88.0
941,0.27849656,0.2598877,-0.82557297,-0.6552612,-0.18797608,-1.2170655,88.0
942,0.095783085,0.31973267,-1.2028542,-0.6552612,-0.18797608,-1.2170655,88.0
943,0.095783085,0.31973267,-1.2028542,-0.98873293,-0.16036378,-1.2935303,88.0
944,-0.33995068,0.07041168,-1.148468,-0.98873293,-0.16036378,-1.2935303,88.0
945,-0.33995068,0.07041168,-1.148468,-1.2244996,-0.118945315,-1.3763672,88.0
946,-0.7968385,-0.18258667,-0.900074,-1.2244996,-0.118945315,-1.3763672,88.0
947,-0.7968385,-0.18258667,-0.900074,-1.3147706,-0.06265869,-1.4061035,88.0
948,-1.0589675,-0.27478027,-0.759037,-1.3147706,-0.06265869,-1.4061035,88.0
949,-1.0589675,-0.27478027,-0.759037,-1.3614991,0.014868164,-1.4007934,88.0
950,-1.0289855,-0.25589752,-0.78240204,-1.3614991,0.014868164,-1.4007934,88.0
951,-1.0289855,-0.25589752,-0.78240204,-1.2584839,0.057348635,-1.3901733,88.0
952,-0.6829907,-0.21012878,-0.87537384,-1.2584839,0.057348635,-1.3901733,88.0
953,-0.6829907,-0.21012878,-0.87537384,-1.1013062,0.08283692,-1.3944215,88.0
954,-0.05812347,-0.22090149,-0.9628334,-1.1013062,0.08283692,-1.3944215,88.0
955,-0.05812347,-0.22090149,-0.9628334,-1.0333375,0.11151123,-1.4188477,88.0
956,0.6683084,-0.33467102,-0.9833183,-1.0333375,0.11151123,-1.4188477,88.0
957,0.6683084,-0.33467102,-0.9833183,-1.0067872,0.13275146,-1.447522,88.0
958,1.325699,-0.48099518,-0.89954376,-1.0067872,0.13275146,-1.447522,88.0
959,1.325699,-0.48099518,-0.89954376,-0.9770508,0.14018555,-1.4655762,88.0
960,1.8022462,-0.5741501,-0.74541855,-0.9770508,0.14018555,-1.4655762,88.0
961,1.8022462,-0.5741501,-0.74541855,-0.9154541,0.12956543,-1.4337158,88.0
962,2.035962,-0.6081009,-0.5963478,-0.9154541,0.12956543,-1.4337158,88.0
963,2.035962,-0.6081009,-0.5963478,-0.8496094,0.10407715,-1.3370727,88.0
964,2.0670998,-0.57476044,-0.5062027,-0.8496094,0.10407715,-1.3370727,88.0
965,2.0670998,-0.57476044,-0.5062027,-0.7965088,0.06159668,-1.1947632,88.0
966,1.9402765,-0.5104675,-0.41263962,-0.7965088,0.06159668,-1.1947632,88.0
967,1.9402765,-0.5104675,-0.41263962,-0.7126099,0.0010620117,-1.0046631,88.0
968,1.7102901,-0.45681763,-0.2840309,-0.7126099,0.0010620117,-1.0046631,88.0
969,1.7102901,-0.45681763,-0.2840309,-0.60109866,-0.05628662,-0.76464844,88.0
970,1.3984444,-0.35781097,-0.17484665,-0.60109866,-0.05628662,-0.76464844,88.0
971,1.3984444,-0.35781097,-0.17484665,-0.46622315,-0.11363526,-0.5150757,88.0
972,1.1491144,-0.21561432,-0.14518738,-0.46622315,-0.11363526,-0.5150757,88.0
973,1.1491144,-0.21561432,-0.14518738,-0.33134767,-0.14230958,-0.31010744,88.0
974,1.1289105,-0.14835358,-0.11061859,-0.33134767,-0.14230958,-0.31010744,88.0
975,1.1289105,-0.14835358,-0.11061859,-0.21452637,-0.13168946,-0.16885987,88.0
976,1.2855015,-0.20079803,-0.035369873,-0.21452637,-0.13168946,-0.16885987,88.0
977,1.2855015,-0.20079803,-0.035369873,-0.16461182,-0.070092775,-0.039294433,88.0
978,1.3909864,-0.21128845,-0.02015686,-0.16461182,-0.070092775,-0.039294433,88.0
979,1.3909864,-0.21128845,-0.02015686,-0.27612305,0.03186035,0.08071289,88.0
980,1.3805261,-0.09977722,-0.13980865,-0.27612305,0.03186035,0.08071289,88.0
981,1.3805261,-0.09977722,-0.13980865,-0.5161377,0.14018555,0.18372802,88.0
982,1.5038471,-0.07106781,-0.3573799,-0.5161377,0.14018555,0.18372802,88.0
983,1.5038471,-0.07106781,-0.3573799,-0.65844727,0.15717773,0.18054199,88.0
984,1.7891617,-0.4051056,-0.50120926,-0.65844727,0.15717773,0.18054199,88.0
985,1.7891617,-0.4051056,-0.50120926,-0.40250245,0.059472658,0.11682129,88.0
986,1.6705384,-0.9398041,-0.4667511,-0.40250245,0.059472658,0.11682129,88.0
987,1.6705384,-0.9398041,-0.4667511,0.38444826,-0.19116211,0.1539917,88.0
988,0.85159206,-1.0463715,-0.33953857,0.38444826,-0.19116211,0.1539917,88.0
989,0.85159206,-1.0463715,-0.33953857,1.0471436,-0.3090454,0.2984253,88.0
990,-0.18084812,-0.653038,-0.14501953,1.0471436,-0.3090454,0.2984253,88.0
991,-0.18084812,-0.653038,-0.14501953,1.7597535,-0.4322388,0.5150757,88.0
992,-0.6255989,-0.2601242,0.14117432,1.7597535,-0.4322388,0.5150757,88.0
993,-0.6255989,-0.2601242,0.14117432,2.3725343,-0.5129517,0.7593384,88.0
994,-0.6255989,-0.2601242,0.14117432,2.3725343,-0.5129517,0.7593384,89.0
995,-0.24930716,-0.09694672,0.4485321,2.3725343,-0.5129517,0.7593384,89.0
996,-0.24930716,-0.09694672,0.4485321,2.6730835,-0.50445557,1.0301514,89.0
997,0.30415535,-0.100227356,0.6658325,2.6730835,-0.50445557,1.0301514,89.0
998,0.30415535,-0.100227356,0.6658325,2.6964478,-0.4354248,1.3699951,89.0
999,0.3669691,0.09667969,0.7631607,2.6964478,-0.4354248,1.3699951,89.0
1000,0.3669691,0.09667969,0.7631607,2.5913086,-0.36002198,1.720459,89.0
1001,-0.24311924,0.58599854,0.7455406,2.5913086,-0.36002198,1.720459,89.0
1002,-0.24311924,0.58599854,0.7455406,2.0518067,-0.15505372,2.005078,89.0
1003,-1.3401618,1.0574493,0.74502563,2.0518067,-0.15505372,2.005078,89.0
1004,-1.3401618,1.0574493,0.74502563,1.6567383,-0.011682129,2.3088136,89.0
1005,-2.466917,1.3805695,0.7633438,1.6567383,-0.011682129,2.3088136,89.0
1006,-2.466917,1.3805695,0.7633438,1.2627319,0.1274414,2.5775025,89.0
1007,-3.2115831,1.5171967,0.7224541,1.2627319,0.1274414,2.5775025,89.0
1008,-3.2115831,1.5171967,0.7224541,0.8782837,0.2782471,2.7622926,89.0
1009,-3.4526038,1.4253845,0.59799194,0.8782837,0.2782471,2.7622926,89.0
1010,-3.4526038,1.4253845,0.59799194,0.6903076,0.36851808,2.8716798,89.0
1011,-3.3317976,1.2198257,0.45393372,0.6903076,0.36851808,2.8716798,89.0
1012,-3.3317976,1.2198257,0.45393372,0.6064087,0.44923097,2.8769898,89.0
1013,-3.036593,1.0485382,0.34747314,0.6064087,0.44923097,2.8769898,89.0
1014,-3.036593,1.0485382,0.34747314,0.6180908,0.5140137,2.7686646,89.0
1015,-2.7180316,0.9460068,0.30142975,0.6180908,0.5140137,2.7686646,89.0
1016,-2.7180316,0.9460068,0.30142975,0.6796875,0.5766724,2.546704,89.0
1017,-2.4479485,0.8957138,0.28779602,0.6796875,0.5766724,2.546704,89.0
1018,-2.4479485,0.8957138,0.28779602,0.7062378,0.62977296,2.2397828,89.0
1019,-2.224118,0.8595581,0.26465988,0.7062378,0.62977296,2.2397828,89.0
1020,-2.224118,0.8595581,0.26465988,0.6637573,0.6818115,1.8776368,89.0
1021,-2.0127416,0.8346329,0.24230576,0.6637573,0.6818115,1.8776368,89.0
1022,-2.0127416,0.8346329,0.24230576,0.53737795,0.71579593,1.4995606,89.0
1023,-1.7861576,0.8213959,0.23576355,0.53737795,0.71579593,1.4995606,89.0
1024,-1.7861576,0.8213959,0.23576355,0.32497558,0.7126099,1.1342286,89.0
1025,-1.5328567,0.7519226,0.24971771,0.32497558,0.7126099,1.1342286,89.0
1026,-1.5328567,0.7519226,0.24971771,0.14974366,0.62977296,0.7827026,89.0
1027,-1.147135,0.5530853,0.32250214,0.14974366,0.62977296,0.7827026,89.0
1028,-1.147135,0.5530853,0.32250214,0.124255374,0.47790527,0.44073486,89.0
1029,-0.51288605,0.223732,0.4655075,0.124255374,0.47790527,0.44073486,89.0
1030,-0.51288605,0.223732,0.4655075,0.23895264,0.27293703,0.10407715,89.0
1031,0.23076773,-0.08317566,0.62368774,0.23895264,0.27293703,0.10407715,89.0
1032,0.23076773,-0.08317566,0.62368774,0.36002198,0.07965088,-0.18585205,89.0
1033,0.7747388,-0.1521225,0.73524094,0.36002198,0.07965088,-0.18585205,89.0
1034,0.7747388,-0.1521225,0.73524094,0.33984375,-0.07646485,-0.39082032,89.0
1035,0.97651696,-0.018630981,0.7785988,0.33984375,-0.07646485,-0.39082032,89.0
1036,0.97651696,-0.018630981,0.7785988,0.12319336,-0.2166504,-0.542688,89.0
1037,1.2183473,0.034729004,0.7855377,0.12319336,-0.2166504,-0.542688,89.0
1038,1.2183473,0.034729004,0.7855377,-0.0010620117,-0.39506838,-0.7678345,89.0
1039,1.856111,-0.14492035,0.7414665,-0.0010620117,-0.39506838,-0.7678345,89.0
1040,1.856111,-0.14492035,0.7414665,-0.1720459,-0.5278198,-1.1416626,89.0
1041,2.388673,-0.4961319,0.593441,-0.1720459,-0.5278198,-1.1416626,89.0
1042,2.388673,-0.4961319,0.593441,-0.37807617,-0.6159668,-1.5675293,89.0
1043,2.0788462,-0.8134613,0.4384346,-0.37807617,-0.6159668,-1.5675293,89.0
1044,2.0788462,-0.8134613,0.4384346,-0.49064943,-0.724292,-1.8436524,89.0
1045,1.1017488,-0.92518616,0.51737213,-0.49064943,-0.724292,-1.8436524,89.0
1046,1.1017488,-0.92518616,0.51737213,-0.38763428,-0.75615233,-1.8574585,89.0
1047,0.34225112,-0.8073578,0.9126129,-0.38763428,-0.75615233,-1.8574585,89.0
1048,0.34225112,-0.8073578,0.9126129,-0.18479005,-0.7062378,-1.6206299,89.0
1049,0.25010705,-0.5017929,1.2542343,-0.18479005,-0.7062378,-1.6206299,89.0
1050,0.25010705,-0.5017929,1.2542343,-0.07752686,-0.52250975,-1.2744141,89.0
1051,0.42576927,-0.053390503,1.0142021,-0.07752686,-0.52250975,-1.2744141,89.0
1052,0.42576927,-0.053390503,1.0142021,-0.17416993,-0.33028564,-0.9451904,89.0
1053,0.18200946,0.45070648,0.101997375,-0.17416993,-0.33028564,-0.9451904,89.0
1054,0.18200946,0.45070648,0.101997375,-0.49171144,-0.21027832,-0.75296634,89.0
1055,-0.5941508,0.75218964,-0.9241638,-0.49171144,-0.21027832,-0.75296634,89.0
1056,-0.5941508,0.75218964,-0.9241638,-0.8772217,-0.16248779,-0.7041138,89.0
1057,-1.5080233,0.6947937,-1.3771973,-0.8772217,-0.16248779,-0.7041138,89.0
1058,-1.5080233,0.6947937,-1.3771973,-1.270166,-0.1539917,-0.73703617,89.0
1059,-2.0559182,0.3462906,-1.13097,-1.270166,-0.1539917,-0.73703617,89.0
1060,-2.0559182,0.3462906,-1.13097,-1.4273437,-0.13275146,-0.815625,89.0
1061,-2.0456257,-0.08441162,-0.6353302,-1.4273437,-0.13275146,-0.815625,89.0
1062,-2.0456257,-0.08441162,-0.6353302,-1.44646,-0.050976563,-0.91120607,89.0
1063,-1.645778,-0.38513184,-0.38598633,-1.44646,-0.050976563,-0.91120607,89.0
1064,-1.645778,-0.38513184,-0.38598633,-1.4751343,0.07434082,-1.0375855,89.0
1065,-1.125155,-0.5446625,-0.47705078,-1.4751343,0.07434082,-1.0375855,89.0
1066,-1.125155,-0.5446625,-0.47705078,-1.358313,0.17416993,-1.2160034,89.0
1067,-0.62198687,-0.5934677,-0.7124748,-1.358313,0.17416993,-1.2160034,89.0
1068,-0.62198687,-0.5934677,-0.7124748,-1.1852051,0.2357666,-1.4294678,89.0
1069,-0.10036039,-0.56892395,-0.9055176,-1.1852051,0.2357666,-1.4294678,89.0
1070,-0.10036039,-0.56892395,-0.9055176,-1.089624,0.27293703,-1.6408081,89.0
1071,0.49489474,-0.5836487,-0.9159889,-1.089624,0.27293703,-1.6408081,89.0
1072,0.49489474,-0.5836487,-0.9159889,-1.0312134,0.27399904,-1.7958618,89.0
1073,1.115386,-0.67378235,-0.77684784,-1.0312134,0.27399904,-1.7958618,89.0
1074,1.115386,-0.67378235,-0.77684784,-0.9547486,0.24107666,-1.8510865,89.0
1075,1.6637566,-0.78611755,-0.6326866,-0.9547486,0.24107666,-1.8510865,89.0
1076,1.6637566,-0.78611755,-0.6326866,-0.8687256,0.19647217,-1.812854,89.0
1077,2.0512323,-0.84156036,-0.52615356,-0.8687256,0.19647217,-1.812854,89.0
1078,2.0512323,-0.84156036,-0.52615356,-0.75296634,0.12213135,-1.718335,89.0
1079,2.302827,-0.86990356,-0.38529205,-0.75296634,0.12213135,-1.718335,89.0
1080,2.302827,-0.86990356,-0.38529205,-0.6074707,0.04460449,-1.5877075,89.0
1081,2.4663582,-0.9646759,-0.12256622,-0.6074707,0.04460449,-1.5877075,89.0
1082,2.4663582,-0.9646759,-0.12256622,-0.41206056,-0.02442627,-1.4124756,89.0
1083,2.4376616,-1.0487595,0.20388794,-0.41206056,-0.02442627,-1.4124756,89.0
1084,2.4376616,-1.0487595,0.20388794,-0.19753419,-0.05522461,-1.1650269,89.0
1085,2.4376616,-1.0487595,0.20388794,-0.19753419,-0.05522461,-1.1650269,89.0
1086,2.2081008,-0.99518585,0.45096588,-0.19753419,-0.05522461,-1.1650269,89.0
1087,2.2081008,-0.99518585,0.45096588,-0.0031860352,-0.04248047,-0.8602295,89.0
1088,1.9257824,-0.7615433,0.51857376,-0.0031860352,-0.04248047,-0.8602295,89.0
1089,1.9257824,-0.7615433,0.51857376,0.047790527,0.026550293,-0.542688,89.0
1090,1.6590343,-0.41548157,0.39702606,0.047790527,0.026550293,-0.542688,89.0
1091,1.6590343,-0.41548157,0.39702606,-0.06796875,0.13275146,-0.22408448,89.0
1092,1.4119687,-0.036834717,0.067611694,-0.06796875,0.13275146,-0.22408448,89.0
1093,1.4119687,-0.036834717,0.067611694,-0.38338622,0.2527588,0.09770508,89.0
1094,1.1730075,0.33311462,-0.41653824,-0.38338622,0.2527588,0.09770508,89.0
1095,1.1730075,0.33311462,-0.41653824,-0.8464233,0.3695801,0.3525879,89.0
1096,1.1131375,0.4729004,-0.87145233,-0.8464233,0.3695801,0.3525879,89.0
1097,1.1131375,0.4729004,-0.87145233,-1.174585,0.41099855,0.46409914,89.0
1098,1.3576732,0.13178253,-1.1266518,-1.174585,0.41099855,0.46409914,89.0
1099,1.3576732,0.13178253,-1.1266518,-1.2138795,0.36851808,0.39188233,89.0
1100,1.5082698,-0.58399963,-1.096878,-1.2138795,0.36851808,0.39188233,89.0
1101,1.5082698,-0.58399963,-1.096878,-0.70942384,0.22089843,0.2888672,89.0
1102,1.1284542,-1.1649475,-0.8653946,-0.70942384,0.22089843,0.2888672,89.0
1103,1.1284542,-1.1649475,-0.8653946,-0.1178833,0.17735596,0.3079834,89.0
1104,0.38199902,-1.2732544,-0.5435028,-0.1178833,0.17735596,0.3079834,89.0
1105,0.38199902,-1.2732544,-0.5435028,0.68287355,0.08283692,0.43117675,89.0
1106,-0.15597296,-0.9414978,-0.2489624,0.68287355,0.08283692,0.43117675,89.0
1107,-0.15597296,-0.9414978,-0.2489624,1.545227,-0.05628662,0.5872925,89.0
1108,-0.20009565,-0.3953247,-0.032836914,1.545227,-0.05628662,0.5872925,89.0
1109,-0.20009565,-0.3953247,-0.032836914,2.0326905,-0.09770508,0.8315552,89.0
1110,0.0037174225,0.1251297,0.11774826,2.0326905,-0.09770508,0.8315552,89.0
1111,0.0037174225,0.1251297,0.11774826,1.9466676,-0.0637207,1.2000732,89.0
1112,-1.6307831E-4,0.5719681,0.19494629,1.9466676,-0.0637207,1.2000732,89.0
1113,-1.6307831E-4,0.5719681,0.19494629,1.4623902,-0.012744141,1.6365601,89.0
1114,-0.38850927,0.93574524,0.23550034,1.4623902,-0.012744141,1.6365601,89.0
1115,-0.38850927,0.93574524,0.23550034,0.8687256,0.027612304,2.0188844,89.0
1116,-0.97869086,1.0605164,0.28883743,0.8687256,0.027612304,2.0188844,89.0
1117,-0.97869086,1.0605164,0.28883743,0.5363159,0.028674318,2.3417358,89.0
1118,-1.5617857,0.9396515,0.32413483,0.5363159,0.028674318,2.3417358,89.0
1119,-1.5617857,0.9396515,0.32413483,0.38869628,0.038232423,2.5859985,89.0
1120,-1.9922142,0.7591095,0.29850388,0.38869628,0.038232423,2.5859985,89.0
1121,-1.9922142,0.7591095,0.29850388,0.4428589,0.07327881,2.7283082,89.0
1122,-2.2273042,0.661438,0.2585144,0.4428589,0.07327881,2.7283082,89.0
1123,-2.2273042,0.661438,0.2585144,0.62127686,0.13275146,2.7760987,89.0
1124,-2.3274121,0.697937,0.25539398,0.62127686,0.13275146,2.7760987,89.0
1125,-2.3274121,0.697937,0.25539398,0.73703617,0.20603028,2.7198122,89.0
1126,-2.3470984,0.79764557,0.30226517,0.73703617,0.20603028,2.7198122,89.0
1127,-2.3470984,0.79764557,0.30226517,0.7455322,0.30267334,2.5764406,89.0
1128,-2.3472466,0.9048538,0.35228348,0.7455322,0.30267334,2.5764406,89.0
1129,-2.3472466,0.9048538,0.35228348,0.62977296,0.40037844,2.3842163,89.0
1130,-2.4458148,1.0222473,0.32406235,0.62977296,0.40037844,2.3842163,89.0
1131,-2.4458148,1.0222473,0.32406235,0.50233155,0.45560303,2.162256,89.0
1132,-2.7463248,1.16716,0.16397476,0.50233155,0.45560303,2.162256,89.0
1133,-2.7463248,1.16716,0.16397476,0.31966552,0.45666504,1.9254273,89.0
1134,-3.1541033,1.239151,0.011417389,0.31966552,0.45666504,1.9254273,89.0
1135,-3.1541033,1.239151,0.011417389,0.27399904,0.38869628,1.6885986,89.0
1136,-3.4031289,1.1716156,0.048583984,0.27399904,0.38869628,1.6885986,89.0
1137,-3.4031289,1.1716156,0.048583984,0.33878174,0.30161133,1.454956,89.0
1138,-3.3582697,1.0324326,0.21214294,0.33878174,0.30161133,1.454956,89.0
1139,-3.3582697,1.0324326,0.21214294,0.41843262,0.21027832,1.2234375,89.0
1140,-3.1044626,0.92409515,0.28399658,0.41843262,0.21027832,1.2234375,89.0
1141,-3.1044626,0.92409515,0.28399658,0.46409914,0.10620117,0.97067875,89.0
1142,-2.655311,0.80794525,0.23699951,0.46409914,0.10620117,0.97067875,89.0
1143,-2.655311,0.80794525,0.23699951,0.52675784,-0.0021240234,0.6701294,89.0
1144,-1.8820858,0.596405,0.23973465,0.52675784,-0.0021240234,0.6701294,89.0
1145,-1.8820858,0.596405,0.23973465,0.634021,-0.10407715,0.3058594,89.0
1146,-0.808208,0.279068,0.34872055,0.634021,-0.10407715,0.3058594,89.0
1147,-0.808208,0.279068,0.34872055,0.6796875,-0.18479005,-0.11469727,89.0
1148,0.3176427,-0.026916504,0.5062332,0.6796875,-0.18479005,-0.11469727,89.0
1149,0.3176427,-0.026916504,0.5062332,0.6425171,-0.27718505,-0.541626,89.0
1150,1.1694951,-0.26124573,0.691349,0.6425171,-0.27718505,-0.541626,89.0
1151,1.1694951,-0.26124573,0.691349,0.4980835,-0.35683593,-0.903772,89.0
1152,1.543714,-0.38846588,0.95763016,0.4980835,-0.35683593,-0.903772,89.0
1153,1.543714,-0.38846588,0.95763016,0.3079834,-0.40993652,-1.1586548,89.0
1154,1.6163068,-0.50912476,1.3625374,0.3079834,-0.40993652,-1.1586548,89.0
1155,1.6163068,-0.50912476,1.3625374,0.21558838,-0.39506838,-1.3487549,89.0
1156,2.199796,-0.7685776,1.8752098,0.21558838,-0.39506838,-1.3487549,89.0
1157,2.199796,-0.7685776,1.8752098,0.27612305,-0.3419678,-1.5484132,89.0
1158,3.5135722,-0.96559143,1.9845428,0.27612305,-0.3419678,-1.5484132,89.0
1159,3.5135722,-0.96559143,1.9845428,-0.035046387,-0.23789063,-1.7416992,89.0
1160,4.346722,-0.8542099,1.1871223,-0.035046387,-0.23789063,-1.7416992,89.0
1161,4.346722,-0.8542099,1.1871223,-0.77526855,-0.13275146,-1.8956909,89.0
1162,3.499802,-0.5578995,-0.019477844,-0.77526855,-0.13275146,-1.8956909,89.0
1163,3.499802,-0.5578995,-0.019477844,-1.3753052,-0.059472658,-1.8893188,89.0
1164,1.5014408,-0.34290314,-0.6099205,-1.3753052,-0.059472658,-1.8893188,89.0
1165,1.5014408,-0.34290314,-0.6099205,-1.627002,-0.08071289,-1.6758546,89.0
1166,-0.12174776,-0.33992004,-0.42206955,-1.627002,-0.08071289,-1.6758546,89.0
1167,-0.12174776,-0.33992004,-0.42206955,-1.628064,-0.019116212,-1.3487549,89.0
1168,-0.6407454,-0.41033936,-0.13373947,-1.628064,-0.019116212,-1.3487549,89.0
1169,-0.6407454,-0.41033936,-0.13373947,-1.3466309,0.0010620117,-1.0312134,89.0
1170,-0.34855825,-0.40208435,-0.36019135,-1.3466309,0.0010620117,-1.0312134,89.0
1171,-0.34855825,-0.40208435,-0.36019135,-1.0864381,-0.0031860352,-0.817749,89.0
1172,0.08323836,-0.28866577,-0.9891548,-1.0864381,-0.0031860352,-0.817749,89.0
1173,0.08323836,-0.28866577,-0.9891548,-0.9696167,-0.007434082,-0.77526855,89.0
1174,0.15094131,-0.12374115,-1.5178986,-0.9696167,-0.007434082,-0.77526855,89.0
1175,0.15094131,-0.12374115,-1.5178986,-1.0981201,0.057348635,-0.90058595,89.0
1176,-0.2968861,-0.036621094,-1.6579361,-1.0981201,0.057348635,-0.90058595,89.0
1177,-0.2968861,-0.036621094,-1.6579361,-1.2000732,0.098767094,-1.0418335,89.0
1178,-0.99826324,-0.11568451,-1.4995689,-1.2000732,0.098767094,-1.0418335,89.0
1179,-0.99826324,-0.11568451,-1.4995689,-1.1480347,0.11044922,-1.1607789,89.0
1180,-1.4389182,-0.2027893,-1.2376442,-1.1480347,0.11044922,-1.1607789,89.0
1181,-1.4389182,-0.2027893,-1.2376442,-0.88359374,0.087084964,-1.2266235,89.0
1182,-1.3150262,-0.07901764,-1.0736237,-0.88359374,0.087084964,-1.2266235,89.0
1183,-1.3150262,-0.07901764,-1.0736237,-0.7497803,0.13912354,-1.3126465,89.0
1184,-0.7675848,0.10597992,-1.0705185,-0.7497803,0.13912354,-1.3126465,89.0
1185,-0.7675848,0.10597992,-1.0705185,-0.6966797,0.1985962,-1.4400879,89.0
1186,-0.087212324,0.06138611,-1.0953331,-0.6966797,0.1985962,-1.4400879,89.0
1187,-0.087212324,0.06138611,-1.0953331,-0.65844727,0.21558838,-1.5919555,89.0
1188,0.60817194,-0.16066742,-0.96595,-0.65844727,0.21558838,-1.5919555,89.0
1189,0.60817194,-0.16066742,-0.96595,-0.65844727,0.21558838,-1.5919555,89.0
1190,0.60817194,-0.16066742,-0.96595,-0.6860596,0.25806886,-1.7395753,89.0
1191,1.2830341,-0.33369446,-0.7003479,-0.6860596,0.25806886,-1.7395753,89.0
1192,1.2830341,-0.33369446,-0.7003479,-0.815625,0.34727785,-1.8394043,89.0
1193,1.7996817,-0.4068985,-0.48902893,-0.815625,0.34727785,-1.8394043,89.0
1194,1.7996817,-0.4068985,-0.48902893,-1.0227174,0.4333008,-1.8574585,89.0
1195,2.0532098,-0.43401337,-0.4446411,-1.0227174,0.4333008,-1.8574585,89.0
1196,2.0532098,-0.43401337,-0.4446411,-1.2043213,0.48109132,-1.7863038,89.0
1197,2.067165,-0.4298401,-0.5082016,-1.2043213,0.48109132,-1.7863038,89.0
1198,2.067165,-0.4298401,-0.5082016,-1.3328247,0.49064943,-1.634436,89.0
1199,2.067165,-0.4298401,-0.5082016,-1.3264526,0.45878908,-1.4390259,89.0
1200,1.9337612,-0.42103577,-0.53300476,-1.3264526,0.45878908,-1.4390259,89.0
1201,1.7553952,-0.39918518,-0.46274567,-1.3264526,0.45878908,-1.4390259,89.0
1202,1.7553952,-0.39918518,-0.46274567,-1.2383057,0.40144044,-1.2298096,89.0
1203,1.5974436,-0.4026947,-0.36740112,-1.2383057,0.40144044,-1.2298096,89.0
1204,1.5974436,-0.4026947,-0.36740112,-1.0492676,0.3079834,-1.0588257,89.0
1205,1.5014901,-0.47449493,-0.272789,-1.0492676,0.3079834,-1.0588257,89.0
1206,1.5014901,-0.47449493,-0.272789,-0.7391602,0.1985962,-0.9451904,89.0
1207,1.4688556,-0.5670624,-0.12953568,-0.7391602,0.1985962,-0.9451904,89.0
1208,1.4688556,-0.5670624,-0.12953568,-0.35789797,0.11151123,-0.8602295,89.0
1209,1.4773428,-0.5817871,0.046333313,-0.35789797,0.11151123,-0.8602295,89.0
1210,1.4773428,-0.5817871,0.046333313,-0.038232423,0.0722168,-0.7688965,89.0
1211,1.5429459,-0.46901703,0.15080261,-0.038232423,0.0722168,-0.7688965,89.0
1212,1.5429459,-0.46901703,0.15080261,0.070092775,0.1083252,-0.63933104,89.0
1213,1.7808414,-0.27174377,0.06980133,0.070092775,0.1083252,-0.63933104,89.0
1214,1.7808414,-0.27174377,0.06980133,-0.090270996,0.14124756,-0.55968016,89.0
1215,2.281448,-0.19747162,-0.15499878,-0.090270996,0.14124756,-0.55968016,89.0
1216,2.281448,-0.19747162,-0.15499878,-0.2888672,0.1529297,-0.5787964,89.0
1217,2.6784053,-0.5074158,-0.34713364,-0.2888672,0.1529297,-0.5787964,89.0
1218,2.6784053,-0.5074158,-0.34713364,-0.23895264,0.0361084,-0.5511841,89.0
1219,2.333044,-0.9921341,-0.36564636,-0.23895264,0.0361084,-0.5511841,89.0
1220,2.333044,-0.9921341,-0.36564636,0.36745605,-0.1901001,-0.30479738,89.0
1221,1.2221851,-1.1013489,-0.28588867,0.36745605,-0.1901001,-0.30479738,89.0
1222,1.2221851,-1.1013489,-0.28588867,1.085376,-0.362146,0.10620117,89.0
1223,0.45665455,-0.87874603,-0.119190216,1.085376,-0.362146,0.10620117,89.0
1224,0.45665455,-0.87874603,-0.119190216,1.5303589,-0.45135498,0.33878174,89.0
1225,-0.811532,0.0121536255,-0.1240387,1.5303589,-0.45135498,0.33878174,89.0
1226,-0.811532,0.0121536255,-0.1240387,2.3024414,-0.5671143,1.0195312,89.0
1227,-1.020112,0.270401,0.15308762,2.3024414,-0.5671143,1.0195312,89.0
1228,-1.020112,0.270401,0.15308762,2.2843874,-0.56392825,1.2404298,89.0
1229,-1.3163095,0.9702606,0.3496933,2.2843874,-0.56392825,1.2404298,89.0
1230,-1.3163095,0.9702606,0.3496933,1.987024,-0.5065796,1.8404664,89.0
1231,-1.3613605,0.8282471,0.5332451,1.987024,-0.5065796,1.8404664,89.0
1232,-1.3613605,0.8282471,0.5332451,1.9254273,-0.47790527,1.9976441,89.0
1233,-1.153554,0.5858383,0.4338951,1.9254273,-0.47790527,1.9976441,89.0
1234,-1.153554,0.5858383,0.4338951,1.812854,-0.30267334,2.3236816,89.0
1235,-1.1540201,0.36627197,0.46292114,1.812854,-0.30267334,2.3236816,89.0
1236,-1.1540201,0.36627197,0.46292114,1.7671875,-0.21558838,2.4065187,89.0
1237,-1.0942855,0.36484528,0.1991806,1.7671875,-0.21558838,2.4065187,89.0
1238,-1.0942855,0.36484528,0.1991806,1.539917,0.046728518,2.5998046,89.0
1239,-1.3170054,0.44395447,0.31209183,1.539917,0.046728518,2.5998046,89.0
1240,-1.3170054,0.44395447,0.31209183,1.4252198,0.1263794,2.6475952,89.0
1241,-1.7311313,0.97898865,0.377491,1.4252198,0.1263794,2.6475952,89.0
1242,-1.7311313,0.97898865,0.377491,1.0301514,0.30373535,2.7283082,89.0
1243,-1.9184866,0.98574066,0.44127274,1.0301514,0.30373535,2.7283082,89.0
1244,-1.9184866,0.98574066,0.44127274,0.88996583,0.3451538,2.7336183,89.0
1245,-2.1694937,1.0026169,0.4677124,0.88996583,0.3451538,2.7336183,89.0
1246,-2.1694937,1.0026169,0.4677124,0.5734863,0.43754885,2.6858277,89.0
1247,-2.1753654,0.8747406,0.44545746,0.5734863,0.43754885,2.6858277,89.0
1248,-2.1753654,0.8747406,0.44545746,0.4991455,0.46409914,2.6465333,89.0
1249,-2.0972993,0.7293701,0.40351105,0.4991455,0.46409914,2.6465333,89.0
1250,-2.0972993,0.7293701,0.40351105,0.39506838,0.50233155,2.4691772,89.0
1251,-2.0126662,0.6956558,0.33805847,0.39506838,0.50233155,2.4691772,89.0
1252,-2.0126662,0.6956558,0.33805847,0.3802002,0.50870365,2.3895264,89.0
1253,-1.8876721,0.75683594,0.24627686,0.3802002,0.50870365,2.3895264,89.0
1254,-1.8876721,0.75683594,0.24627686,0.3058594,0.4970215,2.1197755,89.0
1255,-1.8417783,0.77534485,0.22287369,0.3058594,0.4970215,2.1197755,89.0
1256,-1.8417783,0.77534485,0.22287369,0.26337892,0.4800293,2.0252564,89.0
1257,-1.9031835,0.84552,0.2809105,0.26337892,0.4800293,2.0252564,89.0
1258,-1.9031835,0.84552,0.2809105,0.18054199,0.42161867,1.8447144,89.0
1259,-2.0765018,0.89619446,0.39761734,0.18054199,0.42161867,1.8447144,89.0
1260,-2.0765018,0.89619446,0.39761734,0.11044922,0.3355957,1.6567383,89.0
1261,-2.3047805,0.8849335,0.61543274,0.11044922,0.3355957,1.6567383,89.0
1262,-2.3047805,0.8849335,0.61543274,0.1709839,0.11469727,1.2988404,89.0
1263,-2.002992,0.77365875,0.6035042,0.1709839,0.11469727,1.2988404,89.0
1264,-2.002992,0.77365875,0.6035042,0.23364258,0.021240234,1.1416626,89.0
1265,-1.4200327,0.56178284,0.68704987,0.23364258,0.021240234,1.1416626,89.0
1266,-1.4200327,0.56178284,0.68704987,0.41524658,-0.15611573,0.7625244,89.0
1267,-0.70901203,0.3755188,0.8298416,0.41524658,-0.15611573,0.7625244,89.0
1268,-0.70901203,0.3755188,0.8298416,0.4970215,-0.27399904,0.35577393,89.0
1269,-0.20119405,0.4267273,1.1539345,0.4970215,-0.27399904,0.35577393,89.0
1270,-0.20119405,0.4267273,1.1539345,0.1709839,-0.3175415,-0.19222413,89.0
1271,-0.0070610046,0.36751556,1.1358032,0.1709839,-0.3175415,-0.19222413,89.0
1272,-0.0070610046,0.36751556,1.1358032,0.058410645,-0.34090576,-0.37489015,89.0
1273,1.260196,0.302536,1.217102,0.058410645,-0.34090576,-0.37489015,89.0
1274,1.260196,0.302536,1.217102,-0.26337892,-0.45560303,-1.0662597,89.0
1275,1.759341,0.15866852,0.8659668,-0.26337892,-0.45560303,-1.0662597,89.0
1276,1.759341,0.15866852,0.8659668,-0.43011475,-0.48427734,-1.3307008,89.0
1277,2.2717307,-0.04928589,0.25109863,-0.43011475,-0.48427734,-1.3307008,89.0
1278,2.2717307,-0.04928589,0.25109863,-0.814563,-0.5713623,-1.7724975,89.0
1279,1.537343,-0.37831116,-0.13487625,-0.814563,-0.5713623,-1.7724975,89.0
1280,1.537343,-0.37831116,-0.13487625,-0.9526245,-0.67650145,-1.9806519,89.0
1281,0.3347695,-0.62028503,0.02740097,-0.9526245,-0.67650145,-1.9806519,89.0
1282,0.3347695,-0.62028503,0.02740097,-0.84111327,-0.7072998,-2.0029542,89.0
1283,-0.16470397,-0.74194336,0.518383,-0.84111327,-0.7072998,-2.0029542,89.0
1284,-0.16470397,-0.74194336,0.518383,-0.4354248,-0.68712157,-1.9201173,89.0
1285,0.41940868,-0.8203964,0.80953217,-0.4354248,-0.68712157,-1.9201173,89.0
1286,0.41940868,-0.8203964,0.80953217,-0.046728518,-0.5798584,-1.8255981,89.0
1287,1.4391525,-0.77401733,0.5813675,-0.046728518,-0.5798584,-1.8255981,89.0
1288,1.4391525,-0.77401733,0.5813675,0.0010620117,-0.38444826,-1.7714356,89.0
1289,1.9360144,-0.53041077,-0.08467102,0.0010620117,-0.38444826,-1.7714356,89.0
1290,1.9360144,-0.53041077,-0.08467102,-0.46622315,-0.14655761,-1.8255981,89.0
1291,1.9360144,-0.53041077,-0.08467102,-0.46622315,-0.14655761,-1.8255981,89.0
1292,1.4634111,-0.2883072,-0.8163452,-0.46622315,-0.14655761,-1.8255981,89.0
1293,1.4634111,-0.2883072,-0.8163452,-1.0482056,0.02442627,-1.9148072,89.0
1294,-0.1787706,-0.32811737,-1.2453728,-1.0482056,0.02442627,-1.9148072,89.0
1295,-0.1787706,-0.32811737,-1.2453728,-1.6801026,0.09239502,-2.0199463,89.0
1296,-0.37650037,-0.466156,-1.1745338,-1.6801026,0.09239502,-2.0199463,89.0
1297,-0.37650037,-0.466156,-1.1745338,-1.6418701,0.06478272,-2.0178223,89.0
1298,-0.78058267,-0.7116928,-0.9503212,-1.6418701,0.06478272,-2.0178223,89.0
1299,-0.78058267,-0.7116928,-0.9503212,-1.5101807,0.078588866,-1.992334,89.0
1300,-0.6878573,-0.7382126,-0.8417511,-1.5101807,0.078588866,-1.992334,89.0
1301,-0.6878573,-0.7382126,-0.8417511,-1.3264526,0.14549561,-1.9753418,89.0
1302,-0.29633075,-0.72978973,-0.8842926,-1.3264526,0.14549561,-1.9753418,89.0
1303,-0.29633075,-0.72978973,-0.8842926,-1.0131592,0.16673584,-1.9668458,89.0
1304,0.1656698,-0.7386627,-0.9448967,-1.0131592,0.16673584,-1.9668458,89.0
1305,0.1656698,-0.7386627,-0.9448967,-0.6637573,0.15930176,-1.9594116,89.0
1306,0.6282023,-0.6218109,-0.9163666,-0.6637573,0.15930176,-1.9594116,89.0
1307,0.6282023,-0.6218109,-0.9163666,-0.57561034,0.16248779,-1.9424194,89.0
1308,1.09868,-0.47039795,-0.79076004,-0.57561034,0.16248779,-1.9424194,89.0
1309,1.09868,-0.47039795,-0.79076004,-0.55968016,0.15717773,-1.8925049,89.0
1310,1.4981091,-0.4390869,-0.5982971,-0.55968016,0.15717773,-1.8925049,89.0
1311,1.4981091,-0.4390869,-0.5982971,-0.54906005,0.14761963,-1.7894897,89.0
1312,1.6932871,-0.4574051,-0.43580246,-0.54906005,0.14761963,-1.7894897,89.0
1313,1.6932871,-0.4574051,-0.43580246,-0.5533081,0.14337158,-1.622754,89.0
1314,1.6616366,-0.4666748,-0.3097992,-0.5533081,0.14337158,-1.622754,89.0
1315,1.6616366,-0.4666748,-0.3097992,-0.5246338,0.13806152,-1.3901733,89.0
1316,1.5403078,-0.40393066,-0.20617676,-0.5246338,0.13806152,-1.3901733,89.0
1317,1.5403078,-0.40393066,-0.20617676,-0.52250975,0.13275146,-1.1087402,89.0
1318,1.5030714,-0.25804138,-0.15222168,-0.52250975,0.13275146,-1.1087402,89.0
1319,1.5030714,-0.25804138,-0.15222168,-0.54693604,0.12319336,-0.8379273,89.0
1320,1.5446568,-0.13272095,-0.14631653,-0.54693604,0.12319336,-0.8379273,89.0
1321,1.5446568,-0.13272095,-0.14631653,-0.55755615,0.098767094,-0.6202149,89.0
1322,1.5614824,-0.1656189,-0.1389885,-0.55755615,0.098767094,-0.6202149,89.0
1323,1.5614824,-0.1656189,-0.1389885,-0.48640138,0.07434082,-0.44923097,89.0
1324,1.4780068,-0.32658386,-0.08251572,-0.48640138,0.07434082,-0.44923097,89.0
1325,1.4780068,-0.32658386,-0.08251572,-0.33771974,0.06690674,-0.2899292,89.0
1326,1.345113,-0.3952942,-0.015537262,-0.33771974,0.06690674,-0.2899292,89.0
1327,1.345113,-0.3952942,-0.015537262,-0.24957275,0.09664307,-0.124255374,89.0
1328,1.2366009,-0.2510147,-0.030960083,-0.24957275,0.09664307,-0.124255374,89.0
1329,1.2366009,-0.2510147,-0.030960083,-0.3079834,0.16779785,0.052038576,89.0
1330,1.2531111,-0.015670776,-0.15981293,-0.3079834,0.16779785,0.052038576,89.0
1331,1.2531111,-0.015670776,-0.15981293,-0.53100586,0.22408448,0.1709839,89.0
1332,1.5566635,-0.0072784424,-0.32852173,-0.53100586,0.22408448,0.1709839,89.0
1333,1.5566635,-0.0072784424,-0.32852173,-0.74659425,0.23364258,0.17523193,89.0
1334,1.9037414,-0.4619217,-0.37987137,-0.74659425,0.23364258,0.17523193,89.0
1335,1.9037414,-0.4619217,-0.37987137,-0.5278198,0.12531738,0.107263185,89.0
1336,1.6557446,-1.0675049,-0.277359,-0.5278198,0.12531738,0.107263185,89.0
1337,1.6557446,-1.0675049,-0.277359,0.19753419,-0.083898924,0.21346436,89.0
1338,0.6942005,-1.1460648,-0.13411713,0.19753419,-0.083898924,0.21346436,89.0
1339,0.6942005,-1.1460648,-0.13411713,0.9430664,-0.21558838,0.4895874,89.0
1340,-0.33578968,-0.644928,0.026081085,0.9430664,-0.21558838,0.4895874,89.0
1341,-0.33578968,-0.644928,0.026081085,1.6758546,-0.3440918,0.88359374,89.0
1342,-0.82720137,0.01524353,0.20361328,1.6758546,-0.3440918,0.88359374,89.0
1343,-0.82720137,0.01524353,0.20361328,2.1038454,-0.41312256,1.2807862,89.0
1344,-0.8075862,0.50938416,0.29701996,2.1038454,-0.41312256,1.2807862,89.0
1345,-0.8075862,0.50938416,0.29701996,2.1144655,-0.4056885,1.627002,89.0
1346,-0.6713376,0.6802597,0.33981323,2.1144655,-0.4056885,1.627002,89.0
1347,-0.6713376,0.6802597,0.33981323,1.9434814,-0.35046387,1.8946289,89.0
1348,-0.56131315,0.578125,0.39997864,1.9434814,-0.35046387,1.8946289,89.0
1349,-0.56131315,0.578125,0.39997864,1.8415283,-0.2527588,2.0592408,89.0
1350,-0.5621853,0.44010162,0.43597412,1.8415283,-0.2527588,2.0592408,89.0
1351,-0.5621853,0.44010162,0.43597412,1.6832886,-0.093457036,2.170752,89.0
1352,-0.8734784,0.48658752,0.39948654,1.6832886,-0.093457036,2.170752,89.0
1353,-0.8734784,0.48658752,0.39948654,1.4188477,0.081774905,2.2833252,89.0
1354,-1.4898226,0.7208557,0.29418945,1.4188477,0.081774905,2.2833252,89.0
1355,-1.4898226,0.7208557,0.29418945,1.1246704,0.21877442,2.4139526,89.0
1356,-2.1342287,0.97579956,0.20707703,1.1246704,0.21877442,2.4139526,89.0
1357,-2.1342287,0.97579956,0.20707703,0.901648,0.2824951,2.537146,89.0
1358,-2.5370948,1.1103516,0.2074089,0.901648,0.2824951,2.537146,89.0
1359,-2.5370948,1.1103516,0.2074089,0.6754395,0.34833986,2.6125488,89.0
1360,-2.6451178,1.0612183,0.25067902,0.6754395,0.34833986,2.6125488,89.0
1361,-2.6451178,1.0612183,0.25067902,0.54693604,0.3802002,2.6380372,89.0
1362,-2.542022,0.874588,0.28230286,0.54693604,0.3802002,2.6380372,89.0
1363,-2.542022,0.874588,0.28230286,0.5331299,0.38763428,2.608301,89.0
1364,-2.3264642,0.72499084,0.27401352,0.5331299,0.38763428,2.608301,89.0
1365,-2.3264642,0.72499084,0.27401352,0.54587406,0.3993164,2.4967897,89.0
1366,-2.0707905,0.68377686,0.25141144,0.54587406,0.3993164,2.4967897,89.0
1367,-2.0707905,0.68377686,0.25141144,0.5777344,0.4088745,2.3151855,89.0
1368,-1.8585613,0.7225723,0.23233032,0.5777344,0.4088745,2.3151855,89.0
1369,-1.8585613,0.7225723,0.23233032,0.56180423,0.42161867,2.1112792,89.0
1370,-1.7812338,0.8208847,0.20371246,0.56180423,0.42161867,2.1112792,89.0
1371,-1.7812338,0.8208847,0.20371246,0.41206056,0.42799073,1.9084351,89.0
1372,-1.8781731,0.9341583,0.1919136,0.41206056,0.42799073,1.9084351,89.0
1373,-1.8781731,0.9341583,0.1919136,0.2357666,0.39082032,1.717273,89.0
1374,-2.1105218,1.0159912,0.22122955,0.2357666,0.39082032,1.717273,89.0
1375,-2.1105218,1.0159912,0.22122955,0.121069334,0.2984253,1.5261109,89.0
1376,-2.2700949,0.99718475,0.26809692,0.121069334,0.2984253,1.5261109,89.0
1377,-2.2700949,0.99718475,0.26809692,0.0998291,0.15930176,1.2882203,89.0
1378,-2.0540154,0.8218231,0.33673096,0.0998291,0.15930176,1.2882203,89.0
1379,-2.0540154,0.8218231,0.33673096,0.2548828,-0.0180542,0.96218264,89.0
1380,-1.3773553,0.5305786,0.48713303,0.2548828,-0.0180542,0.96218264,89.0
1381,-1.3773553,0.5305786,0.48713303,0.47896728,-0.1985962,0.5543701,89.0
1382,-0.59487724,0.2973938,0.7136917,0.47896728,-0.1985962,0.5543701,89.0
1383,-0.59487724,0.2973938,0.7136917,0.5586182,-0.33028564,0.13806152,89.0
1384,-0.16562343,0.25941467,0.91820526,0.5586182,-0.33028564,0.13806152,89.0
1385,-0.16562343,0.25941467,0.91820526,0.32709962,-0.39506838,-0.2177124,89.0
1386,-0.1299963,0.30636597,1.1106873,0.32709962,-0.39506838,-0.2177124,89.0
1387,-0.1299963,0.30636597,1.1106873,0.1178833,-0.48109132,-0.52675784,89.0
1388,0.2285471,0.16461182,1.3003654,0.1178833,-0.48109132,-0.52675784,89.0
1389,0.2285471,0.16461182,1.3003654,0.052038576,-0.5872925,-0.8889038,89.0
1390,1.3924203,-0.22682953,1.3864708,0.052038576,-0.5872925,-0.8889038,89.0
1391,1.3924203,-0.22682953,1.3864708,0.043542482,-0.6414551,-1.3381348,89.0
1392,1.3924203,-0.22682953,1.3864708,0.043542482,-0.6414551,-1.3381348,88.0
1393,2.597176,-0.60549927,1.1735802,0.043542482,-0.6414551,-1.3381348,88.0
1394,2.597176,-0.60549927,1.1735802,-0.19434814,-0.6488892,-1.8011719,88.0
1395,2.6744084,-0.826004,0.70087814,-0.19434814,-0.6488892,-1.8011719,88.0
1396,2.6744084,-0.826004,0.70087814,-0.45666504,-0.66588134,-2.0879152,88.0
1397,1.7445561,-0.8634262,0.38680267,-0.45666504,-0.66588134,-2.0879152,88.0
1398,1.7445561,-0.8634262,0.38680267,-0.53100586,-0.7083618,-2.1505737,88.0
1399,0.9376005,-0.8061142,0.56793976,-0.53100586,-0.7083618,-2.1505737,88.0
1400,0.9376005,-0.8061142,0.56793976,-0.38551027,-0.6881836,-2.0316284,88.0
1401,0.8377879,-0.70700836,0.96559525,-0.38551027,-0.6881836,-2.0316284,88.0
1402,0.8377879,-0.70700836,0.96559525,-0.20390625,-0.59897465,-1.8001099,88.0
1403,1.0990877,-0.49739075,0.9457321,-0.20390625,-0.59897465,-1.8001099,88.0
1404,1.0990877,-0.49739075,0.9457321,-0.20709229,-0.47790527,-1.5239868,88.0
1405,1.0842874,-0.15003967,0.26304245,-0.20709229,-0.47790527,-1.5239868,88.0
1406,1.0842874,-0.15003967,0.26304245,-0.4609131,-0.36108398,-1.3275146,88.0
1407,0.58781564,0.14792633,-0.6543579,-0.4609131,-0.36108398,-1.3275146,88.0
1408,0.58781564,0.14792633,-0.6543579,-0.8644776,-0.29736328,-1.2903442,88.0
1409,-0.19986469,0.16352844,-1.2013283,-0.8644776,-0.29736328,-1.2903442,88.0
1410,-0.19986469,0.16352844,-1.2013283,-1.2340577,-0.26762697,-1.3381348,88.0
1411,-0.95118815,-0.09387207,-1.2236748,-1.2340577,-0.26762697,-1.3381348,88.0
1412,-0.95118815,-0.09387207,-1.2236748,-1.3190186,-0.24957275,-1.4188477,88.0
1413,-1.3443367,-0.37961578,-0.9905472,-1.3190186,-0.24957275,-1.4188477,88.0
1414,-1.3443367,-0.37961578,-0.9905472,-1.2393677,-0.18797608,-1.4740723,88.0
1415,-1.253692,-0.5154114,-0.7904358,-1.2393677,-0.18797608,-1.4740723,88.0
1416,-1.253692,-0.5154114,-0.7904358,-1.175647,-0.0637207,-1.5346069,88.0
1417,-0.85728717,-0.53447723,-0.76423264,-1.175647,-0.0637207,-1.5346069,88.0
1418,-0.85728717,-0.53447723,-0.76423264,-1.081128,0.026550293,-1.6100098,88.0
1419,-0.42328095,-0.5023117,-0.87322617,-1.081128,0.026550293,-1.6100098,88.0
1420,-0.42328095,-0.5023117,-0.87322617,-1.0057251,0.07646485,-1.7013428,88.0
1421,0.006541252,-0.46273804,-0.92923355,-1.0057251,0.07646485,-1.7013428,88.0
1422,0.006541252,-0.46273804,-0.92923355,-0.90695804,0.07646485,-1.7746216,88.0
1423,0.58716667,-0.51010895,-0.79389954,-0.90695804,0.07646485,-1.7746216,88.0
1424,0.58716667,-0.51010895,-0.79389954,-0.8889038,0.11257324,-1.809668,88.0
1425,1.3761054,-0.69239044,-0.5058594,-0.8889038,0.11257324,-1.809668,88.0
1426,1.3761054,-0.69239044,-0.5058594,-0.8209351,0.15505372,-1.7586914,88.0
1427,2.0547662,-0.83621216,-0.3034439,-0.8209351,0.15505372,-1.7586914,88.0
1428,2.0547662,-0.83621216,-0.3034439,-0.814563,0.22514649,-1.6333741,88.0
1429,2.2934103,-0.765625,-0.34248734,-0.814563,0.22514649,-1.6333741,88.0
1430,2.2934103,-0.765625,-0.34248734,-0.8517334,0.26550293,-1.4379638,88.0
1431,2.1249871,-0.5193939,-0.5188408,-0.8517334,0.26550293,-1.4379638,88.0
1432,2.1249871,-0.5193939,-0.5188408,-0.9483765,0.25806886,-1.2191895,88.0
1433,1.7948627,-0.2994995,-0.63272476,-0.9483765,0.25806886,-1.2191895,88.0
1434,1.7948627,-0.2994995,-0.63272476,-0.99935305,0.20390625,-0.99510497,88.0
1435,1.4817765,-0.30161285,-0.5606842,-0.99935305,0.20390625,-0.99510497,88.0
1436,1.4817765,-0.30161285,-0.5606842,-0.9122681,0.121069334,-0.77951664,88.0
1437,1.2824671,-0.5070877,-0.33868408,-0.9122681,0.121069334,-0.77951664,88.0
1438,1.2824671,-0.5070877,-0.33868408,-0.6637573,0.04248047,-0.56817627,88.0
1439,1.260361,-0.6826019,-0.1246109,-0.6637573,0.04248047,-0.56817627,88.0
1440,1.260361,-0.6826019,-0.1246109,-0.36320803,0.010620117,-0.36851808,88.0
1441,1.4022098,-0.64720154,-0.039779663,-0.36320803,0.010620117,-0.36851808,88.0
1442,1.4022098,-0.64720154,-0.039779663,-0.16142578,0.03079834,-0.18903808,88.0
1443,1.5158474,-0.39234924,-0.109119415,-0.16142578,0.03079834,-0.18903808,88.0
1444,1.5158474,-0.39234924,-0.109119415,-0.18372802,0.10089111,-0.007434082,88.0
1445,1.4261303,0.0063705444,-0.32187653,-0.18372802,0.10089111,-0.007434082,88.0
1446,1.4261303,0.0063705444,-0.32187653,-0.46728516,0.16354981,0.13275146,88.0
1447,1.398546,0.24323273,-0.6090164,-0.46728516,0.16354981,0.13275146,88.0
1448,1.398546,0.24323273,-0.6090164,-0.76677245,0.17947999,0.13487549,88.0
1449,1.398546,0.24323273,-0.6090164,-0.6595093,0.087084964,0.008496094,88.0
1450,1.6062512,-0.08267975,-0.7169266,-0.6595093,0.087084964,0.008496094,88.0
1451,1.2282748,-1.7544479,0.18439484,-0.6595093,0.087084964,0.008496094,88.0
1452,1.2282748,-1.7544479,0.18439484,0.10195313,-0.11257324,-0.033984374,88.0
1453,1.2282748,-1.7544479,0.18439484,1.0450195,-0.22089843,0.10407715,88.0
1454,1.2282748,-1.7544479,0.18439484,1.9233032,-0.22408448,0.42374268,88.0
1455,0.9215479,-1.069519,0.5173378,1.9233032,-0.22408448,0.42374268,88.0
1456,0.9215479,-1.069519,0.5173378,2.4872315,-0.20603028,0.9133301,88.0
1457,0.9833932,-0.20030975,0.61520004,2.4872315,-0.20603028,0.9133301,88.0
1458,0.9833932,-0.20030975,0.61520004,2.3831544,-0.06903076,1.4337158,88.0
1459,0.939559,0.63327026,0.54447937,2.3831544,-0.06903076,1.4337158,88.0
1460,0.939559,0.63327026,0.54447937,1.8563966,0.06584473,1.9126831,88.0
1461,0.43647385,1.1918945,0.4631958,1.8563966,0.06584473,1.9126831,88.0
1462,0.43647385,1.1918945,0.4631958,1.263794,0.15823975,2.2960694,88.0
1463,-0.50744915,1.3070068,0.4282341,1.263794,0.15823975,2.2960694,88.0
1464,-0.50744915,1.3070068,0.4282341,0.7582764,0.2548828,2.6157348,88.0
1465,-1.6353173,1.1663818,0.370018,0.7582764,0.2548828,2.6157348,88.0
1466,-1.6353173,1.1663818,0.370018,0.35152587,0.36108398,2.8483155,88.0
1467,-2.64872,1.0070496,0.23035431,0.35152587,0.36108398,2.8483155,88.0
1468,-2.64872,1.0070496,0.23035431,0.22408448,0.4258667,3.0490358,88.0
1469,-3.312372,0.91780853,0.05731964,0.22408448,0.4258667,3.0490358,88.0
1470,-3.312372,0.91780853,0.05731964,0.20709229,0.47896728,3.165857,88.0
1471,-3.562007,0.93037415,-0.08146286,0.20709229,0.47896728,3.165857,88.0
1472,-3.562007,0.93037415,-0.08146286,0.26975098,0.5097656,3.169043,88.0
1473,-3.4982018,0.9629288,-0.1375351,0.26975098,0.5097656,3.169043,88.0
1474,-3.4982018,0.9629288,-0.1375351,0.3334717,0.5171997,3.0543458,88.0
1475,-3.3033588,0.92105865,-0.12460327,0.3334717,0.5171997,3.0543458,88.0
1476,-3.3033588,0.92105865,-0.12460327,0.45135498,0.48640138,2.8408813,88.0
1477,-3.1248038,0.86074066,-0.053016663,0.45135498,0.48640138,2.8408813,88.0
1478,-3.1248038,0.86074066,-0.053016663,0.61702883,0.4333008,2.5424562,88.0
1479,-2.9840107,0.83288574,0.054473877,0.61702883,0.4333008,2.5424562,88.0
1480,-2.9840107,0.83288574,0.054473877,0.79013675,0.3791382,2.1781862,88.0
1481,-2.8594863,0.8630142,0.14262772,0.79013675,0.3791382,2.1781862,88.0
1482,-2.8594863,0.8630142,0.14262772,0.9143921,0.3345337,1.7894897,88.0
1483,-2.7798743,0.93136597,0.20851135,0.9143921,0.3345337,1.7894897,88.0
1484,-2.7798743,0.93136597,0.20851135,0.9674927,0.2538208,1.4039795,88.0
1485,-2.753172,1.013977,0.27339935,0.9674927,0.2538208,1.4039795,88.0
1486,-2.753172,1.013977,0.27339935,0.9600586,0.14974366,1.0567017,88.0
1487,-2.7006087,1.0745773,0.3506317,0.9600586,0.14974366,1.0567017,88.0
1488,-2.7006087,1.0745773,0.3506317,0.9260742,0.022302246,0.72854006,88.0
1489,-2.7006087,1.0745773,0.3506317,0.9260742,0.022302246,0.72854006,87.0
1490,-2.4376478,0.98578644,0.4740219,0.9260742,0.022302246,0.72854006,87.0
1491,-2.4376478,0.98578644,0.4740219,0.9802368,-0.1178833,0.3695801,87.0
1492,-1.6844568,0.64515686,0.66548157,0.9802368,-0.1178833,0.3695801,87.0
1493,-1.6844568,0.64515686,0.66548157,1.0875,-0.26444092,-0.057348635,87.0
1494,-0.398664,0.15261841,0.9152336,1.0875,-0.26444092,-0.057348635,87.0
1495,-0.398664,0.15261841,0.9152336,1.1586548,-0.3812622,-0.5299439,87.0
1496,0.9597311,-0.26712036,1.1668663,1.1586548,-0.3812622,-0.5299439,87.0
1497,0.9597311,-0.26712036,1.1668663,1.089624,-0.4630371,-0.9420044,87.0
1498,1.8148918,-0.45790863,1.3287086,1.089624,-0.4630371,-0.9420044,87.0
1499,1.8148918,-0.45790863,1.3287086,0.8506714,-0.48215333,-1.2202514,87.0
1500,2.0107512,-0.45983124,1.4091339,0.8506714,-0.48215333,-1.2202514,87.0
1501,2.0107512,-0.45983124,1.4091339,0.6425171,-0.49383545,-1.3614991,87.0
1502,2.3360424,-0.45166016,1.4800034,0.6425171,-0.49383545,-1.3614991,87.0
1503,2.3360424,-0.45166016,1.4800034,0.452417,-0.52675784,-1.5239868,87.0
1504,3.3906968,-0.5529022,1.3993111,0.452417,-0.52675784,-1.5239868,87.0
1505,3.3906968,-0.5529022,1.3993111,0.10195313,-0.56392825,-1.7650635,87.0
1506,3.9135463,-0.756752,1.0703392,0.10195313,-0.56392825,-1.7650635,87.0
1507,3.9135463,-0.756752,1.0703392,-0.33771974,-0.5957886,-1.8850708,87.0
1508,2.7204978,-0.85983276,0.7768402,-0.33771974,-0.5957886,-1.8850708,87.0
1509,2.7204978,-0.85983276,0.7768402,-0.5766724,-0.6138428,-1.6811646,87.0
1510,0.9604559,-0.7374573,0.8955307,-0.5766724,-0.6138428,-1.6811646,87.0
1511,0.9604559,-0.7374573,0.8955307,-0.6425171,-0.52038574,-1.2075074,87.0
1512,0.30591354,-0.4683609,1.2292175,-0.6425171,-0.52038574,-1.2075074,87.0
1513,0.30591354,-0.4683609,1.2292175,-0.5703003,-0.37701416,-0.67437744,87.0
1514,0.86537296,-0.10448456,1.0587273,-0.5703003,-0.37701416,-0.67437744,87.0
1515,0.86537296,-0.10448456,1.0587273,-0.53950197,-0.30479738,-0.2899292,87.0
1516,1.5383189,0.20191193,0.11846542,-0.53950197,-0.30479738,-0.2899292,87.0
1517,1.5383189,0.20191193,0.11846542,-0.65844727,-0.26125488,-0.15505372,87.0
1518,1.204471,0.30703735,-0.949955,-0.65844727,-0.26125488,-0.15505372,87.0
1519,1.204471,0.30703735,-0.949955,-0.86978763,-0.24532472,-0.21452637,87.0
1520,-0.2780736,0.31864166,-1.3921661,-0.86978763,-0.24532472,-0.21452637,87.0
1521,-0.2780736,0.31864166,-1.3921661,-1.1352905,-0.16142578,-0.34727785,87.0
1522,-2.109251,0.38945007,-1.1713257,-1.1352905,-0.16142578,-0.34727785,87.0
1523,-2.109251,0.38945007,-1.1713257,-1.4294678,0.0,-0.49383545,87.0
1524,-3.4229233,0.47477722,-0.79032135,-1.4294678,0.0,-0.49383545,87.0
1525,-3.4229233,0.47477722,-0.79032135,-1.6684204,0.12850343,-0.65207523,87.0
1526,-3.775497,0.444458,-0.6287384,-1.6684204,0.12850343,-0.65207523,87.0
1527,-3.775497,0.444458,-0.6287384,-1.8309082,0.20603028,-0.8326172,87.0
1528,-3.2494502,0.24044037,-0.70170975,-1.8309082,0.20603028,-0.8326172,87.0
1529,-3.2494502,0.24044037,-0.70170975,-1.8786987,0.23045655,-1.0269654,87.0
1530,-2.2434323,-0.09750366,-0.8972931,-1.8786987,0.23045655,-1.0269654,87.0
1531,-2.2434323,-0.09750366,-0.8972931,-1.8022339,0.2262085,-1.2298096,87.0
1532,-1.1132274,-0.49375916,-1.0362549,-1.8022339,0.2262085,-1.2298096,87.0
1533,-1.1132274,-0.49375916,-1.0362549,-1.4793824,0.19328614,-1.4262818,87.0
1534,0.0147771835,-0.83992004,-0.9530487,-1.4793824,0.19328614,-1.4262818,87.0
1535,0.0147771835,-0.83992004,-0.9530487,-1.0503296,0.1731079,-1.6131958,87.0
1536,1.0637262,-1.0567474,-0.6562233,-1.0503296,0.1731079,-1.6131958,87.0
1537,1.0637262,-1.0567474,-0.6562233,-0.7763306,0.21346436,-1.7746216,87.0
1538,1.9074874,-1.1333847,-0.37963104,-0.7763306,0.21346436,-1.7746216,87.0
1539,1.9074874,-1.1333847,-0.37963104,-0.6680054,0.25700685,-1.8786987,87.0
1540,2.389076,-1.1053085,-0.2610321,-0.6680054,0.25700685,-1.8786987,87.0
1541,2.389076,-1.1053085,-0.2610321,-0.5979126,0.26550293,-1.8840088,87.0
1542,2.555316,-0.98667145,-0.24798584,-0.5979126,0.26550293,-1.8840088,87.0
1543,2.555316,-0.98667145,-0.24798584,-0.5501221,0.25913087,-1.7735596,87.0
1544,2.555316,-0.98667145,-0.24798584,-0.5341919,0.26762697,-1.5622193,87.0
1545,2.5592065,-0.82180786,-0.26696777,-0.5341919,0.26762697,-1.5622193,87.0
1546,3.2352927,-0.7347107,-0.55734634,-0.5341919,0.26762697,-1.5622193,87.0
1547,3.2352927,-0.7347107,-0.55734634,-0.55543214,0.29311523,-1.2882203,87.0
1548,3.2352927,-0.7347107,-0.55734634,-0.61915284,0.32603762,-1.0120972,87.0
1549,3.2352927,-0.7347107,-0.55734634,-0.7083618,0.36639404,-0.7742066,87.0
1550,3.0075946,-0.6985626,-0.66316223,-0.7083618,0.36639404,-0.7742066,87.0
1551,3.0075946,-0.6985626,-0.66316223,-0.8028809,0.40250245,-0.59472656,87.0
1552,2.803451,-0.69705963,-0.7766609,-0.8028809,0.40250245,-0.59472656,87.0
1553,2.803451,-0.69705963,-0.7766609,-0.901648,0.4343628,-0.45666504,87.0
1554,2.324719,-0.5965042,-0.9173279,-0.901648,0.4343628,-0.45666504,87.0
1555,2.324719,-0.5965042,-0.9173279,-1.0163453,0.452417,-0.31435546,87.0
1556,1.6323948,-0.40424347,-1.0975456,-1.0163453,0.452417,-0.31435546,87.0
1557,1.6323948,-0.40424347,-1.0975456,-1.1214844,0.41949463,-0.20284425,87.0
1558,1.3992631,-0.3743286,-1.2266579,-1.1214844,0.41949463,-0.20284425,87.0
1559,1.3992631,-0.3743286,-1.2266579,-1.0683838,0.3175415,-0.20072022,87.0
1560,1.8046646,-0.6854248,-1.1738548,-1.0683838,0.3175415,-0.20072022,87.0
1561,1.8046646,-0.6854248,-1.1738548,-0.7168579,0.16461182,-0.31966552,87.0
1562,1.9929626,-1.1161804,-0.9262428,-0.7168579,0.16461182,-0.31966552,87.0
1563,1.9929626,-1.1161804,-0.9262428,-0.04885254,-0.0063720704,-0.36533204,87.0
1564,1.3571143,-1.1776123,-0.61800766,-0.04885254,-0.0063720704,-0.36533204,87.0
1565,1.3571143,-1.1776123,-0.61800766,0.6467652,-0.14337158,-0.16142578,87.0
1566,0.35779858,-0.71793365,-0.36662292,0.6467652,-0.14337158,-0.16142578,87.0
1567,0.35779858,-0.71793365,-0.36662292,1.1374146,-0.2548828,0.18903808,87.0
1568,-0.13881016,-0.08340454,-0.11115646,1.1374146,-0.2548828,0.18903808,87.0
1569,-0.13881016,-0.08340454,-0.11115646,1.4708862,-0.3334717,0.62340087,87.0
1570,0.01669836,0.42712402,0.13618469,1.4708862,-0.3334717,0.62340087,87.0
1571,0.01669836,0.42712402,0.13618469,1.4294678,-0.36108398,1.0301514,87.0
1572,0.17850733,0.6831665,0.21679688,1.4294678,-0.36108398,1.0301514,87.0
1573,0.17850733,0.6831665,0.21679688,1.2404298,-0.38975832,1.3678712,87.0
1574,-0.08572197,0.6706543,0.16511154,1.2404298,-0.38975832,1.3678712,87.0
1575,-0.08572197,0.6706543,0.16511154,1.1214844,-0.40462646,1.6100098,87.0
