,accx,accy,accz,gyrox,gyroy,gyroz,heart rate
0,walk,walk,walk,walk,walk,walk,walk
1,0.0,0.0,0.0,-0.035046387,0.0180542,-0.06903076,0.0
2,6.159937,10.499524,134.8441,-0.035046387,0.0180542,-0.06903076,0.0
3,4.9571,8.581907,107.77278,-0.035046387,0.0180542,-0.06903076,0.0
4,4.9571,8.581907,107.77278,-0.095581055,0.04460449,0.019116212,0.0
5,3.961383,6.950938,86.05222,-0.095581055,0.04460449,0.019116212,0.0
6,3.961383,6.950938,86.05222,-0.0722168,0.06159668,0.009558106,0.0
7,3.1038966,5.496395,68.739914,-0.0722168,0.06159668,0.009558106,0.0
8,3.1038966,5.496395,68.739914,-0.081774905,0.08283692,0.028674318,0.0
9,2.4206905,4.3636446,54.91362,-0.081774905,0.08283692,0.028674318,0.0
10,2.4206905,4.3636446,54.91362,-0.029736329,0.090270996,0.033984374,0.0
11,1.9134932,3.5438213,43.769073,-0.029736329,0.090270996,0.033984374,0.0
12,1.9134932,3.5438213,43.769073,-0.021240234,0.083898924,0.015930176,0.0
13,1.5631065,2.841649,34.823914,-0.021240234,0.083898924,0.015930176,0.0
14,1.5631065,2.841649,34.823914,0.023364259,0.053100586,-0.014868164,0.0
15,1.2849822,2.1679726,27.806229,0.023364259,0.053100586,-0.014868164,0.0
16,1.2849822,2.1679726,27.806229,0.0637207,0.03186035,-0.019116212,0.0
17,1.0312328,1.6258812,22.342316,0.0637207,0.03186035,-0.019116212,0.0
18,1.0312328,1.6258812,22.342316,0.07540283,0.016992187,-0.035046387,0.0
19,1.0312328,1.6258812,22.342316,0.009558106,0.009558106,-0.016992187,0.0
20,0.8129015,1.305563,18.024063,0.009558106,0.009558106,-0.016992187,0.0
21,0.63395166,1.1067429,14.5295105,0.009558106,0.009558106,-0.016992187,0.0
22,0.63395166,1.1067429,14.5295105,-0.098767094,0.009558106,-0.0053100586,0.0
23,0.48360205,0.86643696,11.664337,-0.098767094,0.009558106,-0.0053100586,0.0
24,0.48360205,0.86643696,11.664337,-0.1178833,0.007434082,0.0021240234,0.0
25,0.33828545,0.6279392,9.33548,-0.1178833,0.007434082,0.0021240234,0.0
26,0.33828545,0.6279392,9.33548,-0.090270996,0.0063720704,0.02442627,0.0
27,0.21529388,0.47161388,7.451782,-0.090270996,0.0063720704,0.02442627,0.0
28,0.21529388,0.47161388,7.451782,-0.06159668,0.008496094,0.0031860352,0.0
29,0.15560913,0.38346767,5.958069,-0.06159668,0.008496094,0.0031860352,0.0
30,0.15560913,0.38346767,5.958069,-0.06478272,0.012744141,-0.0063720704,0.0
31,0.15073252,0.30250168,4.7824554,-0.06478272,0.012744141,-0.0063720704,0.0
32,0.15073252,0.30250168,4.7824554,-0.04991455,0.0053100586,-0.013806152,0.0
33,0.15505886,0.22789001,3.8395538,-0.04991455,0.0053100586,-0.013806152,0.0
34,0.15505886,0.22789001,3.8395538,-0.087084964,-0.004248047,-0.019116212,0.0
35,0.13085842,0.21780968,3.0825043,-0.087084964,-0.004248047,-0.019116212,0.0
36,0.13085842,0.21780968,3.0825043,-0.11044922,0.0031860352,0.008496094,0.0
37,0.10486984,0.22582245,2.4772186,-0.11044922,0.0031860352,0.008496094,0.0
38,0.10486984,0.22582245,2.4772186,-0.1539917,-0.0021240234,0.023364259,0.0
39,0.14997244,0.18948364,1.9832001,-0.1539917,-0.0021240234,0.023364259,0.0
40,0.14997244,0.18948364,1.9832001,-0.10620117,-0.020178223,-0.06903076,0.0
41,0.17467785,0.07595253,1.5764923,-0.10620117,-0.020178223,-0.06903076,0.0
42,0.17467785,0.07595253,1.5764923,-0.13699952,0.027612304,0.0021240234,0.0
43,0.1434164,-0.018314362,1.2593231,-0.13699952,0.027612304,0.0021240234,0.0
44,0.1434164,-0.018314362,1.2593231,-0.06159668,0.0541626,-0.023364259,0.0
45,0.1434164,-0.018314362,1.2593231,0.05628662,0.07540283,-0.04885254,0.0
46,0.06827307,-0.035550117,1.0013123,0.05628662,0.07540283,-0.04885254,0.0
47,-0.0074300766,0.054335594,0.774765,0.05628662,0.07540283,-0.04885254,0.0
48,-0.0074300766,0.054335594,0.774765,0.14230958,0.09451904,-0.06159668,0.0
49,-0.046740055,0.16619778,0.63082886,0.14230958,0.09451904,-0.06159668,0.0
50,-0.046740055,0.16619778,0.63082886,0.14124756,0.107263185,-0.058410645,0.0
51,-0.062135696,0.1835804,0.595871,0.14124756,0.107263185,-0.058410645,0.0
52,-0.062135696,0.1835804,0.595871,0.14018555,0.11151123,-0.083898924,0.0
53,-0.07209635,0.107533455,0.544281,0.14018555,0.11151123,-0.083898924,0.0
54,-0.07209635,0.107533455,0.544281,0.115759276,0.10513916,-0.10301514,0.0
55,-0.057823658,0.03354931,0.39163208,0.115759276,0.10513916,-0.10301514,0.0
56,-0.057823658,0.03354931,0.39163208,0.078588866,0.11151123,-0.09133301,0.0
57,-0.011004925,0.053279877,0.21447754,0.078588866,0.11151123,-0.09133301,0.0
58,-0.011004925,0.053279877,0.21447754,-0.007434082,0.11363526,-0.058410645,0.0
59,0.020468712,0.11618328,0.10748291,-0.007434082,0.11363526,-0.058410645,0.0
60,0.020468712,0.11618328,0.10748291,-0.032922365,0.10513916,-0.029736329,0.0
61,-0.003583908,0.10472584,0.08609009,-0.032922365,0.10513916,-0.029736329,0.0
62,-0.003583908,0.10472584,0.08609009,-0.02442627,0.10513916,-0.032922365,0.0
63,-0.003583908,0.10472584,0.08609009,0.0053100586,0.11469727,-0.06796875,0.0
64,-0.048936367,0.053995132,0.09111023,0.0053100586,0.11469727,-0.06796875,0.0
65,-0.060438156,0.089411736,0.06556702,0.0053100586,0.11469727,-0.06796875,0.0
66,-0.060438156,0.089411736,0.06556702,0.010620117,0.1083252,-0.07646485,0.0
67,-0.030711174,0.17915916,0.04147339,0.010620117,0.1083252,-0.07646485,0.0
68,-0.030711174,0.17915916,0.04147339,-0.0361084,0.10407715,-0.06903076,0.0
69,-0.030711174,0.17915916,0.04147339,-0.0361084,0.10407715,-0.06903076,76.0
70,0.011490345,0.23624706,0.051452637,-0.0361084,0.10407715,-0.06903076,76.0
71,0.011490345,0.23624706,0.051452637,-0.10089111,0.09664307,-0.052038576,76.0
72,0.011490345,0.23624706,0.051452637,-0.124255374,0.1083252,-0.050976563,76.0
73,0.03160429,0.21796513,0.044448853,-0.124255374,0.1083252,-0.050976563,76.0
74,0.021230698,0.12603283,-0.0056610107,-0.124255374,0.1083252,-0.050976563,76.0
75,0.021230698,0.12603283,-0.0056610107,-0.08071289,0.1359375,-0.14868164,76.0
76,0.047624588,0.07757187,-0.06736755,-0.08071289,0.1359375,-0.14868164,76.0
77,0.047624588,0.07757187,-0.06736755,-0.06796875,0.11363526,-0.15505372,76.0
78,0.119142056,0.14231873,-0.10505676,-0.06796875,0.11363526,-0.15505372,76.0
79,0.119142056,0.14231873,-0.10505676,-0.06903076,0.08071289,-0.12956543,76.0
80,0.19776726,0.23477745,-0.1040802,-0.06903076,0.08071289,-0.12956543,76.0
81,0.19776726,0.23477745,-0.1040802,-0.14124756,0.08920898,-0.22089843,76.0
82,0.30854368,0.29348564,-0.1222229,-0.14124756,0.08920898,-0.22089843,76.0
83,0.30854368,0.29348564,-0.1222229,-0.32497558,0.12531738,-0.33240968,76.0
84,0.4157195,0.35899544,-0.2916565,-0.32497558,0.12531738,-0.33240968,76.0
85,0.4157195,0.35899544,-0.2916565,-0.53100586,0.13912354,-0.45029297,76.0
86,0.50385284,0.4287243,-0.58514404,-0.53100586,0.13912354,-0.45029297,76.0
87,0.50385284,0.4287243,-0.58514404,-0.8230591,0.15717773,-0.634021,76.0
88,0.66935444,0.5312481,-0.909256,-0.8230591,0.15717773,-0.634021,76.0
89,0.66935444,0.5312481,-0.909256,-1.0630738,0.1263794,-0.83474123,76.0
90,1.0794048,0.44063568,-1.447815,-1.0630738,0.1263794,-0.83474123,76.0
91,1.0794048,0.44063568,-1.447815,-1.6185058,0.004248047,-1.1321045,76.0
92,1.0629625,0.15632915,-1.5028076,-1.6185058,0.004248047,-1.1321045,76.0
93,1.0629625,0.15632915,-1.5028076,-1.8266602,-0.053100586,-1.2531738,76.0
94,0.9700966,-0.28788853,-1.6580048,-1.8266602,-0.053100586,-1.2531738,76.0
95,0.9700966,-0.28788853,-1.6580048,-2.0295045,-0.25700685,-1.4984986,76.0
96,0.75764465,-0.49707127,-1.5865936,-2.0295045,-0.25700685,-1.4984986,76.0
97,0.75764465,-0.49707127,-1.5865936,-2.1282716,-0.5065796,-1.629126,76.0
98,0.6447878,-0.5455694,-1.4050446,-2.1282716,-0.5065796,-1.629126,76.0
99,0.6447878,-0.5455694,-1.4050446,-2.3640382,-0.724292,-1.8255981,76.0
100,0.62001705,-0.617157,-1.350769,-2.3640382,-0.724292,-1.8255981,76.0
101,0.62001705,-0.617157,-1.350769,-2.8440673,-0.8251831,-2.0518067,76.0
102,0.9608822,-0.5896969,-1.3712769,-2.8440673,-0.8251831,-2.0518067,76.0
103,0.9608822,-0.5896969,-1.3712769,-4.0250244,-0.7720825,-2.52334,76.0
104,1.3506517,-0.94624424,-1.4267578,-4.0250244,-0.7720825,-2.52334,76.0
105,1.3506517,-0.94624424,-1.4267578,-3.1509888,-1.0290893,-1.9764038,76.0
106,1.5094395,-1.7774668,-1.6453247,-3.1509888,-1.0290893,-1.9764038,76.0
107,1.5094395,-1.7774668,-1.6453247,-2.2684572,-1.0227174,-2.3757203,76.0
108,1.8733597,-2.4094,-1.8642426,-2.2684572,-1.0227174,-2.3757203,76.0
109,1.8733597,-2.4094,-1.8642426,-2.3204956,-0.9143921,-2.6401613,76.0
110,2.2982483,-2.334221,-1.887558,-2.3204956,-0.9143921,-2.6401613,76.0
111,2.2982483,-2.334221,-1.887558,-2.2440307,-0.8666016,-2.9630127,76.0
112,2.3678102,-1.5775089,-1.8276062,-2.2440307,-0.8666016,-2.9630127,76.0
113,2.3678102,-1.5775089,-1.8276062,-2.1526978,-0.90695804,-2.8536255,76.0
114,2.267747,-0.5313921,-1.841156,-2.1526978,-0.90695804,-2.8536255,76.0
115,2.267747,-0.5313921,-1.841156,-2.4659913,-0.9260742,-2.9821289,76.0
116,2.215931,0.25756454,-1.928833,-2.4659913,-0.9260742,-2.9821289,76.0
117,2.215931,0.25756454,-1.928833,-2.986377,-0.93563235,-3.0458496,76.0
118,2.295926,0.6906223,-2.0421295,-2.986377,-0.93563235,-3.0458496,76.0
119,2.295926,0.6906223,-2.0421295,-3.522693,-0.8506714,-3.0978882,76.0
120,2.4129858,0.6309767,-2.172989,-3.522693,-0.8506714,-3.0978882,76.0
121,2.4129858,0.6309767,-2.172989,-4.2119384,-0.68712157,-3.352771,76.0
122,2.3926926,-0.061917305,-2.2837524,-4.2119384,-0.68712157,-3.352771,76.0
123,2.3926926,-0.061917305,-2.2837524,-3.7542114,-0.5936646,-3.3814454,76.0
124,2.276764,-0.7039652,-2.306961,-3.7542114,-0.5936646,-3.3814454,76.0
125,2.276764,-0.7039652,-2.306961,-2.7845948,-0.57454836,-3.358081,76.0
126,2.231861,-0.5077038,-2.262558,-2.7845948,-0.57454836,-3.358081,76.0
127,2.231861,-0.5077038,-2.262558,-2.1888063,-0.5671143,-3.3240967,76.0
128,2.2523098,0.34309196,-2.100769,-2.1888063,-0.5671143,-3.3240967,76.0
129,2.2523098,0.34309196,-2.100769,-2.090039,-0.56180423,-3.1987793,76.0
130,2.2980766,1.2880116,-1.6321106,-2.090039,-0.56180423,-3.1987793,76.0
131,2.2980766,1.2880116,-1.6321106,-2.1134033,-0.45454103,-3.1053224,76.0
132,2.327633,2.0288353,-1.1069031,-2.1134033,-0.45454103,-3.1053224,76.0
133,2.327633,2.0288353,-1.1069031,-2.1144655,-0.34940186,-2.8727417,76.0
134,2.2337132,2.3346653,-1.020462,-2.1144655,-0.34940186,-2.8727417,76.0
135,2.2337132,2.3346653,-1.020462,-2.275891,-0.24213867,-2.807959,76.0
136,1.9347858,2.2579918,-1.2912598,-2.275891,-0.24213867,-2.807959,76.0
137,1.9347858,2.2579918,-1.2912598,-2.1834962,-0.1985962,-2.6741455,76.0
138,1.6149673,2.205637,-1.4745941,-2.1834962,-0.1985962,-2.6741455,76.0
139,1.6149673,2.205637,-1.4745941,-2.1325195,-0.21027832,-2.5732543,76.0
140,1.4402161,2.259737,-1.3354034,-2.1325195,-0.21027832,-2.5732543,76.0
141,1.4402161,2.259737,-1.3354034,-2.4702394,-0.17947999,-2.4808595,76.0
142,1.3812752,2.1611586,-1.0205231,-2.4702394,-0.17947999,-2.4808595,76.0
143,1.3812752,2.1611586,-1.0205231,-2.538208,-0.16248779,-2.4543092,76.0
144,1.4234886,1.7955399,-0.7350006,-2.538208,-0.16248779,-2.4543092,76.0
145,1.4234886,1.7955399,-0.7350006,-2.3141236,-0.13168946,-2.3353639,76.0
146,1.5785484,1.3256893,-0.5311127,-2.3141236,-0.13168946,-2.3353639,76.0
147,1.5785484,1.3256893,-0.5311127,-1.7852417,-0.124255374,-2.2153566,76.0
148,1.7326641,0.9634571,-0.24873352,-1.7852417,-0.124255374,-2.2153566,76.0
149,1.7326641,0.9634571,-0.24873352,-1.0970582,-0.16567384,-2.0592408,76.0
150,1.5945778,0.9394665,0.12846375,-1.0970582,-0.16567384,-2.0592408,76.0
151,1.5945778,0.9394665,0.12846375,-0.4056885,-0.17523193,-1.7894897,76.0
152,0.71544456,1.3385849,0.34077454,-0.4056885,-0.17523193,-1.7894897,76.0
153,0.71544456,1.3385849,0.34077454,-0.045666505,-0.1996582,-1.4432739,76.0
154,-0.9807339,1.8788643,0.10197449,-0.045666505,-0.1996582,-1.4432739,76.0
155,-0.9807339,1.8788643,0.10197449,0.2347046,-0.21877442,-0.96643066,76.0
156,-2.5813522,2.3148956,-0.503067,0.2347046,-0.21877442,-0.96643066,76.0
157,-2.5813522,2.3148956,-0.503067,0.15505372,-0.17629395,-0.5256958,76.0
158,-3.104988,2.4548454,-0.95961,0.15505372,-0.17629395,-0.5256958,76.0
159,-3.104988,2.4548454,-0.95961,-0.2527588,-0.10089111,-0.20921631,76.0
160,-2.4659119,2.1563816,-0.9184723,-0.2527588,-0.10089111,-0.20921631,76.0
161,-2.4659119,2.1563816,-0.9184723,-0.6000366,-0.012744141,0.022302246,76.0
162,-1.2484245,1.6544266,-0.5807495,-0.6000366,-0.012744141,0.022302246,76.0
163,-1.2484245,1.6544266,-0.5807495,-1.0120972,0.12319336,0.08920898,76.0
164,-0.34578514,1.140974,-0.2577057,-1.0120972,0.12319336,0.08920898,76.0
165,-0.34578514,1.140974,-0.2577057,-1.4220337,0.23895264,0.118945315,76.0
166,-0.18196297,0.7573719,-0.01461792,-1.4220337,0.23895264,0.118945315,76.0
167,-0.18196297,0.7573719,-0.01461792,-1.629126,0.31223145,0.12213135,76.0
168,-0.5058727,0.53126335,0.12295532,-1.629126,0.31223145,0.12213135,76.0
169,-0.5058727,0.53126335,0.12295532,-1.8786987,0.33878174,0.24213867,76.0
170,-0.8691387,0.288805,0.19662476,-1.8786987,0.33878174,0.24213867,76.0
171,-0.8691387,0.288805,0.19662476,-1.6737305,0.28461915,0.3419678,76.0
172,-0.9612522,0.040138245,0.29371643,-1.6737305,0.28461915,0.3419678,76.0
173,-0.9612522,0.040138245,0.29371643,-1.3307008,0.23789063,0.45454103,76.0
174,-0.7886925,-0.12786293,0.3786316,-1.3307008,0.23789063,0.45454103,76.0
175,-0.7886925,-0.12786293,0.3786316,-0.8623535,0.1985962,0.5522461,76.0
176,-0.7886925,-0.12786293,0.3786316,-0.8623535,0.1985962,0.5522461,76.0
177,-0.4261074,-0.1654377,0.3947754,-0.8623535,0.1985962,0.5522461,76.0
178,-0.4261074,-0.1654377,0.3947754,-0.4959595,0.18585205,0.6287109,76.0
179,-0.11531258,-0.06162262,0.36790466,-0.4959595,0.18585205,0.6287109,76.0
180,-0.11531258,-0.06162262,0.36790466,-0.26019287,0.16567384,0.63933104,76.0
181,0.020824432,0.07084274,0.31925964,-0.26019287,0.16567384,0.63933104,76.0
182,0.020824432,0.07084274,0.31925964,-0.08496094,0.14124756,0.62340087,76.0
183,0.06260681,0.114767075,0.2698822,-0.08496094,0.14124756,0.62340087,76.0
184,0.06260681,0.114767075,0.2698822,0.06159668,0.12319336,0.60322267,76.0
185,0.08415604,0.12338066,0.31425476,0.06159668,0.12319336,0.60322267,76.0
186,0.08415604,0.12338066,0.31425476,0.22302246,0.18903808,0.48746338,76.0
187,0.3010044,0.19235611,0.38076782,0.22302246,0.18903808,0.48746338,76.0
188,0.3010044,0.19235611,0.38076782,0.15505372,0.19647217,0.53737795,76.0
189,0.45838165,0.2708168,0.35112,0.15505372,0.19647217,0.53737795,76.0
190,0.45838165,0.2708168,0.35112,0.070092775,0.23682861,0.42055663,76.0
191,0.25944328,0.26637268,0.30194092,0.070092775,0.23682861,0.42055663,76.0
192,0.25944328,0.26637268,0.30194092,0.035046387,0.24851075,0.39613038,76.0
193,-0.098609924,0.25850868,0.31982422,0.035046387,0.24851075,0.39613038,76.0
194,-0.098609924,0.25850868,0.31982422,0.0053100586,0.2516968,0.37595215,76.0
195,-0.25818443,0.22621727,0.38475037,0.0053100586,0.2516968,0.37595215,76.0
196,-0.25818443,0.22621727,0.38475037,0.04141846,0.27293703,0.31860352,76.0
197,-0.0028247833,0.19562149,0.39949036,0.04141846,0.27293703,0.31860352,76.0
198,-0.0028247833,0.19562149,0.39949036,0.027612304,0.32709962,0.24532472,76.0
199,0.5170269,0.19369125,0.32987976,0.027612304,0.32709962,0.24532472,76.0
200,0.5170269,0.19369125,0.32987976,-0.15611573,0.3727661,0.04141846,76.0
201,0.9592266,0.21077538,0.29856873,-0.15611573,0.3727661,0.04141846,76.0
202,0.9592266,0.21077538,0.29856873,-0.32391357,0.4056885,-0.10089111,76.0
203,1.0504265,0.27380753,0.37678528,-0.32391357,0.4056885,-0.10089111,76.0
204,1.0504265,0.27380753,0.37678528,-0.54906005,0.40144044,-0.24320069,76.0
205,0.8329201,0.2968521,0.4862213,-0.54906005,0.40144044,-0.24320069,76.0
206,0.8329201,0.2968521,0.4862213,-0.74871826,0.3982544,-0.37595215,76.0
207,0.7161045,0.21609497,0.48286438,-0.74871826,0.3982544,-0.37595215,76.0
208,0.7161045,0.21609497,0.48286438,-0.9228882,0.36533204,-0.542688,76.0
209,0.9552326,0.09326172,0.35334778,-0.9228882,0.36533204,-0.542688,76.0
210,0.9552326,0.09326172,0.35334778,-1.0375855,0.31329346,-0.73703617,76.0
211,1.0899315,0.040369034,0.26036072,-1.0375855,0.31329346,-0.73703617,76.0
212,1.0899315,0.040369034,0.26036072,-1.2000732,0.23364258,-0.89102787,76.0
213,0.7013283,0.099788666,0.2885437,-1.2000732,0.23364258,-0.89102787,76.0
214,0.7013283,0.099788666,0.2885437,-1.3498169,0.13062744,-0.95793456,76.0
215,0.19523048,0.27907372,0.39068604,-1.3498169,0.13062744,-0.95793456,76.0
216,0.19523048,0.27907372,0.39068604,-1.3115845,0.012744141,-1.0683838,76.0
217,-0.22709084,0.45952606,0.5475006,-1.3115845,0.012744141,-1.0683838,76.0
218,-0.22709084,0.45952606,0.5475006,-1.2744141,-0.05522461,-1.0779419,76.0
219,-0.79673576,0.4583187,0.6463165,-1.2744141,-0.05522461,-1.0779419,76.0
220,-0.79673576,0.4583187,0.6463165,-1.1321045,-0.07965088,-1.0556396,76.0
221,-1.3329811,0.4176426,0.54078674,-1.1321045,-0.07965088,-1.0556396,76.0
222,-1.3329811,0.4176426,0.54078674,-0.95368654,-0.050976563,-1.0057251,76.0
223,-1.4164581,0.5468826,0.33721924,-0.95368654,-0.050976563,-1.0057251,76.0
224,-1.4164581,0.5468826,0.33721924,-0.84323734,-0.06584473,-0.89846194,76.0
225,-1.0952034,0.71808434,0.28112793,-0.84323734,-0.06584473,-0.89846194,76.0
226,-1.0952034,0.71808434,0.28112793,-0.8952759,-0.09133301,-0.73597413,76.0
227,-0.6445465,0.70321465,0.38168335,-0.8952759,-0.09133301,-0.73597413,76.0
228,-0.6445465,0.70321465,0.38168335,-1.0089111,-0.10301514,-0.6637573,76.0
229,-0.328907,0.45108604,0.52279663,-1.0089111,-0.10301514,-0.6637573,76.0
230,-0.328907,0.45108604,0.52279663,-1.0503296,-0.08602295,-0.57454836,76.0
231,-0.37430763,0.09502411,0.6528015,-1.0503296,-0.08602295,-0.57454836,76.0
232,-0.37430763,0.09502411,0.6528015,-0.95793456,-0.08496094,-0.47471926,76.0
233,-0.674654,-0.17515373,0.7135773,-0.95793456,-0.08496094,-0.47471926,76.0
234,-0.674654,-0.17515373,0.7135773,-0.8421753,-0.07646485,-0.362146,76.0
235,-0.96136665,-0.3092022,0.6568451,-0.8421753,-0.07646485,-0.362146,76.0
236,-0.96136665,-0.3092022,0.6568451,-0.6287109,-0.08283692,-0.2538208,76.0
237,-1.1234264,-0.3828125,0.54034424,-0.6287109,-0.08283692,-0.2538208,76.0
238,-1.1234264,-0.3828125,0.54034424,-0.4428589,-0.090270996,-0.18479005,76.0
239,-1.1706524,-0.44412994,0.47877502,-0.4428589,-0.090270996,-0.18479005,76.0
240,-1.1706524,-0.44412994,0.47877502,-0.23045655,-0.10513916,-0.19434814,76.0
241,-1.0703354,-0.41298294,0.50227356,-0.23045655,-0.10513916,-0.19434814,76.0
242,-1.0703354,-0.41298294,0.50227356,-0.12213135,-0.058410645,-0.23258057,76.0
243,-0.82289505,-0.25387192,0.44747925,-0.12213135,-0.058410645,-0.23258057,76.0
244,-0.82289505,-0.25387192,0.44747925,-0.3154175,0.0,-0.27506104,76.0
245,-0.5896511,-0.18920517,0.22955322,-0.3154175,0.0,-0.27506104,76.0
246,-0.5896511,-0.18920517,0.22955322,-0.30373535,-0.029736329,-0.3164795,76.0
247,-0.46904755,-0.2968712,0.06288147,-0.30373535,-0.029736329,-0.3164795,76.0
248,-0.46904755,-0.2968712,0.06288147,-0.18160401,-0.07327881,-0.3090454,76.0
249,-0.31121254,-0.37563324,0.11727905,-0.18160401,-0.07327881,-0.3090454,76.0
250,-0.31121254,-0.37563324,0.11727905,0.029736329,-0.09770508,-0.28355715,76.0
251,-0.11215401,-0.27302742,0.2096405,0.029736329,-0.09770508,-0.28355715,76.0
252,-0.11215401,-0.27302742,0.2096405,0.19116211,-0.10513916,-0.23258057,76.0
253,-0.06612778,-0.021352768,0.089141846,0.19116211,-0.10513916,-0.23258057,76.0
254,-0.06612778,-0.021352768,0.089141846,0.26550293,-0.13912354,-0.19222413,76.0
255,-0.12579155,0.21656036,-0.083724976,0.26550293,-0.13912354,-0.19222413,76.0
256,-0.12579155,0.21656036,-0.083724976,0.26019287,-0.15186767,-0.18585205,76.0
257,-0.085142136,0.33635902,-0.064697266,0.26019287,-0.15186767,-0.18585205,76.0
258,-0.085142136,0.33635902,-0.064697266,0.18797608,-0.15505372,-0.11469727,76.0
259,0.100587845,0.29403877,0.031341553,0.18797608,-0.15505372,-0.11469727,76.0
260,0.100587845,0.29403877,0.031341553,0.11151123,-0.14124756,-0.06159668,76.0
261,0.4843521,0.041872025,-0.013412476,0.11151123,-0.14124756,-0.06159668,76.0
262,0.4843521,0.041872025,-0.013412476,0.21027832,-0.13275146,-0.07965088,76.0
263,1.1288757,-0.21712494,-0.13322449,0.21027832,-0.13275146,-0.07965088,76.0
264,1.1288757,-0.21712494,-0.13322449,0.33878174,-0.12850343,-0.014868164,76.0
265,1.8494987,-0.2696724,-0.1851654,0.33878174,-0.12850343,-0.014868164,76.0
266,1.8494987,-0.2696724,-0.1851654,0.40993652,-0.09770508,0.010620117,76.0
267,2.1937466,-0.06790924,-0.1156311,0.40993652,-0.09770508,0.010620117,76.0
268,2.1937466,-0.06790924,-0.1156311,0.17416993,-0.06265869,0.0063720704,76.0
269,1.8866997,0.18955612,0.09037781,0.17416993,-0.06265869,0.0063720704,76.0
270,1.8866997,0.18955612,0.09037781,-0.26444092,-0.03079834,0.13806152,76.0
271,1.3080788,0.13774109,0.34095764,-0.26444092,-0.03079834,0.13806152,76.0
272,1.3080788,0.13774109,0.34095764,-0.31860352,-0.040356446,0.21346436,76.0
273,0.9112835,-0.24718094,0.5410614,-0.31860352,-0.040356446,0.21346436,76.0
274,0.9112835,-0.24718094,0.5410614,-0.21558838,-0.004248047,0.2262085,76.0
275,0.87553596,-0.6117096,0.5627594,-0.21558838,-0.004248047,0.2262085,76.0
276,0.87553596,-0.6117096,0.5627594,0.059472658,0.08071289,0.22089843,76.0
277,0.8801899,-0.59288406,0.31602478,0.059472658,0.08071289,0.22089843,76.0
278,0.8801899,-0.59288406,0.31602478,0.58198243,0.12531738,0.32391357,76.0
279,0.8801899,-0.59288406,0.31602478,0.58198243,0.12531738,0.32391357,76.0
280,0.52264595,-0.17531967,-0.047180176,0.58198243,0.12531738,0.32391357,76.0
281,0.52264595,-0.17531967,-0.047180176,0.8442993,0.21558838,0.42161867,76.0
282,-0.08314133,0.45329857,-0.32460022,0.8442993,0.21558838,0.42161867,76.0
283,-0.08314133,0.45329857,-0.32460022,0.9398804,0.29630128,0.6085327,76.0
284,-0.6765709,0.9624443,-0.5181732,0.9398804,0.29630128,0.6085327,76.0
285,-0.6765709,0.9624443,-0.5181732,0.7986328,0.37701416,0.8400513,76.0
286,-0.898716,0.90226746,-0.6687012,0.7986328,0.37701416,0.8400513,76.0
287,-0.898716,0.90226746,-0.6687012,0.41843262,0.47896728,0.93350834,76.0
288,-0.5875511,0.36535645,-0.80459595,0.41843262,0.47896728,0.93350834,76.0
289,-0.5875511,0.36535645,-0.80459595,0.5586182,0.47471926,1.0482056,76.0
290,0.0062770844,-0.15736008,-0.8859558,0.5586182,0.47471926,1.0482056,76.0
291,0.0062770844,-0.15736008,-0.8859558,0.7423462,0.41949463,1.0768799,76.0
292,0.41448212,-0.47541046,-0.8915863,0.7423462,0.41949463,1.0768799,76.0
293,0.41448212,-0.47541046,-0.8915863,0.8846558,0.3706421,1.0503296,76.0
294,0.39032555,-0.5538883,-0.83680725,0.8846558,0.3706421,1.0503296,76.0
295,0.39032555,-0.5538883,-0.83680725,1.0184692,0.3058594,0.9866089,76.0
296,0.0117836,-0.41939163,-0.74417114,1.0184692,0.3058594,0.9866089,76.0
297,0.0117836,-0.41939163,-0.74417114,1.0513916,0.26550293,0.92501223,76.0
298,-0.48631287,-0.2379551,-0.65115356,1.0513916,0.26550293,0.92501223,76.0
299,-0.48631287,-0.2379551,-0.65115356,1.0492676,0.22727051,0.90802,76.0
300,-0.8872814,-0.10092354,-0.5845642,1.0492676,0.22727051,0.90802,76.0
301,-0.8872814,-0.10092354,-0.5845642,1.0312134,0.20284425,0.92926025,76.0
302,-1.0906353,-0.01637268,-0.5619354,1.0312134,0.20284425,0.92926025,76.0
303,-1.0906353,-0.01637268,-0.5619354,0.9568726,0.20178223,0.96643066,76.0
304,-1.0760117,0.013500214,-0.5743561,0.9568726,0.20178223,0.96643066,76.0
305,-1.0760117,0.013500214,-0.5743561,0.89102787,0.20603028,1.0036011,76.0
306,-0.86639977,-0.01778984,-0.55859375,0.89102787,0.20603028,1.0036011,76.0
307,-0.86639977,-0.01778984,-0.55859375,0.77739257,0.21983643,1.0036011,76.0
308,-0.54779625,-0.067186356,-0.4725647,0.77739257,0.21983643,1.0036011,76.0
309,-0.54779625,-0.067186356,-0.4725647,0.63826907,0.2347046,0.99935305,76.0
310,-0.25269127,-0.12388992,-0.34609985,0.63826907,0.2347046,0.99935305,76.0
311,-0.25269127,-0.12388992,-0.34609985,0.4630371,0.24957275,0.9451904,76.0
312,-0.07980156,-0.16833878,-0.20213318,0.4630371,0.24957275,0.9451904,76.0
313,-0.07980156,-0.16833878,-0.20213318,0.30373535,0.24851075,0.89421386,76.0
314,-0.05013275,-0.20368958,-0.08302307,0.30373535,0.24851075,0.89421386,76.0
315,-0.05013275,-0.20368958,-0.08302307,0.11682129,0.23789063,0.83049315,76.0
316,-0.07650757,-0.2557869,0.018157959,0.11682129,0.23789063,0.83049315,76.0
317,-0.07650757,-0.2557869,0.018157959,-0.014868164,0.20709229,0.7688965,76.0
318,-0.037817,-0.33703804,0.14256287,-0.014868164,0.20709229,0.7688965,76.0
319,-0.037817,-0.33703804,0.14256287,-0.08814698,0.17735596,0.6680054,76.0
320,0.086444855,-0.44781685,0.27218628,-0.08814698,0.17735596,0.6680054,76.0
321,0.086444855,-0.44781685,0.27218628,-0.08814698,0.13168946,0.52675784,76.0
322,0.25079536,-0.54306793,0.38017273,-0.08814698,0.13168946,0.52675784,76.0
323,0.25079536,-0.54306793,0.38017273,-0.05628662,0.09239502,0.35683593,76.0
324,0.48116684,-0.5199642,0.45602417,-0.05628662,0.09239502,0.35683593,76.0
325,0.48116684,-0.5199642,0.45602417,-0.05628662,0.040356446,0.1539917,76.0
326,0.77900124,-0.390934,0.49710083,-0.05628662,0.040356446,0.1539917,76.0
327,0.77900124,-0.390934,0.49710083,-0.22514649,-0.0053100586,-0.07434082,76.0
328,0.9879341,-0.26844788,0.54307556,-0.22514649,-0.0053100586,-0.07434082,76.0
329,0.9879341,-0.26844788,0.54307556,-0.3812622,-0.07646485,-0.33134767,76.0
330,0.88861465,-0.20882607,0.6458435,-0.3812622,-0.07646485,-0.33134767,76.0
331,0.88861465,-0.20882607,0.6458435,-0.4970215,-0.14018555,-0.58623046,76.0
332,0.58758926,-0.16394806,0.72499084,-0.4970215,-0.14018555,-0.58623046,76.0
333,0.58758926,-0.16394806,0.72499084,-0.57454836,-0.16992188,-0.79119873,76.0
334,0.56643295,-0.11823082,0.7010193,-0.57454836,-0.16992188,-0.79119873,76.0
335,0.56643295,-0.11823082,0.7010193,-0.5787964,-0.16885987,-1.0492676,76.0
336,0.9306984,-0.07277107,0.6335602,-0.5787964,-0.16885987,-1.0492676,76.0
337,0.9306984,-0.07277107,0.6335602,-0.63826907,-0.17841797,-1.4007934,76.0
338,1.1952305,-0.024341583,0.64245605,-0.63826907,-0.17841797,-1.4007934,76.0
339,1.1952305,-0.024341583,0.64245605,-0.7742066,-0.19541016,-1.3158325,76.0
340,1.0783157,0.06029892,0.6860504,-0.7742066,-0.19541016,-1.3158325,76.0
341,1.0783157,0.06029892,0.6860504,-0.77526855,-0.22196046,-1.5770874,76.0
342,0.63163376,0.14539528,0.6252899,-0.77526855,-0.22196046,-1.5770874,76.0
343,0.63163376,0.14539528,0.6252899,-0.6775635,-0.26975098,-1.6195679,76.0
344,-0.052761078,0.27443314,0.36538696,-0.6775635,-0.26975098,-1.6195679,76.0
345,-0.052761078,0.27443314,0.36538696,-0.46622315,-0.27293703,-1.5484132,76.0
346,-0.6086521,0.5205116,-0.051239014,-0.46622315,-0.27293703,-1.5484132,76.0
347,-0.6086521,0.5205116,-0.051239014,-0.37701416,-0.21134034,-1.4369019,76.0
348,-0.71684074,0.7492218,-0.38249207,-0.37701416,-0.21134034,-1.4369019,76.0
349,-0.71684074,0.7492218,-0.38249207,-0.41418457,-0.18054199,-1.3168945,76.0
350,-0.41601372,0.7965088,-0.3849945,-0.41418457,-0.18054199,-1.3168945,76.0
351,-0.41601372,0.7965088,-0.3849945,-0.54906005,-0.13487549,-1.2255615,76.0
352,-0.06571007,0.7533684,-0.13128662,-0.54906005,-0.13487549,-1.2255615,76.0
353,-0.06571007,0.7533684,-0.13128662,-0.68074954,-0.11044922,-1.1692749,76.0
354,-0.05850029,0.69828796,0.057281494,-0.68074954,-0.11044922,-1.1692749,76.0
355,-0.05850029,0.69828796,0.057281494,-0.817749,-0.087084964,-1.085376,76.0
356,-0.49373627,0.6498413,0.036590576,-0.817749,-0.087084964,-1.085376,76.0
357,-0.49373627,0.6498413,0.036590576,-0.87191164,-0.09451904,-0.97386473,76.0
358,-1.1487255,0.6330452,-0.07821655,-0.87191164,-0.09451904,-0.97386473,76.0
359,-1.1487255,0.6330452,-0.07821655,-0.8092529,-0.13275146,-0.8623535,76.0
360,-1.673521,0.6180954,-0.11714172,-0.8092529,-0.13275146,-0.8623535,76.0
361,-1.673521,0.6180954,-0.11714172,-0.7338501,-0.15186767,-0.75615233,76.0
362,-1.875267,0.58086395,-0.054595947,-0.7338501,-0.15186767,-0.75615233,76.0
363,-1.875267,0.58086395,-0.054595947,-0.70942384,-0.16567384,-0.69349366,76.0
364,-1.8054752,0.49962807,6.4086914E-4,-0.70942384,-0.16567384,-0.69349366,76.0
365,-1.8054752,0.49962807,6.4086914E-4,-0.60322267,-0.17947999,-0.6988037,76.0
366,-1.5940018,0.40196037,0.010650635,-0.60322267,-0.17947999,-0.6988037,76.0
367,-1.5940018,0.40196037,0.010650635,-0.5033936,-0.19753419,-0.72641605,76.0
368,-1.3675117,0.28071022,0.019439697,-0.5033936,-0.19753419,-0.72641605,76.0
369,-1.3675117,0.28071022,0.019439697,-0.3525879,-0.24320069,-0.75615233,76.0
370,-1.1289825,0.1575756,0.06448364,-0.3525879,-0.24320069,-0.75615233,76.0
371,-1.1289825,0.1575756,0.06448364,-0.08496094,-0.28780517,-0.7784546,76.0
372,-0.83330154,0.13289642,0.15080261,-0.08496094,-0.28780517,-0.7784546,76.0
373,-0.83330154,0.13289642,0.15080261,0.15186767,-0.31966552,-0.76464844,76.0
374,-0.5196686,0.20723343,0.20768738,0.15186767,-0.31966552,-0.76464844,76.0
375,-0.5196686,0.20723343,0.20768738,0.35683593,-0.35046387,-0.71579593,76.0
376,-0.26374435,0.35004044,0.26123047,0.35683593,-0.35046387,-0.71579593,76.0
377,-0.26374435,0.35004044,0.26123047,0.41737062,-0.35046387,-0.6414551,76.0
378,-0.15589333,0.4601345,0.3258667,0.41737062,-0.35046387,-0.6414551,76.0
379,-0.15589333,0.4601345,0.3258667,0.40037844,-0.32178956,-0.541626,76.0
380,-0.21963692,0.47551727,0.3494568,0.40037844,-0.32178956,-0.541626,76.0
381,-0.21963692,0.47551727,0.3494568,0.4078125,-0.2888672,-0.42799073,76.0
382,-0.26930046,0.46401978,0.29223633,0.4078125,-0.2888672,-0.42799073,76.0
383,-0.26930046,0.46401978,0.29223633,0.35683593,-0.22939454,-0.29948732,76.0
384,-0.061424255,0.41600418,0.16841125,0.35683593,-0.22939454,-0.29948732,76.0
385,-0.061424255,0.41600418,0.16841125,0.27612305,-0.16567384,-0.15505372,76.0
386,-0.061424255,0.41600418,0.16841125,0.27612305,-0.16567384,-0.15505372,76.0
387,0.5293274,0.2253685,0.03878784,0.27612305,-0.16567384,-0.15505372,76.0
388,0.5293274,0.2253685,0.03878784,0.25594482,-0.10513916,-0.059472658,76.0
389,1.337183,-0.07933617,-0.042633057,0.25594482,-0.10513916,-0.059472658,76.0
390,1.337183,-0.07933617,-0.042633057,0.44923097,-0.08283692,0.07327881,76.0
391,1.9105301,-0.21694756,-0.055358887,0.44923097,-0.08283692,0.07327881,76.0
392,1.9105301,-0.21694756,-0.055358887,0.47578126,-0.020178223,0.2548828,76.0
393,1.8770447,0.067201614,-0.047668457,0.47578126,-0.020178223,0.2548828,76.0
394,1.8770447,0.067201614,-0.047668457,0.087084964,0.06265869,0.41949463,76.0
395,1.3849983,0.37946892,0.023361206,0.087084964,0.06265869,0.41949463,76.0
396,1.3849983,0.37946892,0.023361206,-0.38763428,0.15186767,0.5734863,76.0
397,1.0403843,0.12570572,0.20809937,-0.38763428,0.15186767,0.5734863,76.0
398,1.0403843,0.12570572,0.20809937,-0.36745605,0.14124756,0.6669434,76.0
399,1.0979443,-0.46369362,0.28416443,-0.36745605,0.14124756,0.6669434,76.0
400,1.0979443,-0.46369362,0.28416443,-0.17841797,0.15717773,0.6796875,76.0
401,1.1888657,-0.8123245,0.11979675,-0.17841797,0.15717773,0.6796875,76.0
402,1.1888657,-0.8123245,0.11979675,0.03079834,0.20709229,0.7104859,76.0
403,1.0307198,-0.7566471,-0.075790405,0.03079834,0.20709229,0.7104859,76.0
404,1.0307198,-0.7566471,-0.075790405,0.29417726,0.22196046,0.7827026,76.0
405,0.58766174,-0.4152546,-0.13973999,0.29417726,0.22196046,0.7827026,76.0
406,0.58766174,-0.4152546,-0.13973999,0.32391357,0.28461915,0.8889038,76.0
407,-0.051916122,0.0084095,-0.16769409,0.32391357,0.28461915,0.8889038,76.0
408,-0.051916122,0.0084095,-0.16769409,0.26975098,0.3451538,1.0588257,76.0
409,-0.5981369,0.28879547,-0.2789917,0.26975098,0.3451538,1.0588257,76.0
410,-0.5981369,0.28879547,-0.2789917,0.2623169,0.41312256,1.2075074,76.0
411,-0.7058296,0.25886917,-0.43240356,0.2623169,0.41312256,1.2075074,76.0
412,-0.7058296,0.25886917,-0.43240356,0.3355957,0.47471926,1.3222046,76.0
413,-0.28871155,-0.061458588,-0.5318756,0.3355957,0.47471926,1.3222046,76.0
414,-0.28871155,-0.061458588,-0.5318756,0.44710693,0.49277344,1.3933594,76.0
415,0.3826294,-0.4808674,-0.58451843,0.44710693,0.49277344,1.3933594,76.0
416,0.3826294,-0.4808674,-0.58451843,0.635083,0.4959595,1.4432739,76.0
417,0.86758995,-0.8181286,-0.60279846,0.635083,0.4959595,1.4432739,76.0
418,0.86758995,-0.8181286,-0.60279846,0.86553955,0.47790527,1.3678712,76.0
419,0.9310837,-0.87125015,-0.5744324,0.86553955,0.47790527,1.3678712,76.0
420,0.9310837,-0.87125015,-0.5744324,0.9834229,0.46622315,1.3115845,76.0
421,0.6458435,-0.6534805,-0.4986725,0.9834229,0.46622315,1.3115845,76.0
422,0.6458435,-0.6534805,-0.4986725,0.8464233,0.50233155,1.2425537,76.0
423,0.1821785,-0.427948,-0.39736938,0.8464233,0.50233155,1.2425537,76.0
424,0.1821785,-0.427948,-0.39736938,0.7168579,0.49064943,1.1947632,76.0
425,-0.38876724,-0.28364372,-0.35139465,0.7168579,0.49064943,1.1947632,76.0
426,-0.38876724,-0.28364372,-0.35139465,0.540564,0.4725952,1.1671509,76.0
427,-0.92705345,-0.24014664,-0.37083435,0.540564,0.4725952,1.1671509,76.0
428,-0.92705345,-0.24014664,-0.37083435,0.42905274,0.44498292,1.176709,76.0
429,-1.2508106,-0.30135727,-0.36029053,0.42905274,0.44498292,1.176709,76.0
430,-1.2508106,-0.30135727,-0.36029053,0.42268068,0.4088745,1.1852051,76.0
431,-1.2619648,-0.42370224,-0.28207397,0.42268068,0.4088745,1.1852051,76.0
432,-1.2619648,-0.42370224,-0.28207397,0.47578126,0.36745605,1.1639649,76.0
433,-1.0093765,-0.52505875,-0.1274414,0.47578126,0.36745605,1.1639649,76.0
434,-1.0093765,-0.52505875,-0.1274414,0.5320679,0.3164795,1.1119263,76.0
435,-0.6744194,-0.5501251,0.08843994,0.5320679,0.3164795,1.1119263,76.0
436,-0.6744194,-0.5501251,0.08843994,0.58623046,0.2888672,1.0216553,76.0
437,-0.40899277,-0.51397705,0.25360107,0.58623046,0.2888672,1.0216553,76.0
438,-0.40899277,-0.51397705,0.25360107,0.56180423,0.2782471,0.9303223,76.0
439,-0.26735497,-0.48647308,0.25086975,0.56180423,0.2782471,0.9303223,76.0
440,-0.26735497,-0.48647308,0.25086975,0.5161377,0.270813,0.87615967,76.0
441,-0.30154228,-0.41674232,0.19322205,0.5161377,0.270813,0.87615967,76.0
442,-0.30154228,-0.41674232,0.19322205,0.38232422,0.17841797,0.68074954,76.0
443,-0.3431015,-0.40180206,0.1671753,0.38232422,0.17841797,0.68074954,76.0
444,-0.3431015,-0.40180206,0.1671753,0.36851808,0.13275146,0.60109866,76.0
445,-0.5987854,-0.4765091,0.34118652,0.36851808,0.13275146,0.60109866,76.0
446,-0.5987854,-0.4765091,0.34118652,0.4088745,0.007434082,0.35895997,76.0
447,-0.4826908,-0.43156052,0.36235046,0.4088745,0.007434082,0.35895997,76.0
448,-0.4826908,-0.43156052,0.36235046,0.42692873,-0.019116212,0.25913087,76.0
449,-0.11837959,-0.45440292,0.50753784,0.42692873,-0.019116212,0.25913087,76.0
450,-0.11837959,-0.45440292,0.50753784,0.41312256,-0.078588866,-0.087084964,76.0
451,0.09415245,-0.38129616,0.37161255,0.41312256,-0.078588866,-0.087084964,76.0
452,0.09415245,-0.38129616,0.37161255,0.4067505,-0.118945315,-0.1985962,76.0
453,0.83275604,-0.36909866,0.175354,0.4067505,-0.118945315,-0.1985962,76.0
454,0.83275604,-0.36909866,0.175354,0.3451538,-0.23364258,-0.52888185,76.0
455,0.86956215,-0.20841408,0.10462952,0.3451538,-0.23364258,-0.52888185,76.0
456,0.86956215,-0.20841408,0.10462952,0.32178956,-0.26975098,-0.6265869,76.0
457,0.9822464,-0.08327103,0.21803284,0.32178956,-0.26975098,-0.6265869,76.0
458,0.9822464,-0.08327103,0.21803284,0.34940186,-0.4163086,-0.82836914,76.0
459,0.797369,0.059152603,0.1382904,0.34940186,-0.4163086,-0.82836914,76.0
460,0.797369,0.059152603,0.1382904,0.3706421,-0.4715332,-0.8814697,76.0
461,1.1003838,0.187397,-0.032669067,0.3706421,-0.4715332,-0.8814697,76.0
462,1.1003838,0.187397,-0.032669067,0.38338622,-0.5872925,-1.0057251,76.0
463,1.1444798,0.3201561,-0.15913391,0.38338622,-0.5872925,-1.0057251,76.0
464,1.1444798,0.3201561,-0.15913391,0.33665773,-0.630835,-1.0205933,76.0
465,1.3795242,0.5722141,-0.2953186,0.33665773,-0.630835,-1.0205933,76.0
466,1.3795242,0.5722141,-0.2953186,0.14761963,-0.72960204,-1.0683838,76.0
467,1.0443668,0.6572838,-0.36198425,0.14761963,-0.72960204,-1.0683838,76.0
468,1.0443668,0.6572838,-0.36198425,0.124255374,-0.74659425,-1.0556396,76.0
469,0.6780472,0.76462173,-0.40434265,0.124255374,-0.74659425,-1.0556396,76.0
470,0.6780472,0.76462173,-0.40434265,0.10513916,-0.76358646,-0.9897949,76.0
471,0.34360886,0.8488445,-0.46017456,0.10513916,-0.76358646,-0.9897949,76.0
472,0.34360886,0.8488445,-0.46017456,0.083898924,-0.77102053,-0.9324463,76.0
473,-0.051919937,0.90102386,-0.6325531,0.083898924,-0.77102053,-0.9324463,76.0
474,-0.051919937,0.90102386,-0.6325531,0.03717041,-0.7540283,-0.8963379,76.0
475,-0.3024006,0.8879318,-0.8083191,0.03717041,-0.7540283,-0.8963379,76.0
476,-0.3024006,0.8879318,-0.8083191,-0.08920898,-0.68712157,-0.904834,76.0
477,-0.07832146,0.7132263,-0.67974854,-0.08920898,-0.68712157,-0.904834,76.0
478,-0.07832146,0.7132263,-0.67974854,-0.34833986,-0.54587406,-0.97492677,76.0
479,0.05398178,0.6034794,-0.46096802,-0.34833986,-0.54587406,-0.97492677,76.0
480,0.05398178,0.6034794,-0.46096802,-0.43967286,-0.5033936,-1.0004151,76.0
481,0.2188816,0.4837246,-0.15153503,-0.43967286,-0.5033936,-1.0004151,76.0
482,0.2188816,0.4837246,-0.15153503,-0.62127686,-0.452417,-0.9770508,76.0
483,-0.11725235,0.46897507,-0.03817749,-0.62127686,-0.452417,-0.9770508,76.0
484,-0.11725235,0.46897507,-0.03817749,-0.7062378,-0.4439209,-0.8814697,76.0
485,-0.819973,0.4810028,-0.08547974,-0.7062378,-0.4439209,-0.8814697,76.0
486,-0.819973,0.4810028,-0.08547974,-0.67437744,-0.44073486,-0.7720825,76.0
487,-1.391098,0.4467411,-0.13748169,-0.67437744,-0.44073486,-0.7720825,76.0
488,-1.391098,0.4467411,-0.13748169,-0.6149048,-0.41843262,-0.6690674,76.0
489,-1.6012688,0.4168892,-0.046844482,-0.6149048,-0.41843262,-0.6690674,76.0
490,-1.6012688,0.4168892,-0.046844482,-0.631897,-0.3706421,-0.5649902,76.0
491,-1.6698208,0.50001526,0.05558777,-0.631897,-0.3706421,-0.5649902,76.0
492,-1.6698208,0.50001526,0.05558777,-0.7423462,-0.2984253,-0.47471926,76.0
493,-1.7615528,0.56993294,-0.027114868,-0.7423462,-0.2984253,-0.47471926,76.0
494,-1.7615528,0.56993294,-0.027114868,-0.8251831,-0.25594482,-0.38551027,76.0
495,-1.7615528,0.56993294,-0.027114868,-0.8251831,-0.25594482,-0.38551027,76.0
496,-1.6729012,0.42656326,-0.21218872,-0.8251831,-0.25594482,-0.38551027,76.0
497,-1.6729012,0.42656326,-0.21218872,-0.7391602,-0.26975098,-0.31966552,76.0
498,-1.1608677,0.14354515,-0.29396057,-0.7391602,-0.26975098,-0.31966552,76.0
499,-1.1608677,0.14354515,-0.29396057,-0.52888185,-0.3525879,-0.30161133,76.0
500,-0.44031525,-0.08756828,-0.23439026,-0.52888185,-0.3525879,-0.30161133,76.0
501,-0.44031525,-0.08756828,-0.23439026,-0.26975098,-0.4439209,-0.3440918,76.0
502,0.07159996,-0.22518158,-0.14506531,-0.26975098,-0.4439209,-0.3440918,76.0
503,0.07159996,-0.22518158,-0.14506531,0.04460449,-0.5384399,-0.4258667,76.0
504,0.21743584,-0.23737335,-0.0715332,0.04460449,-0.5384399,-0.4258667,76.0
505,0.21743584,-0.23737335,-0.0715332,0.3164795,-0.5968506,-0.53100586,76.0
506,0.11327934,-0.08966637,0.09075928,0.3164795,-0.5968506,-0.53100586,76.0
507,0.11327934,-0.08966637,0.09075928,0.46409914,-0.57454836,-0.5777344,76.0
508,-0.0025901794,0.14680862,0.28520203,0.46409914,-0.57454836,-0.5777344,76.0
509,-0.0025901794,0.14680862,0.28520203,0.47684327,-0.4885254,-0.5320679,76.0
510,-0.1378994,0.35050392,0.31544495,0.47684327,-0.4885254,-0.5320679,76.0
511,-0.1378994,0.35050392,0.31544495,0.36745605,-0.3812622,-0.42905274,76.0
512,-0.31383514,0.47587395,0.18605042,0.36745605,-0.3812622,-0.42905274,76.0
513,-0.31383514,0.47587395,0.18605042,0.16673584,-0.23682861,-0.271875,76.0
514,-0.25944138,0.46066666,0.07180786,0.16673584,-0.23682861,-0.271875,76.0
515,-0.25944138,0.46066666,0.07180786,0.012744141,-0.095581055,-0.08283692,76.0
516,0.36485863,0.2782135,0.046676636,0.012744141,-0.095581055,-0.08283692,76.0
517,0.36485863,0.2782135,0.046676636,-0.015930176,0.02442627,0.09133301,76.0
518,1.3424606,0.08090782,0.017089844,-0.015930176,0.02442627,0.09133301,76.0
519,1.3424606,0.08090782,0.017089844,0.0637207,0.08814698,0.33665773,76.0
520,2.0267162,0.036100388,-0.12371826,0.0637207,0.08814698,0.33665773,76.0
521,2.0267162,0.036100388,-0.12371826,0.04141846,0.1529297,0.54587406,76.0
522,2.0675888,0.19932747,-0.18678284,0.04141846,0.1529297,0.54587406,76.0
523,2.0675888,0.19932747,-0.18678284,-0.2548828,0.21346436,0.68712157,76.0
524,1.6754093,0.3429222,0.17012024,-0.2548828,0.21346436,0.68712157,76.0
525,1.6754093,0.3429222,0.17012024,-0.75615233,0.2782471,0.7168579,76.0
526,1.2459297,0.06658554,0.8534851,-0.75615233,0.2782471,0.7168579,76.0
527,1.2459297,0.06658554,0.8534851,-1.0397094,0.23895264,0.6488892,76.0
528,0.8973541,-0.57489395,1.2532654,-1.0397094,0.23895264,0.6488892,76.0
529,0.8973541,-0.57489395,1.2532654,-0.70942384,0.22089843,0.5894165,76.0
530,0.68138504,-1.0274677,0.9051056,-0.70942384,0.22089843,0.5894165,76.0
531,0.68138504,-1.0274677,0.9051056,0.13806152,0.24851075,0.35046387,76.0
532,0.60116196,-0.8875389,0.17196655,0.13806152,0.24851075,0.35046387,76.0
533,0.60116196,-0.8875389,0.17196655,0.5543701,0.3717041,0.26125488,76.0
534,0.45458603,-0.24527359,-0.3165741,0.5543701,0.3717041,0.26125488,76.0
535,0.45458603,-0.24527359,-0.3165741,0.8442993,0.4248047,0.18797608,76.0
536,-0.082387924,0.54475975,-0.41996765,0.8442993,0.4248047,0.18797608,76.0
537,-0.082387924,0.54475975,-0.41996765,0.74022216,0.5235718,0.18266602,76.0
538,-0.87654305,0.9968071,-0.47769165,0.74022216,0.5235718,0.18266602,76.0
539,-0.87654305,0.9968071,-0.47769165,0.3462158,0.6403931,0.23789063,76.0
540,-1.410511,0.78235626,-0.64637756,0.3462158,0.6403931,0.23789063,76.0
541,-1.410511,0.78235626,-0.64637756,0.28568116,0.7041138,0.23895264,76.0
542,-1.3803864,0.2322216,-0.73991394,0.28568116,0.7041138,0.23895264,76.0
543,-1.3803864,0.2322216,-0.73991394,0.3154175,0.6149048,0.34090576,76.0
544,-0.7563114,-0.2489891,-0.6727905,0.3154175,0.6149048,0.34090576,76.0
545,-0.7563114,-0.2489891,-0.6727905,0.19328614,0.60216063,0.40462646,76.0
546,0.08419609,-0.7464695,-0.5595398,0.19328614,0.60216063,0.40462646,76.0
547,0.08419609,-0.7464695,-0.5595398,0.21877442,0.6074707,0.4439209,76.0
548,0.57255745,-1.1738358,-0.51823425,0.21877442,0.6074707,0.4439209,76.0
549,0.57255745,-1.1738358,-0.51823425,0.3706421,0.6000366,0.5055176,76.0
550,0.47690582,-1.2079544,-0.51823425,0.3706421,0.6000366,0.5055176,76.0
551,0.47690582,-1.2079544,-0.51823425,0.4630371,0.5798584,0.5968506,76.0
552,-0.060138702,-0.8674736,-0.5144501,0.4630371,0.5798584,0.5968506,76.0
553,-0.060138702,-0.8674736,-0.5144501,0.56817627,0.5129517,0.70305175,76.0
554,-0.675724,-0.45822525,-0.463974,0.56817627,0.5129517,0.70305175,76.0
555,-0.675724,-0.45822525,-0.463974,0.62552494,0.43861085,0.8294312,76.0
556,-1.0994663,-0.20975685,-0.36257935,0.62552494,0.43861085,0.8294312,76.0
557,-1.0994663,-0.20975685,-0.36257935,0.6573853,0.40144044,0.9451904,76.0
558,-1.2306957,-0.1417675,-0.28842163,0.6573853,0.40144044,0.9451904,76.0
559,-1.2306957,-0.1417675,-0.28842163,0.632959,0.39613038,1.0588257,76.0
560,-1.0588112,-0.16108322,-0.2891388,0.632959,0.39613038,1.0588257,76.0
561,-1.0588112,-0.16108322,-0.2891388,0.57454836,0.4163086,1.1469727,76.0
562,-0.678421,-0.20878601,-0.32969666,0.57454836,0.4163086,1.1469727,76.0
563,-0.678421,-0.20878601,-0.32969666,0.48640138,0.42799073,1.2011353,76.0
564,-0.23726845,-0.25273323,-0.3263855,0.48640138,0.42799073,1.2011353,76.0
565,-0.23726845,-0.25273323,-0.3263855,0.38763428,0.41949463,1.2191895,76.0
566,0.15690231,-0.2866974,-0.24612427,0.38763428,0.41949463,1.2191895,76.0
567,0.15690231,-0.2866974,-0.24612427,0.20390625,0.40250245,1.1841431,76.0
568,0.4159031,-0.34583664,-0.14653015,0.20390625,0.40250245,1.1841431,76.0
569,0.4159031,-0.34583664,-0.14653015,0.009558106,0.3451538,1.1034302,76.0
570,0.4851265,-0.43946266,-0.03489685,0.009558106,0.3451538,1.1034302,76.0
571,0.4851265,-0.43946266,-0.03489685,-0.19434814,0.26656494,0.9876709,76.0
572,0.38334084,-0.5290108,0.19203186,-0.19434814,0.26656494,0.9876709,76.0
573,0.38334084,-0.5290108,0.19203186,-0.3334717,0.19328614,0.85704345,76.0
574,0.20448685,-0.53804016,0.52326965,-0.3334717,0.19328614,0.85704345,76.0
575,0.20448685,-0.53804016,0.52326965,-0.41418457,0.16885987,0.7126099,76.0
576,0.12285423,-0.5441284,0.7069397,-0.41418457,0.16885987,0.7126099,76.0
577,0.12285423,-0.5441284,0.7069397,-0.45878908,0.13275146,0.5235718,76.0
578,0.34976006,-0.5870857,0.6346741,-0.45878908,0.13275146,0.5235718,76.0
579,0.34976006,-0.5870857,0.6346741,-0.41418457,0.04991455,0.29523927,76.0
580,0.86161995,-0.54216766,0.5733032,-0.41418457,0.04991455,0.29523927,76.0
581,0.86161995,-0.54216766,0.5733032,-0.43011475,-0.023364259,0.04460449,76.0
582,1.2113171,-0.32909584,0.6798096,-0.43011475,-0.023364259,0.04460449,76.0
583,1.2113171,-0.32909584,0.6798096,-0.49064943,-0.115759276,-0.20390625,76.0
584,1.0562477,4.6920776E-4,0.85054016,-0.49064943,-0.115759276,-0.20390625,76.0
585,1.0562477,4.6920776E-4,0.85054016,-0.65844727,-0.18266602,-0.44179687,76.0
586,0.81640816,0.23329735,0.9355011,-0.65844727,-0.18266602,-0.44179687,76.0
587,0.81640816,0.23329735,0.9355011,-0.7965088,-0.23895264,-0.7104859,76.0
588,0.89110184,0.21243095,0.9587555,-0.7965088,-0.23895264,-0.7104859,76.0
589,0.89110184,0.21243095,0.9587555,-0.8496094,-0.3430298,-0.996167,76.0
590,1.0193882,0.06357193,0.9402008,-0.8496094,-0.3430298,-0.996167,76.0
591,1.0193882,0.06357193,0.9402008,-0.8485474,-0.42692873,-1.3137085,76.0
592,0.8255081,-0.09510231,0.836792,-0.8485474,-0.42692873,-1.3137085,76.0
593,0.8255081,-0.09510231,0.836792,-0.8485474,-0.42692873,-1.3137085,76.0
594,0.8255081,-0.09510231,0.836792,-0.66269535,-0.5522461,-1.5176147,76.0
595,0.17886353,-0.13492012,0.67311096,-0.66269535,-0.5522461,-1.5176147,76.0
596,0.17886353,-0.13492012,0.67311096,-0.21983643,-0.6467652,-1.6238159,76.0
597,-0.40195274,0.0020370483,0.48918152,-0.21983643,-0.6467652,-1.6238159,76.0
598,-0.40195274,0.0020370483,0.48918152,0.20603028,-0.5894165,-1.5579712,76.0
599,-0.2854042,0.27918053,0.27120972,0.20603028,-0.5894165,-1.5579712,76.0
600,-0.2854042,0.27918053,0.27120972,0.38232422,-0.4715332,-1.5059327,76.0
601,0.367136,0.5990524,-0.022415161,0.38232422,-0.4715332,-1.5059327,76.0
602,0.367136,0.5990524,-0.022415161,0.11363526,-0.28568116,-1.4645141,76.0
603,0.858078,0.84324265,-0.23991394,0.11363526,-0.28568116,-1.4645141,76.0
604,0.858078,0.84324265,-0.23991394,-0.45135498,-0.124255374,-1.3869873,76.0
605,0.5895386,0.9370098,-0.2682953,-0.45135498,-0.124255374,-1.3869873,76.0
606,0.5895386,0.9370098,-0.2682953,-1.0227174,-0.0053100586,-1.2372437,76.0
607,-0.34633827,0.80225754,-0.24406433,-1.0227174,-0.0053100586,-1.2372437,76.0
608,-0.34633827,0.80225754,-0.24406433,-1.2871583,0.07965088,-1.0322754,76.0
609,-1.3896561,0.48223495,-0.22413635,-1.2871583,0.07965088,-1.0322754,76.0
610,-1.3896561,0.48223495,-0.22413635,-1.3625611,0.10301514,-0.813501,76.0
611,-2.1559753,0.15534401,-0.1764679,-1.3625611,0.10301514,-0.813501,76.0
612,-2.1559753,0.15534401,-0.1764679,-1.3976074,0.11044922,-0.60216063,76.0
613,-2.5731316,-0.030582428,-0.11001587,-1.3976074,0.11044922,-0.60216063,76.0
614,-2.5731316,-0.030582428,-0.11001587,-1.357251,0.1083252,-0.4364868,76.0
615,-2.7035503,-0.12640762,-0.03742981,-1.357251,0.1083252,-0.4364868,76.0
616,-2.7035503,-0.12640762,-0.03742981,-1.2361816,0.087084964,-0.32603762,76.0
617,-2.5822258,-0.21783638,-0.017303467,-1.2361816,0.087084964,-0.32603762,76.0
618,-2.5822258,-0.21783638,-0.017303467,-0.9770508,0.029736329,-0.2442627,76.0
619,-2.2283897,-0.28128815,-0.058151245,-0.9770508,0.029736329,-0.2442627,76.0
620,-2.2283897,-0.28128815,-0.058151245,-0.7476563,-0.04885254,-0.22302246,76.0
621,-1.7479343,-0.29374504,-0.10374451,-0.7476563,-0.04885254,-0.22302246,76.0
622,-1.7479343,-0.29374504,-0.10374451,-0.5214478,-0.16354981,-0.24744873,76.0
623,-1.2258377,-0.2830429,-0.08627319,-0.5214478,-0.16354981,-0.24744873,76.0
624,-1.2258377,-0.2830429,-0.08627319,-0.29099122,-0.28461915,-0.30161133,76.0
625,-0.66318893,-0.2556343,0.03451538,-0.29099122,-0.28461915,-0.30161133,76.0
626,-0.66318893,-0.2556343,0.03451538,-0.09451904,-0.3971924,-0.3440918,76.0
627,-0.10212135,-0.15974426,0.26739502,-0.09451904,-0.3971924,-0.3440918,76.0
628,-0.10212135,-0.15974426,0.26739502,0.06265869,-0.47896728,-0.35046387,76.0
629,0.31434727,-0.009864807,0.49279785,0.06265869,-0.47896728,-0.35046387,76.0
630,0.31434727,-0.009864807,0.49279785,0.18585205,-0.5341919,-0.30267334,76.0
631,0.5255861,0.14296341,0.6190033,0.18585205,-0.5341919,-0.30267334,76.0
632,0.5255861,0.14296341,0.6190033,0.31223145,-0.55755615,-0.20709229,76.0
633,0.7339573,0.27672577,0.72888184,0.31223145,-0.55755615,-0.20709229,76.0
634,0.7339573,0.27672577,0.72888184,0.32709962,-0.5256958,-0.09239502,76.0
635,1.012886,0.3537674,0.91648865,0.32709962,-0.5256958,-0.09239502,76.0
636,1.012886,0.3537674,0.91648865,0.27506104,-0.44710693,-0.028674318,76.0
637,1.4225883,0.23256111,1.03862,0.27506104,-0.44710693,-0.028674318,76.0
638,1.4225883,0.23256111,1.03862,0.34833986,-0.40356445,0.033984374,76.0
639,2.0752048,-0.052330017,1.0491791,0.34833986,-0.40356445,0.033984374,76.0
640,2.0752048,-0.052330017,1.0491791,0.634021,-0.44073486,0.059472658,76.0
641,2.510872,-0.1937561,0.91645813,0.634021,-0.44073486,0.059472658,76.0
642,2.510872,-0.1937561,0.91645813,0.92926025,-0.3462158,0.12531738,76.0
643,2.2824898,0.037195206,0.6212616,0.92926025,-0.3462158,0.12531738,76.0
644,2.2824898,0.037195206,0.6212616,0.811377,-0.13275146,0.22302246,76.0
645,1.7620525,0.39982414,0.3431549,0.811377,-0.13275146,0.22302246,76.0
646,1.7620525,0.39982414,0.3431549,0.4609131,0.05628662,0.31329346,76.0
647,1.314745,0.4245224,0.22512817,0.4609131,0.05628662,0.31329346,76.0
648,1.314745,0.4245224,0.22512817,0.32072756,0.12213135,0.3536499,76.0
649,0.99687576,0.04147339,0.1098938,0.32072756,0.12213135,0.3536499,76.0
650,0.99687576,0.04147339,0.1098938,0.49064943,0.17629395,0.35683593,76.0
651,0.8279686,-0.3145256,-0.2735901,0.49064943,0.17629395,0.35683593,76.0
652,0.8279686,-0.3145256,-0.2735901,1.1575928,0.1539917,0.34090576,76.0
653,0.52752304,-0.30812645,-0.8877106,1.1575928,0.1539917,0.34090576,76.0
654,0.52752304,-0.30812645,-0.8877106,1.5473511,0.27506104,0.3451538,76.0
655,-0.09992981,0.092121124,-1.4543915,1.5473511,0.27506104,0.3451538,76.0
656,-0.09992981,0.092121124,-1.4543915,1.5802735,0.4725952,0.39506838,76.0
657,-0.6310425,0.56887436,-1.76268,1.5802735,0.4725952,0.39506838,76.0
658,-0.6310425,0.56887436,-1.76268,1.4284058,0.61702883,0.42055663,76.0
659,-0.6110592,0.6838474,-1.7370453,1.4284058,0.61702883,0.42055663,76.0
660,-0.6110592,0.6838474,-1.7370453,1.2935303,0.62340087,0.4364868,76.0
661,-0.0667038,0.35999298,-1.5384521,1.2935303,0.62340087,0.4364868,76.0
662,-0.0667038,0.35999298,-1.5384521,1.2244996,0.58304447,0.4439209,76.0
663,0.49111938,-0.18361092,-1.2828674,1.2244996,0.58304447,0.4439209,76.0
664,0.49111938,-0.18361092,-1.2828674,1.1501588,0.58410645,0.5012695,76.0
665,0.6338749,-0.6200943,-1.0910187,1.1501588,0.58410645,0.5012695,76.0
666,0.6338749,-0.6200943,-1.0910187,1.176709,0.635083,0.5278198,76.0
667,0.31889153,-0.73679733,-1.0476074,1.176709,0.635083,0.5278198,76.0
668,0.31889153,-0.73679733,-1.0476074,1.1926392,0.7072998,0.61702883,76.0
669,-0.39310455,-0.5003147,-1.0780029,1.1926392,0.7072998,0.61702883,76.0
670,-0.39310455,-0.5003147,-1.0780029,1.1554688,0.7349121,0.7763306,76.0
671,-1.1450138,-0.094659805,-1.0878906,1.1554688,0.7349121,0.7763306,76.0
672,-1.1450138,-0.094659805,-1.0878906,1.0630738,0.73809814,0.9802368,76.0
673,-1.5551586,0.20315361,-1.0072632,1.0630738,0.73809814,0.9802368,76.0
674,-1.5551586,0.20315361,-1.0072632,0.91864014,0.7497803,1.1724609,76.0
675,-1.5078602,0.21207237,-0.84973145,0.91864014,0.7497803,1.1724609,76.0
676,-1.5078602,0.21207237,-0.84973145,0.7519043,0.77951664,1.3476928,76.0
677,-1.1150284,-0.006538391,-0.68362427,0.7519043,0.77951664,1.3476928,76.0
678,-1.1150284,-0.006538391,-0.68362427,0.61702883,0.81031495,1.4857544,76.0
679,-0.6345272,-0.25448608,-0.5327606,0.61702883,0.81031495,1.4857544,76.0
680,-0.6345272,-0.25448608,-0.5327606,0.5129517,0.8209351,1.5781494,76.0
681,-0.29066658,-0.39834023,-0.4015808,0.5129517,0.8209351,1.5781494,76.0
682,-0.29066658,-0.39834023,-0.4015808,0.38975832,0.7975708,1.62594,76.0
683,-0.13823318,-0.44867706,-0.23243713,0.38975832,0.7975708,1.62594,76.0
684,-0.13823318,-0.44867706,-0.23243713,0.23258057,0.7391602,1.6482422,76.0
685,-0.1628685,-0.5012646,-0.004257202,0.23258057,0.7391602,1.6482422,76.0
686,-0.1628685,-0.5012646,-0.004257202,0.10620117,0.6446411,1.6365601,76.0
687,-0.24538231,-0.62355804,0.2168274,0.10620117,0.6446411,1.6365601,76.0
688,-0.24538231,-0.62355804,0.2168274,0.10620117,0.6446411,1.6365601,77.0
689,-0.24538231,-0.62355804,0.2168274,0.0722168,0.51826173,1.5908936,77.0
690,-0.18708992,-0.7567196,0.4499817,0.0722168,0.51826173,1.5908936,77.0
691,-0.18708992,-0.7567196,0.4499817,0.13062744,0.3802002,1.5006226,77.0
692,-0.037891388,-0.8049488,0.7138977,0.13062744,0.3802002,1.5006226,77.0
693,-0.037891388,-0.8049488,0.7138977,0.12319336,0.24851075,1.3211426,77.0
694,-0.053030014,-0.79550934,0.9174347,0.12319336,0.24851075,1.3211426,77.0
695,-0.053030014,-0.79550934,0.9174347,0.16354981,0.11257324,1.0375855,77.0
696,-0.17761612,-0.7691841,1.028656,0.16354981,0.11257324,1.0375855,77.0
697,-0.17761612,-0.7691841,1.028656,0.24638672,-0.0063720704,0.69136965,77.0
698,-0.0063991547,-0.67640686,1.1880798,0.24638672,-0.0063720704,0.69136965,77.0
699,-0.0063991547,-0.67640686,1.1880798,0.3419678,-0.052038576,0.28461915,77.0
700,0.45409775,-0.44561768,1.4841156,0.3419678,-0.052038576,0.28461915,77.0
701,0.45409775,-0.44561768,1.4841156,0.38763428,-0.052038576,-0.07434082,77.0
702,0.6752167,-0.079992294,1.5832825,0.38763428,-0.052038576,-0.07434082,77.0
703,0.6752167,-0.079992294,1.5832825,0.2548828,-0.08814698,-0.362146,77.0
704,0.50146484,0.29706573,1.2097931,0.2548828,-0.08814698,-0.362146,77.0
705,0.50146484,0.29706573,1.2097931,0.10513916,-0.19222413,-0.6287109,77.0
706,0.4703846,0.5359192,0.6576538,0.10513916,-0.19222413,-0.6287109,77.0
707,0.4703846,0.5359192,0.6576538,-0.004248047,-0.3154175,-0.9483765,77.0
708,1.0411396,0.5573368,0.42948914,-0.004248047,-0.3154175,-0.9483765,77.0
709,1.0411396,0.5573368,0.42948914,-0.124255374,-0.40993652,-1.2999023,77.0
710,1.7769661,0.4867382,0.50593567,-0.124255374,-0.40993652,-1.2999023,77.0
711,1.7769661,0.4867382,0.50593567,-0.4067505,-0.45878908,-1.5823975,77.0
712,1.8087311,0.48041916,0.5041504,-0.4067505,-0.45878908,-1.5823975,77.0
713,1.8087311,0.48041916,0.5041504,-0.64570314,-0.5384399,-1.7597535,77.0
714,0.65356445,0.6266823,0.17655945,-0.64570314,-0.5384399,-1.7597535,77.0
715,0.65356445,0.6266823,0.17655945,-0.7349121,-0.69136965,-1.7576294,77.0
716,-0.79849815,0.7289829,-0.32052612,-0.7349121,-0.69136965,-1.7576294,77.0
717,-0.79849815,0.7289829,-0.32052612,-0.39400634,-0.77739257,-1.6864747,77.0
718,-0.8405075,0.4836502,-0.5219116,-0.39400634,-0.77739257,-1.6864747,77.0
719,-0.8405075,0.4836502,-0.5219116,0.28674316,-0.8814697,-1.6694825,77.0
720,0.54281616,0.10774422,-0.3164978,0.28674316,-0.8814697,-1.6694825,77.0
721,0.54281616,0.10774422,-0.3164978,0.87615967,-0.90270996,-1.7268311,77.0
722,1.8368416,0.09957504,-0.21514893,0.87615967,-0.90270996,-1.7268311,77.0
723,1.8368416,0.09957504,-0.21514893,0.8878418,-0.8612915,-1.7990478,77.0
724,1.7785683,0.50152206,-0.50816345,0.8878418,-0.8612915,-1.7990478,77.0
725,1.7785683,0.50152206,-0.50816345,0.44179687,-0.8612915,-1.7820557,77.0
726,0.27827454,0.9030609,-0.85806274,0.44179687,-0.8612915,-1.7820557,77.0
727,0.27827454,0.9030609,-0.85806274,0.14230958,-0.91864014,-1.627002,77.0
728,-1.5159912,1.0398788,-0.9144745,0.14230958,-0.91864014,-1.627002,77.0
729,-1.5159912,1.0398788,-0.9144745,0.26868898,-0.98129886,-1.4326538,77.0
730,-2.505848,0.94992065,-0.7306671,0.26868898,-0.98129886,-1.4326538,77.0
731,-2.505848,0.94992065,-0.7306671,0.4970215,-0.9897949,-1.2829102,77.0
732,-2.5814495,0.6914177,-0.51545715,0.4970215,-0.9897949,-1.2829102,77.0
733,-2.5814495,0.6914177,-0.51545715,0.7604004,-0.93350834,-1.178833,77.0
734,-2.275877,0.4179287,-0.41708374,0.7604004,-0.93350834,-1.178833,77.0
735,-2.275877,0.4179287,-0.41708374,1.002539,-0.86341554,-1.0821899,77.0
736,-2.0387917,0.39299774,-0.48599243,1.002539,-0.86341554,-1.0821899,77.0
737,-2.0387917,0.39299774,-0.48599243,1.1204224,-0.7519043,-0.9759888,77.0
738,-1.8923855,0.6379452,-0.6795044,1.1204224,-0.7519043,-0.9759888,77.0
739,-1.8923855,0.6379452,-0.6795044,1.0949341,-0.6446411,-0.81881106,77.0
740,-1.610918,0.90958786,-0.8329315,1.0949341,-0.6446411,-0.81881106,77.0
741,-1.610918,0.90958786,-0.8329315,1.0768799,-0.54693604,-0.65419924,77.0
742,-1.1343155,0.96126366,-0.83525085,1.0768799,-0.54693604,-0.65419924,77.0
743,-1.1343155,0.96126366,-0.83525085,1.0906861,-0.44923097,-0.46728516,77.0
744,-0.6708813,0.8291187,-0.781662,1.0906861,-0.44923097,-0.46728516,77.0
745,-0.6708813,0.8291187,-0.781662,1.0620117,-0.32072756,-0.2347046,77.0
746,-0.33626556,0.7373562,-0.8187561,1.0620117,-0.32072756,-0.2347046,77.0
747,-0.33626556,0.7373562,-0.8187561,0.95581055,-0.15717773,0.06265869,77.0
748,-0.051885605,0.78474617,-0.9526825,0.95581055,-0.15717773,0.06265869,77.0
749,-0.051885605,0.78474617,-0.9526825,0.8251831,-0.016992187,0.3982544,77.0
750,0.29649162,0.8442993,-1.0357971,0.8251831,-0.016992187,0.3982544,77.0
751,0.29649162,0.8442993,-1.0357971,0.5957886,0.11682129,0.69986576,77.0
752,0.68610764,0.72387695,-0.98361206,0.5957886,0.11682129,0.69986576,77.0
753,0.68610764,0.72387695,-0.98361206,0.31329346,0.24320069,0.94731444,77.0
754,1.0677834,0.37498665,-0.864151,0.31329346,0.24320069,0.94731444,77.0
755,1.0677834,0.37498665,-0.864151,0.035046387,0.32391357,1.1639649,77.0
756,1.5222454,-0.09225845,-0.7301178,0.035046387,0.32391357,1.1639649,77.0
757,1.5222454,-0.09225845,-0.7301178,-0.07115479,0.3525879,1.3137085,77.0
758,1.961546,-0.55537415,-0.54244995,-0.07115479,0.3525879,1.3137085,77.0
759,1.961546,-0.55537415,-0.54244995,-0.060534667,0.33240968,1.4071655,77.0
760,1.977293,-0.8114147,-0.27571106,-0.060534667,0.33240968,1.4071655,77.0
761,1.977293,-0.8114147,-0.27571106,-0.09664307,0.3355957,1.4666382,77.0
762,1.3789539,-0.76242447,-0.0055999756,-0.09664307,0.3355957,1.4666382,77.0
763,1.3789539,-0.76242447,-0.0055999756,-0.3419678,0.36533204,1.4953126,77.0
764,0.44320107,-0.58070374,0.19824219,-0.3419678,0.36533204,1.4953126,77.0
765,0.44320107,-0.58070374,0.19824219,-0.6616333,0.35577393,1.4963745,77.0
766,-0.31765556,-0.5033951,0.41584778,-0.6616333,0.35577393,1.4963745,77.0
767,-0.31765556,-0.5033951,0.41584778,-0.8793457,0.3079834,1.4061035,77.0
768,-0.2991562,-0.6530094,0.7013397,-0.8793457,0.3079834,1.4061035,77.0
769,-0.2991562,-0.6530094,0.7013397,-0.79013675,0.22408448,1.1597168,77.0
770,0.5012512,-1.0237389,0.93307495,-0.79013675,0.22408448,1.1597168,77.0
771,0.5012512,-1.0237389,0.93307495,-0.3451538,0.07646485,0.8400513,77.0
772,1.4208622,-1.3348732,0.9114685,-0.3451538,0.07646485,0.8400513,77.0
773,1.4208622,-1.3348732,0.9114685,0.19116211,0.02442627,0.61702883,77.0
774,1.9590893,-1.26968,0.7128906,0.19116211,0.02442627,0.61702883,77.0
775,1.9590893,-1.26968,0.7128906,0.6775635,-0.03186035,0.53525394,77.0
776,1.6567497,-0.7327595,0.39642334,0.6775635,-0.03186035,0.53525394,77.0
777,1.6567497,-0.7327595,0.39642334,1.2383057,0.010620117,0.43011475,77.0
778,0.49329567,0.07243538,-0.11917114,1.2383057,0.010620117,0.43011475,77.0
779,0.49329567,0.07243538,-0.11917114,0.91864014,0.29311523,0.42055663,77.0
780,-0.37900925,0.47537994,-0.72813416,0.91864014,0.29311523,0.42055663,77.0
781,-0.37900925,0.47537994,-0.72813416,0.25594482,0.59260255,0.59260255,77.0
782,-0.24958229,0.08495331,-1.1651764,0.25594482,0.59260255,0.59260255,77.0
783,-0.24958229,0.08495331,-1.1651764,0.14337158,0.57561034,0.6966797,77.0
784,0.52708054,-0.6287174,-1.16745,0.14337158,0.57561034,0.6966797,77.0
785,0.52708054,-0.6287174,-1.16745,0.12850343,0.49277344,0.75296634,77.0
786,1.3042202,-1.1998863,-0.9157257,0.12850343,0.49277344,0.75296634,77.0
787,1.3042202,-1.1998863,-0.9157257,0.36851808,0.38232422,0.77314454,77.0
788,1.4755287,-1.4165859,-0.72946167,0.36851808,0.38232422,0.77314454,77.0
789,1.4755287,-1.4165859,-0.72946167,0.42799073,0.32709962,0.7582764,77.0
790,0.8105869,-1.2394218,-0.6541748,0.42799073,0.32709962,0.7582764,77.0
791,0.8105869,-1.2394218,-0.6541748,0.3695801,0.28568116,0.7805786,77.0
792,-0.376297,-0.8120346,-0.56651306,0.3695801,0.28568116,0.7805786,77.0
793,-0.376297,-0.8120346,-0.56651306,0.24213867,0.23258057,0.8241211,77.0
794,-1.4242439,-0.39085197,-0.43515015,0.24213867,0.23258057,0.8241211,77.0
795,-1.4242439,-0.39085197,-0.43515015,0.118945315,0.16885987,0.87615967,77.0
796,-1.4242439,-0.39085197,-0.43515015,0.118945315,0.16885987,0.87615967,77.0
797,-1.9796677,-0.17458344,-0.30569458,0.118945315,0.16885987,0.87615967,77.0
798,-1.9796677,-0.17458344,-0.30569458,0.081774905,0.10513916,0.90695804,77.0
799,-2.0234566,-0.20785522,-0.2437439,0.081774905,0.10513916,0.90695804,77.0
800,-2.0234566,-0.20785522,-0.2437439,0.08814698,0.08920898,0.9165161,77.0
801,-1.6485004,-0.35074425,-0.26387024,0.08814698,0.08920898,0.9165161,77.0
802,-1.6485004,-0.35074425,-0.26387024,0.098767094,0.087084964,0.8793457,77.0
803,-1.0563622,-0.45289803,-0.3181305,0.098767094,0.087084964,0.8793457,77.0
804,-1.0563622,-0.45289803,-0.3181305,0.10938721,0.053100586,0.7763306,77.0
805,-0.51521873,-0.47342682,-0.3087616,0.10938721,0.053100586,0.7763306,77.0
806,-0.51521873,-0.47342682,-0.3087616,0.08283692,0.0180542,0.6064087,77.0
807,-0.18318367,-0.43749428,-0.12763977,0.08283692,0.0180542,0.6064087,77.0
808,-0.18318367,-0.43749428,-0.12763977,0.05628662,-0.008496094,0.43754885,77.0
809,-0.04790306,-0.36124992,0.23350525,0.05628662,-0.008496094,0.43754885,77.0
810,-0.04790306,-0.36124992,0.23350525,0.004248047,0.004248047,0.27612305,77.0
811,0.037691116,-0.2446022,0.53092957,0.004248047,0.004248047,0.27612305,77.0
812,0.037691116,-0.2446022,0.53092957,-0.13487549,0.022302246,0.11044922,77.0
813,0.12266922,-0.1783104,0.5458374,-0.13487549,0.022302246,0.11044922,77.0
814,0.12266922,-0.1783104,0.5458374,-0.2357666,-0.0053100586,-0.03186035,77.0
815,0.22756577,-0.15678406,0.41168213,-0.2357666,-0.0053100586,-0.03186035,77.0
816,0.22756577,-0.15678406,0.41168213,-0.29523927,-0.053100586,-0.14549561,77.0
817,0.42563248,-0.13924599,0.3407135,-0.29523927,-0.053100586,-0.14549561,77.0
818,0.42563248,-0.13924599,0.3407135,-0.29736328,-0.09451904,-0.24851075,77.0
819,0.7518463,-0.09485626,0.41497803,-0.29736328,-0.09451904,-0.24851075,77.0
820,0.7518463,-0.09485626,0.41497803,-0.31435546,-0.1083252,-0.34833986,77.0
821,1.0646858,0.02327156,0.56791687,-0.31435546,-0.1083252,-0.34833986,77.0
822,1.0646858,0.02327156,0.56791687,-0.5161377,-0.0998291,-0.46516114,77.0
823,1.1023598,0.1608162,0.6691437,-0.5161377,-0.0998291,-0.46516114,77.0
824,1.1023598,0.1608162,0.6691437,-0.6605713,-0.16036378,-0.5766724,77.0
825,0.8297272,0.19173813,0.6577606,-0.6605713,-0.16036378,-0.5766724,77.0
826,0.8297272,0.19173813,0.6577606,-0.6754395,-0.23895264,-0.725354,77.0
827,0.73044395,0.09518814,0.54145813,-0.6754395,-0.23895264,-0.725354,77.0
828,0.73044395,0.09518814,0.54145813,-0.61702883,-0.271875,-0.93775636,77.0
829,1.2536545,-0.029220581,0.4145813,-0.61702883,-0.271875,-0.93775636,77.0
830,1.2536545,-0.029220581,0.4145813,-0.6637573,-0.28568116,-1.2383057,77.0
831,1.8774853,-0.058275223,0.45333862,-0.6637573,-0.28568116,-1.2383057,77.0
832,1.8774853,-0.058275223,0.45333862,-0.8527954,-0.32816163,-1.5059327,77.0
833,1.7548695,0.016710281,0.75627136,-0.8527954,-0.32816163,-1.5059327,77.0
834,1.7548695,0.016710281,0.75627136,-0.8995239,-0.33878174,-1.7034668,77.0
835,0.61930084,0.09044266,1.1239014,-0.8995239,-0.33878174,-1.7034668,77.0
836,0.61930084,0.09044266,1.1239014,-0.64995116,-0.41949463,-1.6832886,77.0
837,-1.1418037,0.24149513,1.0046234,-0.64995116,-0.41949463,-1.6832886,77.0
838,-1.1418037,0.24149513,1.0046234,-0.16992188,-0.3164795,-1.5208008,77.0
839,-2.2216587,0.52251816,0.14509583,-0.16992188,-0.3164795,-1.5208008,77.0
840,-2.2216587,0.52251816,0.14509583,0.19328614,-0.118945315,-1.2935303,77.0
841,-1.6600056,0.82100487,-0.88653564,0.19328614,-0.118945315,-1.2935303,77.0
842,-1.6600056,0.82100487,-0.88653564,0.24001466,-0.04248047,-1.2287476,77.0
843,-0.24715805,1.0035686,-1.3495789,0.24001466,-0.04248047,-1.2287476,77.0
844,-0.24715805,1.0035686,-1.3495789,-0.12956543,0.083898924,-1.269104,77.0
845,0.7027855,0.9684315,-1.0874786,-0.12956543,0.083898924,-1.269104,77.0
846,0.7027855,0.9684315,-1.0874786,-0.7688965,0.22939454,-1.2436157,77.0
847,0.59939766,0.7560921,-0.5290222,-0.7688965,0.22939454,-1.2436157,77.0
848,0.59939766,0.7560921,-0.5290222,-1.3094605,0.3175415,-1.1002442,77.0
849,-0.27294922,0.4998207,-0.13795471,-1.3094605,0.3175415,-1.1002442,77.0
850,-0.27294922,0.4998207,-0.13795471,-1.4528321,0.29099122,-0.87403566,77.0
851,-1.2042236,0.31982613,-0.06391907,-1.4528321,0.29099122,-0.87403566,77.0
852,-1.2042236,0.31982613,-0.06391907,-1.3381348,0.2081543,-0.59472656,77.0
853,-1.7611332,0.2107315,-0.13154602,-1.3381348,0.2081543,-0.59472656,77.0
854,-1.7611332,0.2107315,-0.13154602,-1.0906861,0.12531738,-0.35471192,77.0
855,-1.9650707,0.122125626,-0.14883423,-1.0906861,0.12531738,-0.35471192,77.0
856,-1.9650707,0.122125626,-0.14883423,-0.7805786,0.052038576,-0.16673584,77.0
857,-2.005333,0.058185577,-0.1277008,-0.7805786,0.052038576,-0.16673584,77.0
858,-2.005333,0.058185577,-0.1277008,-0.44073486,-0.021240234,-0.022302246,77.0
859,-1.9570122,0.07375908,-0.17602539,-0.44073486,-0.021240234,-0.022302246,77.0
860,-1.9570122,0.07375908,-0.17602539,-0.1539917,-0.10407715,0.07327881,77.0
861,-1.7743874,0.16758919,-0.2922516,-0.1539917,-0.10407715,0.07327881,77.0
862,-1.7743874,0.16758919,-0.2922516,0.06690674,-0.20709229,0.10513916,77.0
863,-1.4410801,0.24718094,-0.35855103,0.06690674,-0.20709229,0.10513916,77.0
864,-1.4410801,0.24718094,-0.35855103,0.23151855,-0.32285157,0.07434082,77.0
865,-1.0224438,0.2775917,-0.24909973,0.23151855,-0.32285157,0.07434082,77.0
866,-1.0224438,0.2775917,-0.24909973,0.3430298,-0.41843262,0.004248047,77.0
867,-0.58937836,0.3014183,0.0071258545,0.3430298,-0.41843262,0.004248047,77.0
868,-0.58937836,0.3014183,0.0071258545,0.28568116,-0.4354248,-0.09770508,77.0
869,-0.23117065,0.24884796,0.17359924,0.28568116,-0.4354248,-0.09770508,77.0
870,-0.23117065,0.24884796,0.17359924,0.22089843,-0.4428589,-0.20178223,77.0
871,-0.026453018,0.059991837,0.1552887,0.22089843,-0.4428589,-0.20178223,77.0
872,-0.026453018,0.059991837,0.1552887,0.38869628,-0.5256958,-0.2347046,77.0
873,0.10288429,-0.03469658,0.20762634,0.38869628,-0.5256958,-0.2347046,77.0
874,0.10288429,-0.03469658,0.20762634,0.632959,-0.5809204,-0.21134034,77.0
875,0.3310871,0.16672516,0.493515,0.632959,-0.5809204,-0.21134034,77.0
876,0.3310871,0.16672516,0.493515,0.6796875,-0.5331299,-0.1731079,77.0
877,0.79398346,0.39901733,0.7432709,0.6796875,-0.5331299,-0.1731079,77.0
878,0.79398346,0.39901733,0.7432709,0.5787964,-0.4800293,-0.09451904,77.0
879,1.5532284,0.37778473,0.80397034,0.5787964,-0.4800293,-0.09451904,77.0
880,1.5532284,0.37778473,0.80397034,0.6754395,-0.50020754,0.022302246,77.0
881,2.4887505,0.31111526,0.8940277,0.6754395,-0.50020754,0.022302246,77.0
882,2.4887505,0.31111526,0.8940277,0.8931519,-0.53737795,0.19222413,77.0
883,2.9178925,0.48088646,1.0104218,0.8931519,-0.53737795,0.19222413,77.0
884,2.9178925,0.48088646,1.0104218,1.0683838,-0.42799073,0.24851075,77.0
885,2.325367,0.8477707,0.97299194,1.0683838,-0.42799073,0.24851075,77.0
886,2.325367,0.8477707,0.97299194,0.5533081,-0.0998291,0.3525879,77.0
887,1.3296299,0.9224663,0.7578125,0.5533081,-0.0998291,0.3525879,77.0
888,1.3296299,0.9224663,0.7578125,-0.2803711,0.20072022,0.44604492,77.0
889,0.40996933,0.3697586,0.34950256,-0.2803711,0.20072022,0.44604492,77.0
890,0.40996933,0.3697586,0.34950256,-0.33028564,0.18797608,0.3717041,77.0
891,-0.407547,-0.4339161,-0.18226624,-0.33028564,0.18797608,0.3717041,77.0
892,-0.407547,-0.4339161,-0.18226624,-0.060534667,0.11257324,0.33134767,77.0
893,-0.73163986,-1.0489883,-0.7188721,-0.060534667,0.11257324,0.33134767,77.0
894,-0.73163986,-1.0489883,-0.7188721,0.5511841,-0.004248047,0.32072756,77.0
895,-0.4829445,-1.2816582,-1.174057,0.5511841,-0.004248047,0.32072756,77.0
896,-0.4829445,-1.2816582,-1.174057,1.4974365,-0.0637207,0.21134034,77.0
897,-0.4829445,-1.2816582,-1.174057,1.4974365,-0.0637207,0.21134034,79.0
898,-0.108242035,-1.0714321,-1.5788422,1.4974365,-0.0637207,0.21134034,79.0
899,-0.108242035,-1.0714321,-1.5788422,2.069861,0.033984374,0.12956543,79.0
900,0.260355,-0.5706711,-2.0173798,2.069861,0.033984374,0.12956543,79.0
901,0.260355,-0.5706711,-2.0173798,2.2812011,0.17629395,0.107263185,79.0
902,0.7654991,-0.19607544,-2.307846,2.2812011,0.17629395,0.107263185,79.0
903,0.7654991,-0.19607544,-2.307846,2.342798,0.23789063,0.08814698,79.0
904,1.1270123,-0.08585358,-2.2033844,2.342798,0.23789063,0.08814698,79.0
905,1.1270123,-0.08585358,-2.2033844,2.1378295,0.23682861,0.17416993,79.0
906,1.080761,-0.081157684,-1.8729858,2.1378295,0.23682861,0.17416993,79.0
907,1.080761,-0.081157684,-1.8729858,1.8659546,0.1985962,0.31860352,79.0
908,0.6967735,-0.13018608,-1.5669708,1.8659546,0.1985962,0.31860352,79.0
909,0.6967735,-0.13018608,-1.5669708,1.4857544,0.21877442,0.4619751,79.0
910,0.11084938,-0.28404236,-1.3269196,1.4857544,0.21877442,0.4619751,79.0
911,0.11084938,-0.28404236,-1.3269196,1.2223755,0.26656494,0.68074954,79.0
912,-0.60209274,-0.49453163,-1.1220703,1.2223755,0.26656494,0.68074954,79.0
913,-0.60209274,-0.49453163,-1.1220703,1.0662597,0.35683593,0.86978763,79.0
914,-1.2644882,-0.6056709,-0.93800354,1.0662597,0.35683593,0.86978763,79.0
915,-1.2644882,-0.6056709,-0.93800354,0.90908206,0.43861085,1.0651978,79.0
916,-1.5514336,-0.60474014,-0.8199005,0.90908206,0.43861085,1.0651978,79.0
917,-1.5514336,-0.60474014,-0.8199005,0.8485474,0.47578126,1.2138795,79.0
918,-1.402853,-0.55010223,-0.76474,0.8485474,0.47578126,1.2138795,79.0
919,-1.402853,-0.55010223,-0.76474,0.80819094,0.50233155,1.3009644,79.0
920,-0.9794235,-0.5236149,-0.6683502,0.80819094,0.50233155,1.3009644,79.0
921,-0.9794235,-0.5236149,-0.6683502,0.70942384,0.5320679,1.3307008,79.0
922,-0.4892025,-0.5836983,-0.5033264,0.70942384,0.5320679,1.3307008,79.0
923,-0.4892025,-0.5836983,-0.5033264,0.57454836,0.5543701,1.3137085,79.0
924,-0.067546844,-0.686306,-0.3023529,0.57454836,0.5543701,1.3137085,79.0
925,-0.067546844,-0.686306,-0.3023529,0.42692873,0.54693604,1.2510499,79.0
926,0.23182678,-0.759737,-0.13275146,0.42692873,0.54693604,1.2510499,79.0
927,0.23182678,-0.759737,-0.13275146,0.28568116,0.50445557,1.1490967,79.0
928,0.36318398,-0.79779243,-0.0027770996,0.28568116,0.50445557,1.1490967,79.0
929,0.36318398,-0.79779243,-0.0027770996,0.16992188,0.4354248,1.0184692,79.0
930,0.31479073,-0.8101082,0.09941101,0.16992188,0.4354248,1.0184692,79.0
931,0.31479073,-0.8101082,0.09941101,0.08814698,0.36320803,0.88359374,79.0
932,0.17428207,-0.7962551,0.1816101,0.08814698,0.36320803,0.88359374,79.0
933,0.17428207,-0.7962551,0.1816101,0.029736329,0.29417726,0.7604004,79.0
934,0.03432274,-0.7254677,0.22665405,0.029736329,0.29417726,0.7604004,79.0
935,0.03432274,-0.7254677,0.22665405,-0.0031860352,0.2177124,0.6510132,79.0
936,-0.06937981,-0.59402275,0.20812988,-0.0031860352,0.2177124,0.6510132,79.0
937,-0.06937981,-0.59402275,0.20812988,-0.0053100586,0.1274414,0.56817627,79.0
938,-0.0019264221,-0.46551323,0.16191101,-0.0053100586,0.1274414,0.56817627,79.0
939,-0.0019264221,-0.46551323,0.16191101,-0.0063720704,0.014868164,0.48427734,79.0
940,0.3930626,-0.39217377,0.17547607,-0.0063720704,0.014868164,0.48427734,79.0
941,0.3930626,-0.39217377,0.17547607,-0.010620117,-0.10513916,0.362146,79.0
942,1.0191994,-0.32152748,0.31147766,-0.010620117,-0.10513916,0.362146,79.0
943,1.0191994,-0.32152748,0.31147766,-0.1359375,-0.16673584,0.18479005,79.0
944,1.4358559,-0.17929268,0.50016785,-0.1359375,-0.16673584,0.18479005,79.0
945,1.4358559,-0.17929268,0.50016785,-0.2793091,-0.23045655,0.0053100586,79.0
946,1.5005894,0.058214188,0.58288574,-0.2793091,-0.23045655,0.0053100586,79.0
947,1.5005894,0.058214188,0.58288574,-0.46622315,-0.31966552,-0.18054199,79.0
948,1.3450394,0.20401764,0.49508667,-0.46622315,-0.31966552,-0.18054199,79.0
949,1.3450394,0.20401764,0.49508667,-0.54587406,-0.38338622,-0.29311523,79.0
950,1.710968,0.4749813,0.6642761,-0.54587406,-0.38338622,-0.29311523,79.0
951,1.710968,0.4749813,0.6642761,-0.71791995,-0.5171997,-0.6616333,79.0
952,1.5623417,0.568058,0.6750183,-0.71791995,-0.5171997,-0.6616333,79.0
953,1.5623417,0.568058,0.6750183,-0.82836914,-0.5235718,-0.7678345,79.0
954,0.6807575,0.79449844,1.0621033,-0.82836914,-0.5235718,-0.7678345,79.0
955,0.6807575,0.79449844,1.0621033,-0.92926025,-0.7720825,-0.9685547,79.0
956,-0.32704926,0.824625,0.8896332,-0.92926025,-0.7720825,-0.9685547,79.0
957,-0.32704926,0.824625,0.8896332,-0.7189819,-0.87403566,-0.9770508,79.0
958,-2.1634102,0.5946369,0.8158722,-0.7189819,-0.87403566,-0.9770508,79.0
959,-2.1634102,0.5946369,0.8158722,0.21240234,-0.8230591,-0.9876709,79.0
960,-1.5774689,0.44622993,0.5200653,0.21240234,-0.8230591,-0.9876709,79.0
961,-1.5774689,0.44622993,0.5200653,0.46728516,-0.8358032,-1.0736939,79.0
962,0.73703575,0.04345894,0.06323242,0.46728516,-0.8358032,-1.0736939,79.0
963,0.73703575,0.04345894,0.06323242,0.44710693,-0.62977296,-1.4783204,79.0
964,1.039177,0.12965202,-0.19755554,0.44710693,-0.62977296,-1.4783204,79.0
965,1.039177,0.12965202,-0.19755554,0.22727051,-0.5543701,-1.6046997,79.0
966,0.7911186,0.0025863647,-0.17214966,0.22727051,-0.5543701,-1.6046997,79.0
967,0.7911186,0.0025863647,-0.17214966,0.06159668,-0.28780517,-1.634436,79.0
968,0.042390823,0.18710327,-0.038101196,0.06159668,-0.28780517,-1.634436,79.0
969,0.042390823,0.18710327,-0.038101196,0.078588866,-0.26868898,-1.5993897,79.0
970,-1.7515488,0.55423546,-0.13386536,0.078588866,-0.26868898,-1.5993897,79.0
971,-1.7515488,0.55423546,-0.13386536,0.20603028,-0.271875,-1.4114136,79.0
972,-1.9025574,0.6620045,-0.3529358,0.20603028,-0.271875,-1.4114136,79.0
973,-1.9025574,0.6620045,-0.3529358,0.23895264,-0.27718505,-1.356189,79.0
974,-2.2925186,0.45241928,-0.9720154,0.23895264,-0.27718505,-1.356189,79.0
975,-2.2925186,0.45241928,-0.9720154,0.4364868,-0.30054933,-1.1586548,79.0
976,-2.0828915,0.31838036,-0.9937744,0.4364868,-0.30054933,-1.1586548,79.0
977,-2.0828915,0.31838036,-0.9937744,0.52675784,-0.3175415,-1.084314,79.0
978,-2.0518227,0.122306824,-1.0383301,0.52675784,-0.3175415,-1.084314,79.0
979,-2.0518227,0.122306824,-1.0383301,0.69349366,-0.36320803,-0.95793456,79.0
980,-1.9551659,0.1604805,-1.0067749,0.69349366,-0.36320803,-0.95793456,79.0
981,-1.9551659,0.1604805,-1.0067749,0.7943848,-0.40144044,-0.8708496,79.0
982,-1.7064056,0.20387268,-0.93481445,0.7943848,-0.40144044,-0.8708496,79.0
983,-1.7064056,0.20387268,-0.93481445,0.88996583,-0.42374268,-0.7975708,79.0
984,-1.3564091,0.11142731,-0.8296356,0.88996583,-0.42374268,-0.7975708,79.0
985,-1.3564091,0.11142731,-0.8296356,1.0407715,-0.4343628,-0.7051758,79.0
986,-0.98965645,-0.047039032,-0.72169495,1.0407715,-0.4343628,-0.7051758,79.0
987,-0.98965645,-0.047039032,-0.72169495,1.2977784,-0.44073486,-0.53100586,79.0
988,-0.79603386,-0.08243179,-0.7189026,1.2977784,-0.44073486,-0.53100586,79.0
989,-0.79603386,-0.08243179,-0.7189026,1.3678712,-0.4343628,-0.4630371,79.0
990,-0.37814713,-0.120449066,-0.69462585,1.3678712,-0.4343628,-0.4630371,79.0
991,-0.37814713,-0.120449066,-0.69462585,1.6248779,-0.39188233,-0.21134034,79.0
992,-0.19419289,-0.17004013,-0.71276855,1.6248779,-0.39188233,-0.21134034,79.0
993,-0.19419289,-0.17004013,-0.71276855,1.6471802,-0.3536499,-0.11151123,79.0
994,0.084257126,-0.11064148,-0.6961365,1.6471802,-0.3536499,-0.11151123,79.0
995,0.084257126,-0.11064148,-0.6961365,1.5728394,-0.25700685,0.098767094,79.0
996,0.22297287,0.016210556,-0.68963623,1.5728394,-0.25700685,0.098767094,79.0
997,0.22297287,0.016210556,-0.68963623,1.3073364,-0.1359375,0.3154175,79.0
998,0.4018898,0.076286316,-0.7090912,1.3073364,-0.1359375,0.3154175,79.0
999,0.4018898,0.076286316,-0.7090912,0.998291,-0.04248047,0.49383545,79.0
1000,0.9216938,-0.12162399,-0.6709442,0.998291,-0.04248047,0.49383545,79.0
1001,0.9216938,-0.12162399,-0.6709442,0.8846558,0.007434082,0.63826907,79.0
1002,1.7302876,-0.51908875,-0.5077362,0.8846558,0.007434082,0.63826907,79.0
1003,1.7302876,-0.51908875,-0.5077362,0.8846558,0.007434082,0.63826907,79.0
1004,1.7302876,-0.51908875,-0.5077362,0.8612915,0.07540283,0.7869507,79.0
1005,2.5599136,-0.6534538,0.015838623,0.8612915,0.07540283,0.7869507,79.0
1006,2.5599136,-0.6534538,0.015838623,0.76358646,0.31435546,1.0375855,79.0
1007,2.962078,-0.11313057,0.5613251,0.76358646,0.31435546,1.0375855,79.0
1008,2.962078,-0.11313057,0.5613251,-0.06478272,0.58410645,1.3052124,79.0
1009,2.7589455,0.41168022,0.51490784,-0.06478272,0.58410645,1.3052124,79.0
1010,2.7589455,0.41168022,0.51490784,-0.95581055,0.6977417,1.4846925,79.0
1011,2.3082676,0.021787643,0.22517395,-0.95581055,0.6977417,1.4846925,79.0
1012,2.3082676,0.021787643,0.22517395,-0.8400513,0.58304447,1.6450561,79.0
1013,1.939827,-0.7933979,0.31541443,-0.8400513,0.58304447,1.6450561,79.0
1014,1.939827,-0.7933979,0.31541443,-0.16354981,0.45666504,1.6854126,79.0
1015,1.4146786,-1.1532974,0.5172882,-0.16354981,0.45666504,1.6854126,79.0
1016,1.4146786,-1.1532974,0.5172882,0.45666504,0.48109132,1.6535523,79.0
1017,0.56664276,-0.9879322,0.35507202,0.45666504,0.48109132,1.6535523,79.0
1018,0.56664276,-0.9879322,0.35507202,0.7720825,0.60322267,1.5728394,79.0
1019,0.031463623,-0.75349236,-0.12760925,0.7720825,0.60322267,1.5728394,79.0
1020,0.031463623,-0.75349236,-0.12760925,1.0036011,0.5798584,1.5420411,79.0
1021,0.1239872,-0.76358604,-0.652359,1.0036011,0.5798584,1.5420411,79.0
1022,0.1239872,-0.76358604,-0.652359,1.264856,0.42905274,1.3848633,79.0
1023,0.4589424,-0.9933891,-0.8944092,1.264856,0.42905274,1.3848633,79.0
1024,0.4589424,-0.9933891,-0.8944092,1.2425537,0.33240968,1.2075074,79.0
1025,0.5029564,-1.3918056,-0.8041992,1.2425537,0.33240968,1.2075074,79.0
1026,0.5029564,-1.3918056,-0.8041992,1.6992188,0.16992188,1.1013062,79.0
1027,0.05555153,-1.6652641,-0.62286377,1.6992188,0.16992188,1.1013062,79.0
1028,0.05555153,-1.6652641,-0.62286377,1.7640015,0.16673584,1.0120972,79.0
1029,-0.66571426,-1.6632671,-0.5640869,1.7640015,0.16673584,1.0120972,79.0
1030,-0.66571426,-1.6632671,-0.5640869,2.0422485,0.12531738,1.0970582,79.0
1031,-1.3671894,-1.3921127,-0.6097107,2.0422485,0.12531738,1.0970582,79.0
1032,-1.3671894,-1.3921127,-0.6097107,2.0741088,0.15080567,1.2372437,79.0
1033,-1.8201065,-1.0319405,-0.6217804,2.0741088,0.15080567,1.2372437,79.0
1034,-1.8201065,-1.0319405,-0.6217804,1.9859619,0.18054199,1.3147706,79.0
1035,-1.9694653,-0.8938618,-0.5159149,1.9859619,0.18054199,1.3147706,79.0
1036,-1.9694653,-0.8938618,-0.5159149,1.8001099,0.24744873,1.3891114,79.0
1037,-1.8868275,-0.99111557,-0.35881042,1.8001099,0.24744873,1.3891114,79.0
1038,-1.8868275,-0.99111557,-0.35881042,1.5887696,0.32816163,1.4230957,79.0
1039,-1.6517353,-1.1163177,-0.24305725,1.5887696,0.32816163,1.4230957,79.0
1040,-1.6517353,-1.1163177,-0.24305725,1.3912354,0.4088745,1.3976074,79.0
1041,-1.3668709,-1.145813,-0.1622467,1.3912354,0.4088745,1.3976074,79.0
1042,-1.3668709,-1.145813,-0.1622467,1.1958252,0.46516114,1.3222046,79.0
1043,-1.1293125,-1.1118526,-0.06645203,1.1958252,0.46516114,1.3222046,79.0
1044,-1.1293125,-1.1118526,-0.06645203,0.95793456,0.5033936,1.2202514,79.0
1045,-1.1293125,-1.1118526,-0.06645203,0.6903076,0.5076416,1.0875,79.0
1046,-0.928669,-1.0680962,0.06376648,0.6903076,0.5076416,1.0875,79.0
1047,-0.6463051,-1.4760952,0.40846252,0.6903076,0.5076416,1.0875,79.0
1048,-0.6463051,-1.4760952,0.40846252,0.40462646,0.4970215,0.93563235,79.0
1049,-0.6463051,-1.4760952,0.40846252,0.20709229,0.45772704,0.77739257,79.0
1050,-0.6463051,-1.4760952,0.40846252,0.078588866,0.39188233,0.6180908,79.0
1051,-0.51704407,-1.1808758,0.32676697,0.078588866,0.39188233,0.6180908,79.0
1052,0.30698204,-1.322093,0.40486145,0.078588866,0.39188233,0.6180908,79.0
1053,0.30698204,-1.322093,0.40486145,-0.015930176,0.30054933,0.48109132,79.0
1054,0.30698204,-1.322093,0.40486145,-0.04460449,0.1709839,0.3419678,79.0
1055,0.30698204,-1.322093,0.40486145,-0.10301514,0.029736329,0.18797608,79.0
1056,0.9461098,-1.0490198,0.39413452,-0.10301514,0.029736329,0.18797608,79.0
1057,0.9461098,-1.0490198,0.39413452,-0.2782471,-0.11151123,0.025488282,79.0
1058,1.4271774,-0.76577854,0.4118805,-0.2782471,-0.11151123,0.025488282,79.0
1059,1.4271774,-0.76577854,0.4118805,-0.51082766,-0.24638672,-0.1263794,79.0
1060,1.4471989,-0.4644785,0.47279358,-0.51082766,-0.24638672,-0.1263794,79.0
1061,1.4471989,-0.4644785,0.47279358,-0.77526855,-0.37701416,-0.24532472,79.0
1062,1.2528763,-0.26930046,0.46437073,-0.77526855,-0.37701416,-0.24532472,79.0
1063,1.2528763,-0.26930046,0.46437073,-0.8708496,-0.5150757,-0.3695801,79.0
1064,1.4623966,-0.2296009,0.3607025,-0.8708496,-0.5150757,-0.3695801,79.0
1065,1.4623966,-0.2296009,0.3607025,-0.8400513,-0.63720703,-0.49277344,79.0
1066,1.9269619,-0.088819504,0.30851746,-0.8400513,-0.63720703,-0.49277344,79.0
1067,1.9269619,-0.088819504,0.30851746,-0.8931519,-0.814563,-0.6988037,79.0
1068,1.6570721,0.19897652,0.35040283,-0.8931519,-0.814563,-0.6988037,79.0
1069,1.6570721,0.19897652,0.35040283,-0.9388184,-1.0014771,-0.9653687,79.0
1070,0.5074806,0.43579292,0.44282532,-0.9388184,-1.0014771,-0.9653687,79.0
1071,0.5074806,0.43579292,0.44282532,-0.86766356,-1.1119263,-1.2372437,79.0
1072,-0.36532974,0.5642595,0.57974243,-0.86766356,-1.1119263,-1.2372437,79.0
1073,-0.36532974,0.5642595,0.57974243,-0.7869507,-1.1129884,-1.449646,79.0
1074,-0.3293972,0.5449867,0.6644287,-0.7869507,-1.1129884,-1.449646,79.0
1075,-0.3293972,0.5449867,0.6644287,-0.47896728,-1.1692749,-1.6238159,79.0
1076,0.15288925,0.49009132,0.69189453,-0.47896728,-1.1692749,-1.6238159,79.0
1077,0.15288925,0.49009132,0.69189453,-0.14868164,-1.173523,-1.7395753,79.0
1078,0.64403915,0.6092119,0.77822876,-0.14868164,-1.173523,-1.7395753,79.0
1079,0.64403915,0.6092119,0.77822876,-0.12531738,-1.0354614,-1.8245362,79.0
1080,0.7275486,1.0169106,0.7348938,-0.12531738,-1.0354614,-1.8245362,79.0
1081,0.7275486,1.0169106,0.7348938,-0.5936646,-0.814563,-1.8521484,79.0
1082,0.24931145,1.4542885,0.43058777,-0.5936646,-0.814563,-1.8521484,79.0
1083,0.24931145,1.4542885,0.43058777,-1.0545777,-0.63614506,-1.8585205,79.0
1084,-0.4831562,1.444974,0.13179016,-1.0545777,-0.63614506,-1.8585205,79.0
1085,-0.4831562,1.444974,0.13179016,-1.2011353,-0.32922363,-1.7661256,79.0
1086,-1.3372345,1.0782318,-0.08451843,-1.2011353,-0.32922363,-1.7661256,79.0
1087,-1.3372345,1.0782318,-0.08451843,-1.0269654,-0.24107666,-1.6100098,79.0
1088,-2.1229477,0.9274044,-0.38638306,-1.0269654,-0.24107666,-1.6100098,79.0
1089,-2.1229477,0.9274044,-0.38638306,-0.93138427,-0.16673584,-1.4092896,79.0
1090,-2.563776,0.9851608,-0.7379761,-0.93138427,-0.16673584,-1.4092896,79.0
1091,-2.563776,0.9851608,-0.7379761,-0.7189819,-0.08602295,-1.1979493,79.0
1092,-2.6679268,0.9506645,-0.9822998,-0.7189819,-0.08602295,-1.1979493,79.0
1093,-2.6679268,0.9506645,-0.9822998,-0.43861085,-0.059472658,-0.9653687,79.0
1094,-2.512064,0.8399143,-1.068512,-0.43861085,-0.059472658,-0.9653687,79.0
1095,-2.512064,0.8399143,-1.068512,-0.17947999,-0.07327881,-0.7657105,79.0
1096,-2.1044025,0.8125801,-1.064682,-0.17947999,-0.07327881,-0.7657105,79.0
1097,-2.1044025,0.8125801,-1.064682,-0.07540283,-0.11363526,-0.6085327,79.0
1098,-1.5652599,0.83081436,-0.9803009,-0.07540283,-0.11363526,-0.6085327,79.0
1099,-1.5652599,0.83081436,-0.9803009,-0.025488282,-0.15611573,-0.48215333,79.0
1100,-0.973753,0.7460613,-0.7829895,-0.025488282,-0.15611573,-0.48215333,79.0
1101,-0.973753,0.7460613,-0.7829895,0.06903076,-0.16673584,-0.27293703,79.0
1102,-0.973753,0.7460613,-0.7829895,0.1901001,-0.19328614,0.0063720704,79.0
1103,-0.4144764,0.6067982,-0.5392761,0.1901001,-0.19328614,0.0063720704,79.0
1104,-0.044338226,0.48735428,-0.4637909,0.1901001,-0.19328614,0.0063720704,79.0
1105,-0.044338226,0.48735428,-0.4637909,0.29205322,-0.24851075,0.2516968,79.0
1106,0.102199554,0.35773087,-0.5262604,0.29205322,-0.24851075,0.2516968,79.0
1107,0.102199554,0.35773087,-0.5262604,0.36639404,-0.32603762,0.3695801,79.0
1108,0.18278503,0.14969826,-0.4692688,0.36639404,-0.32603762,0.3695801,79.0
1109,0.18278503,0.14969826,-0.4692688,0.43967286,-0.3355957,0.39613038,79.0
1110,0.18278503,0.14969826,-0.4692688,0.43967286,-0.3355957,0.39613038,80.0
1111,0.34454346,-0.08054733,-0.26290894,0.43967286,-0.3355957,0.39613038,80.0
1112,0.34454346,-0.08054733,-0.26290894,0.48321533,-0.2899292,0.35152587,80.0
1113,0.5995121,-0.23152733,-0.12019348,0.48321533,-0.2899292,0.35152587,80.0
1114,0.5995121,-0.23152733,-0.12019348,0.45560303,-0.22939454,0.26337892,80.0
1115,0.99308586,-0.3117466,-0.1546936,0.45560303,-0.22939454,0.26337892,80.0
1116,0.99308586,-0.3117466,-0.1546936,0.39294434,-0.18054199,0.115759276,80.0
1117,1.5538063,-0.3636055,-0.25102234,0.39294434,-0.18054199,0.115759276,80.0
1118,1.5538063,-0.3636055,-0.25102234,0.27399904,-0.13275146,-0.070092775,80.0
1119,2.0037994,-0.35708237,-0.2492218,0.27399904,-0.13275146,-0.070092775,80.0
1120,2.0037994,-0.35708237,-0.2492218,0.04460449,-0.0361084,-0.18585205,80.0
1121,2.0104008,-0.21847725,-0.16291809,0.04460449,-0.0361084,-0.18585205,80.0
1122,2.0104008,-0.21847725,-0.16291809,-0.27612305,0.0722168,-0.1901001,80.0
1123,1.6595421,-0.046876907,-0.09916687,-0.27612305,0.0722168,-0.1901001,80.0
1124,1.6595421,-0.046876907,-0.09916687,-0.5246338,0.07327881,-0.13381349,80.0
1125,1.1628761,-0.06815338,-0.006149292,-0.5246338,0.07327881,-0.13381349,80.0
1126,1.1628761,-0.06815338,-0.006149292,-0.42799073,-0.010620117,-0.06265869,80.0
1127,0.7345505,-0.31464195,0.22038269,-0.42799073,-0.010620117,-0.06265869,80.0
1128,0.7345505,-0.31464195,0.22038269,-0.13275146,-0.010620117,0.05522461,80.0
1129,0.4587345,-0.5426922,0.41929626,-0.13275146,-0.010620117,0.05522461,80.0
1130,0.4587345,-0.5426922,0.41929626,0.26550293,0.06690674,0.25063476,80.0
1131,0.15376854,-0.46428108,0.3027649,0.26550293,0.06690674,0.25063476,80.0
1132,0.15376854,-0.46428108,0.3027649,0.48427734,0.22727051,0.544812,80.0
1133,-0.02799797,-0.11489487,-0.16647339,0.48427734,0.22727051,0.544812,80.0
1134,-0.02799797,-0.11489487,-0.16647339,0.49277344,0.31860352,0.8963379,80.0
1135,0.13528061,0.1649208,-0.6271057,0.49277344,0.31860352,0.8963379,80.0
1136,0.13528061,0.1649208,-0.6271057,0.57454836,0.3069214,1.1182984,80.0
1137,0.43183327,0.10360336,-0.68141174,0.57454836,0.3069214,1.1182984,80.0
1138,0.43183327,0.10360336,-0.68141174,0.814563,0.2793091,1.2234375,80.0
1139,0.4512291,-0.23283958,-0.30197144,0.814563,0.2793091,1.2234375,80.0
1140,0.4512291,-0.23283958,-0.30197144,1.0492676,0.31435546,1.3147706,80.0
1141,0.099155426,-0.56853485,0.1043396,1.0492676,0.31435546,1.3147706,80.0
1142,0.099155426,-0.56853485,0.1043396,1.3445069,0.35577393,1.4039795,80.0
1143,-0.2051487,-0.74954224,0.23114014,1.3445069,0.35577393,1.4039795,80.0
1144,-0.2051487,-0.74954224,0.23114014,1.5877075,0.36851808,1.4294678,80.0
1145,-0.32782745,-0.7918453,0.13420105,1.5877075,0.36851808,1.4294678,80.0
1146,-0.32782745,-0.7918453,0.13420105,1.5993897,0.37807617,1.4220337,80.0
1147,-0.52986526,-0.768095,0.03791809,1.5993897,0.37807617,1.4220337,80.0
1148,-0.52986526,-0.768095,0.03791809,1.3296387,0.50020754,1.4825684,80.0
1149,-0.9230385,-0.8238754,0.01210022,1.3296387,0.50020754,1.4825684,80.0
1150,-0.9230385,-0.8238754,0.01210022,1.1044922,0.5479981,1.5006226,80.0
1151,-1.3677273,-0.97548294,-0.008056641,1.1044922,0.5479981,1.5006226,80.0
1152,-1.3677273,-0.97548294,-0.008056641,1.0343994,0.6064087,1.5632813,80.0
1153,-1.6194382,-1.061429,-0.08074951,1.0343994,0.6064087,1.5632813,80.0
1154,-1.6194382,-1.061429,-0.08074951,0.9781128,0.6754395,1.6365601,80.0
1155,-1.5822811,-1.0618267,-0.1322937,0.9781128,0.6754395,1.6365601,80.0
1156,-1.5822811,-1.0618267,-0.1322937,0.8581055,0.7476563,1.6418701,80.0
1157,-1.3650799,-1.006504,-0.091918945,0.8581055,0.7476563,1.6418701,80.0
1158,-1.3650799,-1.006504,-0.091918945,0.60322267,0.8336792,1.6386842,80.0
1159,-1.0686016,-0.97599125,0.024841309,0.60322267,0.8336792,1.6386842,80.0
1160,-1.0686016,-0.97599125,0.024841309,0.35895997,0.8772217,1.5717773,80.0
1161,-0.69119644,-1.008357,0.16374207,0.35895997,0.8772217,1.5717773,80.0
1162,-0.69119644,-1.008357,0.16374207,0.14868164,0.8931519,1.448584,80.0
1163,-0.26880264,-1.1076736,0.26013184,0.14868164,0.8931519,1.448584,80.0
1164,-0.26880264,-1.1076736,0.26013184,-0.007434082,0.8782837,1.2797241,80.0
1165,0.07161522,-1.1979923,0.29718018,-0.007434082,0.8782837,1.2797241,80.0
1166,0.07161522,-1.1979923,0.29718018,-0.11363526,0.8251831,1.09281,80.0
1167,0.21622849,-1.1868248,0.2793274,-0.11363526,0.8251831,1.09281,80.0
1168,0.21622849,-1.1868248,0.2793274,-0.21134034,0.7338501,0.9133301,80.0
1169,0.15306091,-1.0335655,0.23020935,-0.21134034,0.7338501,0.9133301,80.0
1170,0.15306091,-1.0335655,0.23020935,-0.32285157,0.6042847,0.73703617,80.0
1171,0.071777344,-0.8478117,0.17007446,-0.32285157,0.6042847,0.73703617,80.0
1172,0.071777344,-0.8478117,0.17007446,-0.40037844,0.41312256,0.544812,80.0
1173,0.20991135,-0.73321724,0.15026855,-0.40037844,0.41312256,0.544812,80.0
1174,0.20991135,-0.73321724,0.15026855,-0.4439209,0.16779785,0.31435546,80.0
1175,0.48464012,-0.6228657,0.22964478,-0.4439209,0.16779785,0.31435546,80.0
1176,0.48464012,-0.6228657,0.22964478,-0.6467652,-0.04885254,0.04141846,80.0
1177,0.5210991,-0.48480415,0.41793823,-0.6467652,-0.04885254,0.04141846,80.0
1178,0.5210991,-0.48480415,0.41793823,-0.78164065,-0.27399904,-0.28568116,80.0
1179,0.3554058,-0.4163952,0.62223816,-0.78164065,-0.27399904,-0.28568116,80.0
1180,0.3554058,-0.4163952,0.62223816,-0.71154785,-0.48321533,-0.64995116,80.0
1181,0.42819595,-0.34893703,0.67959595,-0.71154785,-0.48321533,-0.64995116,80.0
1182,0.42819595,-0.34893703,0.67959595,-0.65419924,-0.67225343,-1.0598878,80.0
1183,0.64912415,-0.17134953,0.5969391,-0.65419924,-0.67225343,-1.0598878,80.0
1184,0.64912415,-0.17134953,0.5969391,-0.59260255,-0.81031495,-1.4868164,80.0
1185,0.6116581,0.09514713,0.63931274,-0.59260255,-0.81031495,-1.4868164,80.0
1186,0.6116581,0.09514713,0.63931274,-0.63720703,-0.84748536,-1.8457764,80.0
1187,0.36458206,0.2889471,0.9167938,-0.63720703,-0.84748536,-1.8457764,80.0
1188,0.36458206,0.2889471,0.9167938,-0.31435546,-0.8814697,-2.0241945,80.0
1189,0.326931,0.39265633,1.1083832,-0.31435546,-0.8814697,-2.0241945,80.0
1190,0.326931,0.39265633,1.1083832,0.0010620117,-0.7954468,-2.1250856,80.0
1191,0.9767189,0.5215473,0.9737549,0.0010620117,-0.7954468,-2.1250856,80.0
1192,0.9767189,0.5215473,0.9737549,0.1274414,-0.6818115,-2.092163,80.0
1193,2.1701698,0.6904192,0.6650238,0.1274414,-0.6818115,-2.092163,80.0
1194,2.1701698,0.6904192,0.6650238,0.26444092,-0.5065796,-2.1410158,80.0
1195,3.0976467,0.8698654,0.44952393,0.26444092,-0.5065796,-2.1410158,80.0
1196,3.0976467,0.8698654,0.44952393,0.1263794,-0.28780517,-2.0656128,80.0
1197,2.9430714,1.131134,0.5146637,0.1263794,-0.28780517,-2.0656128,80.0
1198,2.9430714,1.131134,0.5146637,-0.35789797,-0.08814698,-1.8011719,80.0
1199,1.5217056,1.4962645,0.49499512,-0.35789797,-0.08814698,-1.8011719,80.0
1200,1.5217056,1.4962645,0.49499512,-0.74447024,0.06796875,-1.4347779,80.0
1201,-0.42992592,1.6994038,-0.06529236,-0.74447024,0.06796875,-1.4347779,80.0
1202,-0.42992592,1.6994038,-0.06529236,-0.8358032,0.124255374,-1.0450195,80.0
1203,-2.0059776,1.6026993,-0.94421387,-0.8358032,0.124255374,-1.0450195,80.0
1204,-2.0059776,1.6026993,-0.94421387,-0.7657105,0.124255374,-0.6956177,80.0
1205,-2.7964554,1.3136044,-1.572113,-0.7657105,0.124255374,-0.6956177,80.0
1206,-2.7964554,1.3136044,-1.572113,-0.7688965,0.13699952,-0.41737062,80.0
1207,-2.9127998,0.9835863,-1.6798706,-0.7688965,0.13699952,-0.41737062,80.0
1208,-2.9127998,0.9835863,-1.6798706,-0.7604004,0.13806152,-0.21240234,80.0
1209,-2.685892,0.718277,-1.4056702,-0.7604004,0.13806152,-0.21240234,80.0
1210,-2.685892,0.718277,-1.4056702,-0.7827026,0.13806152,-0.06796875,80.0
1211,-2.3436108,0.5284672,-1.0527191,-0.7827026,0.13806152,-0.06796875,80.0
1212,-2.3436108,0.5284672,-1.0527191,-0.68499756,0.07540283,-0.0031860352,80.0
1213,-2.3436108,0.5284672,-1.0527191,-0.68499756,0.07540283,-0.0031860352,81.0
1214,-1.9726067,0.393795,-0.8020325,-0.68499756,0.07540283,-0.0031860352,81.0
1215,-1.9726067,0.393795,-0.8020325,-0.61065674,-0.010620117,-0.04248047,81.0
1216,-1.6730919,0.29242897,-0.65864563,-0.61065674,-0.010620117,-0.04248047,81.0
1217,-1.6730919,0.29242897,-0.65864563,-0.42161867,-0.16779785,-0.15505372,81.0
1218,-1.4631195,0.18192863,-0.5612488,-0.42161867,-0.16779785,-0.15505372,81.0
1219,-1.4631195,0.18192863,-0.5612488,-0.1539917,-0.33240968,-0.33665773,81.0
1220,-1.2376099,0.074352264,-0.48588562,-0.1539917,-0.33240968,-0.33665773,81.0
1221,-1.2376099,0.074352264,-0.48588562,0.15611573,-0.4959595,-0.53950197,81.0
1222,-0.9264164,-0.007461548,-0.42630005,0.15611573,-0.4959595,-0.53950197,81.0
1223,-0.9264164,-0.007461548,-0.42630005,0.48746338,-0.63826907,-0.7412842,81.0
1224,-0.4522419,0.007470131,-0.36654663,0.48746338,-0.63826907,-0.7412842,81.0
1225,-0.4522419,0.007470131,-0.36654663,0.68712157,-0.73597413,-0.91014403,81.0
1226,0.21115494,0.066547394,-0.29943848,0.68712157,-0.73597413,-0.91014403,81.0
1227,0.21115494,0.066547394,-0.29943848,0.82730716,-0.8219971,-1.0290893,81.0
1228,0.96201515,0.031558037,-0.19003296,0.82730716,-0.8219971,-1.0290893,81.0
1229,0.96201515,0.031558037,-0.19003296,1.0216553,-0.88359374,-1.0567017,81.0
1230,1.786068,-0.09345436,0.034332275,1.0216553,-0.88359374,-1.0567017,81.0
1231,1.786068,-0.09345436,0.034332275,1.2945923,-0.8623535,-0.97492677,81.0
1232,2.6574554,-0.19773674,0.4098816,1.2945923,-0.8623535,-0.97492677,81.0
1233,2.6574554,-0.19773674,0.4098816,1.5590333,-0.75296634,-0.7126099,81.0
1234,3.2617798,-0.060777664,0.78738403,1.5590333,-0.75296634,-0.7126099,81.0
1235,3.2617798,-0.060777664,0.78738403,1.4018555,-0.6064087,-0.3536499,81.0
1236,3.0910397,0.48466587,0.88375854,1.4018555,-0.6064087,-0.3536499,81.0
1237,3.0910397,0.48466587,0.88375854,0.62977296,-0.3462158,0.04885254,81.0
1238,2.1697063,1.1056156,0.7463989,0.62977296,-0.3462158,0.04885254,81.0
1239,2.1697063,1.1056156,0.7463989,-0.3440918,-0.06584473,0.3993164,81.0
1240,1.1442871,1.2764473,0.6031494,-0.3440918,-0.06584473,0.3993164,81.0
1241,1.1442871,1.2764473,0.6031494,-0.98129886,-0.012744141,0.6244629,81.0
1242,0.41903114,0.74786663,0.47001648,-0.98129886,-0.012744141,0.6244629,81.0
1243,0.41903114,0.74786663,0.47001648,-1.0981201,0.057348635,0.74022216,81.0
1244,0.035150528,-0.13520241,0.36941528,-1.0981201,0.057348635,0.74022216,81.0
1245,0.035150528,-0.13520241,0.36941528,-0.9133301,0.15080567,0.80606693,81.0
1246,-0.23705292,-0.6950884,0.27262878,-0.9133301,0.15080567,0.80606693,81.0
1247,-0.23705292,-0.6950884,0.27262878,-0.6680054,0.32816163,0.85385746,81.0
1248,-0.53334427,-0.6763582,0.054733276,-0.6680054,0.32816163,0.85385746,81.0
1249,-0.53334427,-0.6763582,0.054733276,-0.19434814,0.4354248,0.91014403,81.0
1250,-0.5061321,-0.23686218,-0.25738525,-0.19434814,0.4354248,0.91014403,81.0
1251,-0.5061321,-0.23686218,-0.25738525,0.13806152,0.49383545,0.93350834,81.0
1252,0.0053977966,0.23151779,-0.4761963,0.13806152,0.49383545,0.93350834,81.0
1253,0.0053977966,0.23151779,-0.4761963,0.4725952,0.44604492,0.88040775,81.0
1254,0.7674179,0.310544,-0.46177673,0.4725952,0.44604492,0.88040775,81.0
1255,0.7674179,0.310544,-0.46177673,0.7975708,0.40250245,0.7072998,81.0
1256,1.197895,-0.049782753,-0.23484802,0.7975708,0.40250245,0.7072998,81.0
1257,1.197895,-0.049782753,-0.23484802,1.0715698,0.42268068,0.632959,81.0
1258,0.8041649,-0.43996048,-0.0068206787,1.0715698,0.42268068,0.632959,81.0
1259,0.8041649,-0.43996048,-0.0068206787,1.3243287,0.41737062,0.62977296,81.0
1260,-0.29650116,-0.46719074,-0.011016846,1.3243287,0.41737062,0.62977296,81.0
1261,-0.29650116,-0.46719074,-0.011016846,1.3317627,0.46622315,0.62764895,81.0
1262,-1.5170708,-0.28672886,-0.13768005,1.3317627,0.46622315,0.62764895,81.0
1263,-1.5170708,-0.28672886,-0.13768005,1.3052124,0.4619751,0.7869507,81.0
1264,-2.2440395,-0.24913406,-0.27085876,1.3052124,0.4619751,0.7869507,81.0
1265,-2.2440395,-0.24913406,-0.27085876,0.69349366,0.54906005,0.7423462,81.0
1266,-2.512968,-0.5073271,-0.3896942,0.69349366,0.54906005,0.7423462,81.0
1267,-2.512968,-0.5073271,-0.3896942,0.7072998,0.5809204,0.9653687,81.0
1268,-2.4529896,-0.8260641,-0.44685364,0.7072998,0.5809204,0.9653687,81.0
1269,-2.4529896,-0.8260641,-0.44685364,0.68287355,0.632959,1.0938721,81.0
1270,-2.061903,-1.0216789,-0.467453,0.68287355,0.632959,1.0938721,81.0
1271,-2.061903,-1.0216789,-0.467453,0.7051758,0.6786255,1.1565307,81.0
1272,-1.5170879,-1.0452976,-0.42063904,0.7051758,0.6786255,1.1565307,81.0
1273,-1.5170879,-1.0452976,-0.42063904,0.6680054,0.74022216,1.1437867,81.0
1274,-0.896019,-0.9810991,-0.2664032,0.6680054,0.74022216,1.1437867,81.0
1275,-0.896019,-0.9810991,-0.2664032,0.5214478,0.8050049,1.0726318,81.0
1276,-0.896019,-0.9810991,-0.2664032,0.30373535,0.84323734,0.9483765,81.0
1277,-0.29607582,-0.91355324,-0.049331665,0.30373535,0.84323734,0.9483765,81.0
1278,0.9266529,-1.1721754,0.1806488,0.30373535,0.84323734,0.9483765,81.0
1279,0.9266529,-1.1721754,0.1806488,0.04460449,0.8496094,0.77739257,81.0
1280,0.9266529,-1.1721754,0.1806488,-0.24001466,0.81668705,0.5915405,81.0
1281,0.9266529,-1.1721754,0.1806488,-0.4959595,0.7455322,0.4163086,81.0
1282,0.75320053,-1.0519981,0.08003235,-0.4959595,0.7455322,0.4163086,81.0
1283,0.75320053,-1.0519981,0.08003235,-0.6690674,0.62340087,0.28461915,81.0
1284,0.5220432,-0.90728474,-0.006362915,-0.6690674,0.62340087,0.28461915,81.0
1285,0.5220432,-0.90728474,-0.006362915,-0.7476563,0.45878908,0.16992188,81.0
1286,0.5940876,-0.8203354,-3.2043457E-4,-0.7476563,0.45878908,0.16992188,81.0
1287,0.5940876,-0.8203354,-3.2043457E-4,-0.68499756,0.24532472,0.04991455,81.0
1288,1.01437,-0.76242065,0.12373352,-0.68499756,0.24532472,0.04991455,81.0
1289,1.01437,-0.76242065,0.12373352,-0.5543701,0.015930176,-0.07327881,81.0
1290,1.4553928,-0.51686954,0.28431702,-0.5543701,0.015930176,-0.07327881,81.0
1291,1.4553928,-0.51686954,0.28431702,-0.6403931,-0.13381349,-0.17416993,81.0
1292,1.5592976,-0.05965042,0.3773651,-0.6403931,-0.13381349,-0.17416993,81.0
1293,1.5592976,-0.05965042,0.3773651,-0.8814697,-0.26762697,-0.2899292,81.0
1294,1.5772114,0.3432579,0.33540344,-0.8814697,-0.26762697,-0.2899292,81.0
1295,1.5772114,0.3432579,0.33540344,-1.0864381,-0.4163086,-0.4619751,81.0
1296,1.7933254,0.5533047,0.22225952,-1.0864381,-0.4163086,-0.4619751,81.0
1297,1.7933254,0.5533047,0.22225952,-1.2807862,-0.5278198,-0.6839356,81.0
1298,1.7760296,0.57782364,0.12731934,-1.2807862,-0.5278198,-0.6839356,81.0
1299,1.7760296,0.57782364,0.12731934,-1.3976074,-0.6531372,-0.91757816,81.0
1300,0.96341324,0.49862385,0.10890198,-1.3976074,-0.6531372,-0.91757816,81.0
1301,0.96341324,0.49862385,0.10890198,-1.2882203,-0.7954468,-1.1066163,81.0
1302,-0.23097801,0.41690445,0.3474884,-1.2882203,-0.7954468,-1.1066163,81.0
1303,-0.23097801,0.41690445,0.3474884,-0.74022216,-0.8814697,-1.1926392,81.0
1304,-0.67295456,0.38784504,0.89723206,-0.74022216,-0.8814697,-1.1926392,81.0
1305,-0.67295456,0.38784504,0.89723206,-0.0998291,-0.8666016,-1.2000732,81.0
1306,0.02394104,0.44739723,1.5157013,-0.0998291,-0.8666016,-1.2000732,81.0
1307,0.02394104,0.44739723,1.5157013,0.16036378,-0.6754395,-1.0970582,81.0
1308,1.2100468,0.6850662,1.7992096,0.16036378,-0.6754395,-1.0970582,81.0
1309,1.2100468,0.6850662,1.7992096,-0.29523927,-0.37701416,-1.0131592,81.0
1310,1.668354,1.1102724,1.5523834,-0.29523927,-0.37701416,-1.0131592,81.0
1311,1.668354,1.1102724,1.5523834,-0.9653687,-0.20496826,-0.9483765,81.0
1312,0.9181061,1.4008884,0.9844971,-0.9653687,-0.20496826,-0.9483765,81.0
1313,0.9181061,1.4008884,0.9844971,-1.3285767,0.03717041,-0.91864014,81.0
1314,-0.50416183,1.4127274,0.5516052,-1.3285767,0.03717041,-0.91864014,81.0
1315,-0.50416183,1.4127274,0.5516052,-1.4262818,0.18266602,-0.7805786,81.0
1316,-1.9267807,1.1187439,0.12219238,-1.4262818,0.18266602,-0.7805786,81.0
1317,-1.9267807,1.1187439,0.12219238,-1.2287476,0.37382814,-0.60322267,81.0
1318,-2.7545967,0.5504513,-0.6542511,-1.2287476,0.37382814,-0.60322267,81.0
1319,-2.7545967,0.5504513,-0.6542511,-0.9420044,0.4694092,-0.45666504,81.0
1320,-2.863308,0.10546112,-1.4023132,-0.9420044,0.4694092,-0.45666504,81.0
1321,-2.863308,0.10546112,-1.4023132,-0.63614506,0.45878908,-0.2899292,81.0
1322,-2.5436974,0.0572567,-1.6255798,-0.63614506,0.45878908,-0.2899292,81.0
1323,-2.5436974,0.0572567,-1.6255798,-0.42799073,0.36320803,-0.16461182,81.0
1324,-2.1326637,0.31608105,-1.3920441,-0.42799073,0.36320803,-0.16461182,81.0
1325,-2.1326637,0.31608105,-1.3920441,-0.3069214,0.26125488,-0.13912354,81.0
1326,-1.8120384,0.55651474,-1.0964508,-0.3069214,0.26125488,-0.13912354,81.0
1327,-1.8120384,0.55651474,-1.0964508,-0.24532472,0.1178833,-0.19222413,81.0
1328,-1.5950413,0.55032635,-0.9132385,-0.24532472,0.1178833,-0.19222413,81.0
1329,-1.5950413,0.55032635,-0.9132385,-0.18691407,-0.028674318,-0.26444092,81.0
1330,-1.5950413,0.55032635,-0.9132385,-0.18691407,-0.028674318,-0.26444092,83.0
1331,-1.4331627,0.32594204,-0.80540466,-0.18691407,-0.028674318,-0.26444092,83.0
1332,-1.4331627,0.32594204,-0.80540466,-0.0031860352,-0.21027832,-0.35046387,83.0
1333,-1.2477016,0.066539764,-0.6950531,-0.0031860352,-0.21027832,-0.35046387,83.0
1334,-1.2477016,0.066539764,-0.6950531,0.3164795,-0.39400634,-0.4354248,83.0
1335,-1.2477016,0.066539764,-0.6950531,0.6180908,-0.5522461,-0.5150757,83.0
1336,-0.9541302,-0.06284428,-0.56889343,0.6180908,-0.5522461,-0.5150757,83.0
1337,1.1090584,0.026787758,-0.2059784,0.6180908,-0.5522461,-0.5150757,83.0
1338,1.1090584,0.026787758,-0.2059784,0.7986328,-0.66588134,-0.5915405,83.0
1339,1.1090584,0.026787758,-0.2059784,0.8644776,-0.71367186,-0.6616333,83.0
1340,1.1090584,0.026787758,-0.2059784,0.814563,-0.724292,-0.724292,83.0
1341,1.9491978,-0.025432587,0.021514893,0.814563,-0.724292,-0.724292,83.0
1342,1.9491978,-0.025432587,0.021514893,0.74659425,-0.70198977,-0.78376466,83.0
1343,2.875887,-0.19610214,0.32980347,0.74659425,-0.70198977,-0.78376466,83.0
1344,2.875887,-0.19610214,0.32980347,0.8517334,-0.7147339,-0.77739257,83.0
1345,3.4992085,-0.21051979,0.622879,0.8517334,-0.7147339,-0.77739257,83.0
1346,3.4992085,-0.21051979,0.622879,0.6510132,-0.6149048,-0.6754395,83.0
1347,3.177456,0.118938446,0.70402527,0.6510132,-0.6149048,-0.6754395,83.0
1348,3.177456,0.118938446,0.70402527,0.14761963,-0.37701416,-0.4322388,83.0
1349,2.3034515,0.41070175,0.80874634,0.14761963,-0.37701416,-0.4322388,83.0
1350,2.3034515,0.41070175,0.80874634,-0.16461182,-0.2357666,-0.15505372,83.0
1351,1.5364494,0.32968426,1.1082611,-0.16461182,-0.2357666,-0.15505372,83.0
1352,1.5364494,0.32968426,1.1082611,-0.16673584,-0.17416993,0.07327881,83.0
1353,0.9529381,-0.009922028,1.3043976,-0.16673584,-0.17416993,0.07327881,83.0
1354,0.9529381,-0.009922028,1.3043976,-0.04141846,-0.07434082,0.26868898,83.0
1355,0.37587738,-0.23472023,1.0596619,-0.04141846,-0.07434082,0.26868898,83.0
1356,0.37587738,-0.23472023,1.0596619,0.090270996,0.038232423,0.44498292,83.0
1357,-0.5078678,-0.10769844,0.34100342,0.090270996,0.038232423,0.44498292,83.0
1358,-0.5078678,-0.10769844,0.34100342,0.5851685,0.13381349,0.6690674,83.0
1359,-1.2530842,0.18369007,-0.49093628,0.5851685,0.13381349,0.6690674,83.0
1360,-1.2530842,0.18369007,-0.49093628,1.0216553,0.2177124,0.83686525,83.0
1361,-1.0732193,0.3695221,-1.0361786,1.0216553,0.2177124,0.83686525,83.0
1362,-1.0732193,0.3695221,-1.0361786,1.2818482,0.38869628,0.86553955,83.0
1363,-0.03652954,0.24989033,-1.1013794,1.2818482,0.38869628,0.86553955,83.0
1364,-0.03652954,0.24989033,-1.1013794,1.2414917,0.5713623,0.7784546,83.0
1365,1.0496349,-0.21095276,-0.7885742,1.2414917,0.5713623,0.7784546,83.0
1366,1.0496349,-0.21095276,-0.7885742,1.1607789,0.7189819,0.6754395,83.0
1367,1.3170147,-0.6828613,-0.43725586,1.1607789,0.7189819,0.6754395,83.0
1368,1.3170147,-0.6828613,-0.43725586,0.90058595,0.8219971,0.6605713,83.0
1369,0.5632782,-0.8405762,-0.27345276,0.90058595,0.8219971,0.6605713,83.0
1370,0.5632782,-0.8405762,-0.27345276,0.66481936,0.88359374,0.7072998,83.0
1371,-0.66412354,-0.6545286,-0.28974915,0.66481936,0.88359374,0.7072998,83.0
1372,-0.66412354,-0.6545286,-0.28974915,0.35683593,0.95581055,0.85598147,83.0
1373,-1.6985588,-0.4726715,-0.33966064,0.35683593,0.95581055,0.85598147,83.0
1374,-1.6985588,-0.4726715,-0.33966064,0.18585205,0.97386473,1.0354614,83.0
1375,-2.1461754,-0.5614748,-0.36672974,0.18585205,0.97386473,1.0354614,83.0
1376,-2.1461754,-0.5614748,-0.36672974,0.1985962,0.97067875,1.2372437,83.0
1377,-1.9889259,-0.809885,-0.37350464,0.1985962,0.97067875,1.2372437,83.0
1378,-1.9889259,-0.809885,-0.37350464,0.29630128,0.9653687,1.4145997,83.0
1379,-1.4971714,-0.96792793,-0.3396454,0.29630128,0.9653687,1.4145997,83.0
1380,-1.4971714,-0.96792793,-0.3396454,0.38657227,0.9653687,1.5239868,83.0
1381,-0.9962845,-0.97000885,-0.261734,0.38657227,0.9653687,1.5239868,83.0
1382,-0.9962845,-0.97000885,-0.261734,0.37701416,0.98236084,1.5834595,83.0
1383,-0.70658684,-0.89775944,-0.14193726,0.37701416,0.98236084,1.5834595,83.0
1384,-0.70658684,-0.89775944,-0.14193726,0.3164795,0.9791748,1.5940796,83.0
1385,-0.6302471,-0.7838812,-0.025909424,0.3164795,0.9791748,1.5940796,83.0
1386,-0.6302471,-0.7838812,-0.025909424,0.13275146,0.9717407,1.5696534,83.0
1387,-0.6008167,-0.7047663,0.05986023,0.13275146,0.9717407,1.5696534,83.0
1388,-0.6008167,-0.7047663,0.05986023,-0.09664307,0.93775636,1.5165528,83.0
1389,-0.6008167,-0.7047663,0.05986023,-0.26444092,0.85704345,1.4241577,83.0
1390,-0.4586811,-0.73978996,0.11201477,-0.26444092,0.85704345,1.4241577,83.0
1391,0.1389389,-1.418333,0.8169708,-0.26444092,0.85704345,1.4241577,83.0
1392,0.1389389,-1.418333,0.8169708,-0.31860352,0.7168579,1.3307008,83.0
1393,0.1389389,-1.418333,0.8169708,-0.17947999,0.4704712,1.2786621,83.0
1394,0.1389389,-1.418333,0.8169708,0.1263794,0.2177124,1.2021973,83.0
1395,0.13219643,-1.1436758,1.1188812,0.1263794,0.2177124,1.2021973,83.0
1396,0.13219643,-1.1436758,1.1188812,0.24957275,0.053100586,1.0375855,83.0
1397,0.11316681,-0.7780142,1.1503143,0.24957275,0.053100586,1.0375855,83.0
1398,0.11316681,-0.7780142,1.1503143,0.08071289,-0.07434082,0.721106,83.0
1399,-0.005487442,-0.5353632,0.9303894,0.08071289,-0.07434082,0.721106,83.0
1400,-0.005487442,-0.5353632,0.9303894,-0.124255374,-0.27399904,0.33665773,83.0
1401,-0.2690506,-0.50153255,0.6368103,-0.124255374,-0.27399904,0.33665773,83.0
1402,-0.2690506,-0.50153255,0.6368103,-0.20496826,-0.50445557,-0.08496094,83.0
1403,-0.2513733,-0.5923157,0.37493896,-0.20496826,-0.50445557,-0.08496094,83.0
1404,-0.2513733,-0.5923157,0.37493896,-0.16248779,-0.6945557,-0.5894165,83.0
1405,0.43569374,-0.70997334,0.18388367,-0.16248779,-0.6945557,-0.5894165,83.0
1406,0.43569374,-0.70997334,0.18388367,-0.16354981,-0.8262451,-1.1841431,83.0
1407,1.331953,-0.65512466,0.09057617,-0.16354981,-0.8262451,-1.1841431,83.0
1408,1.331953,-0.65512466,0.09057617,-0.3440918,-0.86766356,-1.809668,83.0
1409,1.5914288,-0.32806683,0.10978699,-0.3440918,-0.86766356,-1.809668,83.0
1410,1.5914288,-0.32806683,0.10978699,-0.6117188,-0.87191164,-2.2928834,83.0
1411,0.95106125,0.18429947,0.22285461,-0.6117188,-0.87191164,-2.2928834,83.0
1412,0.95106125,0.18429947,0.22285461,-0.76677245,-0.79332274,-2.5074098,83.0
1413,0.35365868,0.6808014,0.288208,-0.76677245,-0.79332274,-2.5074098,83.0
1414,0.35365868,0.6808014,0.288208,-0.74659425,-0.68924564,-2.5658205,83.0
1415,0.8529339,0.961524,0.17881775,-0.74659425,-0.68924564,-2.5658205,83.0
1416,0.8529339,0.961524,0.17881775,-0.59472656,-0.635083,-2.5764406,83.0
1417,2.1982403,0.9530573,-0.012634277,-0.59472656,-0.635083,-2.5764406,83.0
1418,2.1982403,0.9530573,-0.012634277,-0.34727785,-0.6202149,-2.5392702,83.0
1419,2.1982403,0.9530573,-0.012634277,-0.34727785,-0.6202149,-2.5392702,85.0
1420,3.1550026,0.86444855,-0.10935974,-0.34727785,-0.6202149,-2.5392702,85.0
1421,3.1550026,0.86444855,-0.10935974,-0.31860352,-0.5649902,-2.3215578,85.0
1422,2.6980858,1.0483208,-0.09541321,-0.31860352,-0.5649902,-2.3215578,85.0
1423,2.6980858,1.0483208,-0.09541321,-0.69986576,-0.3993164,-1.898877,85.0
1424,0.9963951,1.506711,0.004196167,-0.69986576,-0.3993164,-1.898877,85.0
1425,0.9963951,1.506711,0.004196167,-1.1607789,-0.2824951,-1.3997315,85.0
1426,-0.8345127,1.8813944,0.10272217,-1.1607789,-0.2824951,-1.3997315,85.0
1427,-0.8345127,1.8813944,0.10272217,-1.359375,-0.271875,-0.9515625,85.0
1428,-1.9693317,1.9021368,-0.0206604,-1.359375,-0.271875,-0.9515625,85.0
1429,-1.9693317,1.9021368,-0.0206604,-1.44646,-0.2899292,-0.6074707,85.0
1430,-2.3549328,1.5672779,-0.40827942,-1.44646,-0.2899292,-0.6074707,85.0
1431,-2.3549328,1.5672779,-0.40827942,-1.4390259,-0.26656494,-0.3462158,85.0
1432,-2.3442612,1.1004896,-0.7819824,-1.4390259,-0.26656494,-0.3462158,85.0
1433,-2.3442612,1.1004896,-0.7819824,-1.3657471,-0.19434814,-0.17523193,85.0
1434,-2.3042908,0.70907784,-0.9529877,-1.3657471,-0.19434814,-0.17523193,85.0
1435,-2.3042908,0.70907784,-0.9529877,-1.1236085,-0.15611573,-0.10620117,85.0
1436,-2.318262,0.49654675,-0.96284485,-1.1236085,-0.15611573,-0.10620117,85.0
1437,-2.318262,0.49654675,-0.96284485,-0.87403566,-0.16992188,-0.08602295,85.0
1438,-2.2740555,0.44558907,-0.8730316,-0.87403566,-0.16992188,-0.08602295,85.0
1439,-2.2740555,0.44558907,-0.8730316,-0.54906005,-0.24638672,-0.107263185,85.0
1440,-2.0789986,0.46535778,-0.70051575,-0.54906005,-0.24638672,-0.107263185,85.0
1441,-2.0789986,0.46535778,-0.70051575,-0.20178223,-0.33134767,-0.17523193,85.0
1442,-1.71525,0.53500557,-0.44555664,-0.20178223,-0.33134767,-0.17523193,85.0
1443,-1.71525,0.53500557,-0.44555664,-0.059472658,-0.3791382,-0.27399904,85.0
1444,-1.2490921,0.57267,-0.215271,-0.059472658,-0.3791382,-0.27399904,85.0
1445,-1.2490921,0.57267,-0.215271,-0.009558106,-0.41206056,-0.38338622,85.0
1446,-0.74308395,0.5174141,-0.079055786,-0.009558106,-0.41206056,-0.38338622,85.0
1447,-0.74308395,0.5174141,-0.079055786,0.07327881,-0.49277344,-0.45560303,85.0
1448,-0.40618515,0.4622345,-0.03425598,0.07327881,-0.49277344,-0.45560303,85.0
1449,-0.40618515,0.4622345,-0.03425598,0.11151123,-0.5235718,-0.49277344,85.0
1450,0.6898594,0.48934364,0.3812561,0.11151123,-0.5235718,-0.49277344,85.0
1451,0.6898594,0.48934364,0.3812561,0.03186035,-0.4364868,-0.5957886,85.0
1452,0.87117386,0.4655342,0.40748596,0.03186035,-0.4364868,-0.5957886,85.0
1453,0.87117386,0.4655342,0.40748596,-0.052038576,-0.39082032,-0.6149048,85.0
1454,1.7680931,0.10243225,0.43966675,-0.052038576,-0.39082032,-0.6149048,85.0
1455,1.7680931,0.10243225,0.43966675,0.19753419,-0.42374268,-0.6202149,85.0
1456,1.880991,-0.0754509,0.3089447,0.19753419,-0.42374268,-0.6202149,85.0
1457,1.880991,-0.0754509,0.3089447,0.47578126,-0.4694092,-0.60322267,85.0
1458,3.0898018,-0.29574966,0.38331604,0.47578126,-0.4694092,-0.60322267,85.0
1459,3.0898018,-0.29574966,0.38331604,0.721106,-0.36320803,-0.48215333,85.0
1460,2.7001991,-0.118068695,0.35151672,0.721106,-0.36320803,-0.48215333,85.0
1461,2.7001991,-0.118068695,0.35151672,0.5171997,-0.24851075,-0.36745605,85.0
1462,2.0482216,0.48305893,0.64541626,0.5171997,-0.24851075,-0.36745605,85.0
1463,2.0482216,0.48305893,0.64541626,-0.090270996,0.028674318,-0.015930176,85.0
1464,1.4712067,0.4719448,0.6661072,-0.090270996,0.028674318,-0.015930176,85.0
1465,1.4712067,0.4719448,0.6661072,-0.19541016,0.06903076,0.07434082,85.0
1466,0.64990234,0.08111954,0.6647339,-0.19541016,0.06903076,0.07434082,85.0
1467,0.64990234,0.08111954,0.6647339,-0.11363526,0.21558838,0.33028564,85.0
1468,0.4671383,-0.15461159,0.43676758,-0.11363526,0.21558838,0.33028564,85.0
1469,0.4671383,-0.15461159,0.43676758,0.020178223,0.26762697,0.42374268,85.0
1470,-0.055793762,-0.24510002,-0.43940735,0.020178223,0.26762697,0.42374268,85.0
1471,-0.055793762,-0.24510002,-0.43940735,0.50870365,0.4598511,0.6839356,85.0
1472,-0.243536,-0.14793587,-0.64572144,0.50870365,0.4598511,0.6839356,85.0
1473,-0.243536,-0.14793587,-0.64572144,0.5777344,0.5479981,0.75296634,85.0
1474,-0.25941658,0.25396538,-1.1869354,0.5777344,0.5479981,0.75296634,85.0
1475,-0.25941658,0.25396538,-1.1869354,0.76358646,0.7147339,0.85385746,85.0
1476,0.14168549,0.04200363,-0.9634552,0.76358646,0.7147339,0.85385746,85.0
1477,0.14168549,0.04200363,-0.9634552,0.8219971,0.73703617,0.8251831,85.0
1478,1.1694889,-0.52705383,-0.73335266,0.8219971,0.73703617,0.8251831,85.0
1479,1.1694889,-0.52705383,-0.73335266,0.8485474,0.814563,0.72960204,85.0
1480,1.0834198,-0.77885723,-0.5105438,0.8485474,0.814563,0.72960204,85.0
1481,1.0834198,-0.77885723,-0.5105438,0.8782837,0.80819094,0.7338501,85.0
1482,0.5056648,-1.003396,-0.41207886,0.8782837,0.80819094,0.7338501,85.0
1483,0.5056648,-1.003396,-0.41207886,0.84748536,0.7805786,0.79226077,85.0
1484,-0.5617409,-0.88884926,-0.34761047,0.84748536,0.7805786,0.79226077,85.0
1485,-0.5617409,-0.88884926,-0.34761047,0.83898926,0.75615233,0.89846194,85.0
1486,-2.0520039,-0.5074177,-0.30133057,0.83898926,0.75615233,0.89846194,85.0
1487,-2.0520039,-0.5074177,-0.30133057,0.77739257,0.74447024,1.1066163,85.0
1488,-2.0048351,-0.5470476,-0.17004395,0.77739257,0.74447024,1.1066163,85.0
1489,-2.0048351,-0.5470476,-0.17004395,0.7890747,0.7317261,1.1862671,85.0
1490,-2.1893044,-0.6238928,-0.19847107,0.7890747,0.7317261,1.1862671,85.0
1491,-2.1893044,-0.6238928,-0.19847107,0.8612915,0.724292,1.3763672,85.0
1492,-1.7567291,-0.7565241,-0.114990234,0.8612915,0.724292,1.3763672,85.0
1493,-1.7567291,-0.7565241,-0.114990234,0.88040775,0.7306641,1.4167236,85.0
1494,-1.2781258,-0.8419628,-0.10652161,0.88040775,0.7306641,1.4167236,85.0
1495,-1.2781258,-0.8419628,-0.10652161,0.8591675,0.75296634,1.4613281,85.0
1496,-0.76953506,-0.8870964,-0.057434082,0.8591675,0.75296634,1.4613281,85.0
1497,-0.76953506,-0.8870964,-0.057434082,0.79013675,0.76358646,1.453894,85.0
1498,-0.31386948,-0.8452492,0.04386902,0.79013675,0.76358646,1.453894,85.0
1499,-0.31386948,-0.8452492,0.04386902,0.5161377,0.77951664,1.356189,85.0
1500,-0.31386948,-0.8452492,0.04386902,0.4056885,0.7688965,1.3073364,85.0
1501,-0.20766258,-0.8545561,0.16069031,0.4056885,0.7688965,1.3073364,85.0
1502,-0.022686005,-1.2576675,0.3116455,0.4056885,0.7688965,1.3073364,85.0
1503,-0.022686005,-1.2576675,0.3116455,0.19328614,0.7189819,1.175647,85.0
1504,-0.022686005,-1.2576675,0.3116455,-0.013806152,0.63826907,1.0163453,85.0
1505,-0.022686005,-1.2576675,0.3116455,-0.15611573,0.5278198,0.8336792,85.0
1506,-0.018148422,-1.006134,0.24931335,-0.15611573,0.5278198,0.8336792,85.0
1507,0.42429924,-1.2224245,0.43067932,-0.15611573,0.5278198,0.8336792,85.0
1508,0.42429924,-1.2224245,0.43067932,-0.2442627,0.39188233,0.6414551,85.0
1509,0.42429924,-1.2224245,0.43067932,-0.31010744,0.24001466,0.43117675,85.0
1510,0.42429924,-1.2224245,0.43067932,-0.35577393,0.06159668,0.1985962,85.0
1511,0.88531303,-0.97364235,0.5093689,-0.35577393,0.06159668,0.1985962,85.0
1512,0.88531303,-0.97364235,0.5093689,-0.45772704,-0.078588866,-0.012744141,85.0
1513,1.2068214,-0.6212597,0.58961487,-0.45772704,-0.078588866,-0.012744141,85.0
1514,1.2068214,-0.6212597,0.58961487,-0.634021,-0.20603028,-0.18054199,85.0
1515,1.2099876,-0.13489819,0.6668854,-0.634021,-0.20603028,-0.18054199,85.0
1516,1.2099876,-0.13489819,0.6668854,-0.9600586,-0.41949463,-0.42055663,85.0
1517,1.0196991,0.04869747,0.49417114,-0.9600586,-0.41949463,-0.42055663,85.0
1518,1.0196991,0.04869747,0.49417114,-1.0588257,-0.5129517,-0.5479981,85.0
1519,1.1369629,0.034563065,0.5184479,-1.0588257,-0.5129517,-0.5479981,85.0
1520,1.1369629,0.034563065,0.5184479,-1.0662597,-0.6690674,-0.903772,85.0
1521,1.1369629,0.034563065,0.5184479,-1.0662597,-0.6690674,-0.903772,85.0
1522,1.4886589,-0.061753273,0.75120544,-1.0662597,-0.6690674,-0.903772,85.0
1523,1.4886589,-0.061753273,0.75120544,-1.0556396,-0.7720825,-1.2977784,85.0
1524,1.1896706,-0.001367569,1.0316467,-1.0556396,-0.7720825,-1.2977784,85.0
1525,1.1896706,-0.001367569,1.0316467,-0.96218264,-0.903772,-1.5335449,85.0
1526,-0.048799515,0.10179901,1.1286011,-0.96218264,-0.903772,-1.5335449,85.0
1527,-0.048799515,0.10179901,1.1286011,-0.27612305,-1.0768799,-1.6397461,85.0
1528,-0.86872673,0.16453171,1.1229095,-0.27612305,-1.0768799,-1.6397461,85.0
1529,-0.86872673,0.16453171,1.1229095,0.6074707,-1.1873292,-1.6397461,85.0
1530,-0.2755108,0.29685974,1.1277313,0.6074707,-1.1873292,-1.6397461,85.0
1531,-0.2755108,0.29685974,1.1277313,1.0949341,-1.0545777,-1.6185058,85.0
1532,1.007204,0.6412115,1.0444641,1.0949341,-1.0545777,-1.6185058,85.0
1533,1.007204,0.6412115,1.0444641,0.69986576,-0.66481936,-1.5707153,85.0
1534,1.597023,1.1776171,0.7479706,0.69986576,-0.66481936,-1.5707153,85.0
1535,1.597023,1.1776171,0.7479706,-0.0180542,-0.3430298,-1.4836304,85.0
1536,1.0152512,1.62852,0.25645447,-0.0180542,-0.3430298,-1.4836304,85.0
1537,1.0152512,1.62852,0.25645447,-0.58623046,-0.12956543,-1.2956543,85.0
1538,-0.19136429,1.7050867,-0.31221008,-0.58623046,-0.12956543,-1.2956543,85.0
1539,-0.19136429,1.7050867,-0.31221008,-0.7943848,0.004248047,-1.0450195,85.0
1540,-1.3374176,1.3882265,-0.8677063,-0.7943848,0.004248047,-1.0450195,85.0
1541,-1.3374176,1.3882265,-0.8677063,-0.77314454,0.06796875,-0.8219971,85.0
1542,-1.998743,0.92615795,-1.2622375,-0.77314454,0.06796875,-0.8219971,85.0
1543,-1.998743,0.92615795,-1.2622375,-0.87403566,0.11044922,-0.54587406,85.0
1544,-2.194355,0.53120995,-1.3564911,-0.87403566,0.11044922,-0.54587406,85.0
1545,-2.194355,0.53120995,-1.3564911,-0.80394286,0.13699952,-0.32285157,85.0
1546,-2.1607323,0.29247284,-1.2115479,-0.80394286,0.13699952,-0.32285157,85.0
1547,-2.1607323,0.29247284,-1.2115479,-0.5979126,0.124255374,-0.16567384,85.0
1548,-2.0226288,0.18515015,-1.0148773,-0.5979126,0.124255374,-0.16567384,85.0
1549,-2.0226288,0.18515015,-1.0148773,-0.4067505,0.08920898,-0.052038576,85.0
1550,-1.8560791,0.15987587,-0.8569641,-0.4067505,0.08920898,-0.052038576,85.0
1551,-1.8560791,0.15987587,-0.8569641,-0.22089843,0.011682129,-0.007434082,85.0
1552,-1.6864872,0.14091396,-0.7370148,-0.22089843,0.011682129,-0.007434082,85.0
1553,-1.6864872,0.14091396,-0.7370148,-0.008496094,-0.0998291,-0.026550293,85.0
1554,-1.496603,0.1056509,-0.65319824,-0.008496094,-0.0998291,-0.026550293,85.0
1555,-1.496603,0.1056509,-0.65319824,0.20709229,-0.22939454,-0.081774905,85.0
1556,-1.2870884,0.06810284,-0.59846497,0.20709229,-0.22939454,-0.081774905,85.0
1557,-1.2870884,0.06810284,-0.59846497,0.4078125,-0.3525879,-0.15930176,85.0
1558,-1.2870884,0.06810284,-0.59846497,0.5522461,-0.4630371,-0.2516968,85.0
1559,-1.0148754,0.038552284,-0.5610657,0.5522461,-0.4630371,-0.2516968,85.0
1560,0.9324608,0.021051407,0.07104492,0.5522461,-0.4630371,-0.2516968,85.0
1561,0.9324608,0.021051407,0.07104492,0.6488892,-0.541626,-0.3355957,85.0
1562,0.9324608,0.021051407,0.07104492,0.65844727,-0.52888185,-0.39613038,85.0
1563,0.9324608,0.021051407,0.07104492,0.56605226,-0.46622315,-0.45135498,85.0
1564,1.6091042,-0.06316376,0.31666565,0.56605226,-0.46622315,-0.45135498,85.0
1565,1.6091042,-0.06316376,0.31666565,0.53525394,-0.44179687,-0.4970215,85.0
1566,2.476944,-0.2429142,0.43392944,0.53525394,-0.44179687,-0.4970215,85.0
