,accx,accy,accz,gyrox,gyroy,gyroz,heart rate
0,walk,walk,walk,walk,walk,walk,walk
1,-3.1060548,-57.83694,46.85408,0.0,0.0,0.0,0.0
2,-3.1060548,-57.83694,46.85408,-0.012744141,0.43117675,-0.4609131,0.0
3,-2.7938282,-46.027645,37.166615,-0.012744141,0.43117675,-0.4609131,0.0
4,-2.7938282,-46.027645,37.166615,-0.107263185,0.38338622,-0.5012695,0.0
5,-2.1182292,-36.73139,29.644583,-0.107263185,0.38338622,-0.5012695,0.0
6,-2.1182292,-36.73139,29.644583,-0.05522461,0.20284425,-0.4630371,0.0
7,-1.5335603,-29.785015,23.834991,-0.05522461,0.20284425,-0.4630371,0.0
8,-1.5335603,-29.785015,23.834991,-0.121069334,0.047790527,-0.7126099,0.0
9,-1.1002002,-24.377686,19.410912,-0.121069334,0.047790527,-0.7126099,0.0
10,-1.1002002,-24.377686,19.410912,-0.15930176,-0.16142578,-0.80819094,0.0
11,-0.60205936,-19.711475,15.831039,-0.15930176,-0.16142578,-0.80819094,0.0
12,-0.60205936,-19.711475,15.831039,-0.40144044,-0.18266602,-0.74022216,0.0
13,-0.3341744,-15.646843,12.520897,-0.40144044,-0.18266602,-0.74022216,0.0
14,-0.3341744,-15.646843,12.520897,-0.57454836,-0.081774905,-0.7391602,0.0
15,-0.39856505,-12.318291,9.4653015,-0.57454836,-0.081774905,-0.7391602,0.0
16,-0.39856505,-12.318291,9.4653015,-0.5586182,0.004248047,-0.69986576,0.0
17,-0.68310976,-9.570404,7.0525055,-0.5586182,0.004248047,-0.69986576,0.0
18,-0.68310976,-9.570404,7.0525055,-0.43861085,0.019116212,-0.61278075,0.0
19,-0.8975744,-7.407936,5.533703,-0.43861085,0.019116212,-0.61278075,0.0
20,-0.8975744,-7.407936,5.533703,-0.32497558,0.04141846,-0.5256958,0.0
21,-0.7384577,-5.944084,4.6739616,-0.32497558,0.04141846,-0.5256958,0.0
22,-0.7384577,-5.944084,4.6739616,-0.20284425,0.10195313,-0.46728516,0.0
23,-0.33689642,-4.986946,3.9435654,-0.20284425,0.10195313,-0.46728516,0.0
24,-0.33689642,-4.986946,3.9435654,-0.10620117,0.15080567,-0.54693604,0.0
25,-0.07313061,-4.1342697,3.119793,-0.10620117,0.15080567,-0.54693604,0.0
26,-0.07313061,-4.1342697,3.119793,-0.12213135,0.18903808,-0.6138428,0.0
27,-0.07313061,-4.1342697,3.119793,-0.12213135,0.18903808,-0.6138428,93.0
28,-0.003987789,-3.2842865,2.4173431,-0.12213135,0.18903808,-0.6138428,93.0
29,-0.003987789,-3.2842865,2.4173431,-0.16036378,0.1731079,-0.70942384,93.0
30,-0.0014810562,-2.6473465,1.9418793,-0.16036378,0.1731079,-0.70942384,93.0
31,-0.0014810562,-2.6473465,1.9418793,-0.15611573,0.15505372,-0.71154785,93.0
32,0.025341034,-2.2839203,1.6548462,-0.15611573,0.15505372,-0.71154785,93.0
33,0.025341034,-2.2839203,1.6548462,-0.07965088,0.10620117,-0.725354,93.0
34,0.097592115,-1.9968414,1.5195694,-0.07965088,0.10620117,-0.725354,93.0
35,0.097592115,-1.9968414,1.5195694,-0.07540283,0.0541626,-0.635083,93.0
36,0.1755836,-1.6378632,1.4593582,-0.07540283,0.0541626,-0.635083,93.0
37,0.1755836,-1.6378632,1.4593582,-0.081774905,0.023364259,-0.6244629,93.0
38,0.2124517,-1.2802124,1.3325996,-0.081774905,0.023364259,-0.6244629,93.0
39,0.2124517,-1.2802124,1.3325996,-0.18691407,0.070092775,-0.5766724,93.0
40,0.12516165,-1.0284042,1.0574722,-0.18691407,0.070092775,-0.5766724,93.0
41,0.12516165,-1.0284042,1.0574722,-0.271875,0.12531738,-0.542688,93.0
42,-0.053068876,-0.8823166,0.695549,-0.271875,0.12531738,-0.542688,93.0
43,-0.053068876,-0.8823166,0.695549,-0.28461915,0.1444336,-0.53100586,93.0
44,-0.20829988,-0.775589,0.3644867,-0.28461915,0.1444336,-0.53100586,93.0
45,-0.20829988,-0.775589,0.3644867,-0.22514649,0.10407715,-0.4959595,93.0
46,-0.26799488,-0.6444092,0.14939117,-0.22514649,0.10407715,-0.4959595,93.0
47,-0.26799488,-0.6444092,0.14939117,-0.14761963,0.0361084,-0.41949463,93.0
48,-0.21865606,-0.48814392,0.07517624,-0.14761963,0.0361084,-0.41949463,93.0
49,-0.21865606,-0.48814392,0.07517624,-0.06265869,0.004248047,-0.41524658,93.0
50,-0.21865606,-0.48814392,0.07517624,-0.07646485,0.03186035,-0.4354248,93.0
51,-0.11436558,-0.3651352,0.0470047,-0.07646485,0.03186035,-0.4354248,93.0
52,0.023644209,-0.31458282,-0.118133545,-0.07646485,0.03186035,-0.4354248,93.0
53,0.023644209,-0.31458282,-0.118133545,-0.11044922,0.0063720704,-0.45560303,93.0
54,0.06333685,-0.44766235,-0.41892242,-0.11044922,0.0063720704,-0.45560303,93.0
55,0.06333685,-0.44766235,-0.41892242,-0.20284425,0.06690674,-0.45560303,93.0
56,0.15168262,-0.7014847,-0.49978638,-0.20284425,0.06690674,-0.45560303,93.0
57,0.15168262,-0.7014847,-0.49978638,-0.26125488,-0.118945315,-0.30054933,93.0
58,0.28268647,-0.9707184,-0.3557129,-0.26125488,-0.118945315,-0.30054933,93.0
59,0.28268647,-0.9707184,-0.3557129,-0.88253176,0.0,-0.007434082,93.0
60,0.18351007,-1.1445923,-0.26494217,-0.88253176,0.0,-0.007434082,93.0
61,0.18351007,-1.1445923,-0.26494217,-0.09664307,-0.07540283,-0.06796875,93.0
62,-0.13143897,-0.8797989,-0.2909813,-0.09664307,-0.07540283,-0.06796875,93.0
63,-0.13143897,-0.8797989,-0.2909813,-0.47365722,-0.09770508,0.12956543,93.0
64,-0.36495352,-0.21937561,-0.22649765,-0.47365722,-0.09770508,0.12956543,93.0
65,-0.36495352,-0.21937561,-0.22649765,-0.34833986,-0.16354981,0.05628662,93.0
66,-0.27973127,0.21904755,0.13431549,-0.34833986,-0.16354981,0.05628662,93.0
67,-0.27973127,0.21904755,0.13431549,-0.14761963,-0.16142578,0.06265869,93.0
68,-0.27973127,0.21904755,0.13431549,-0.0541626,-0.10938721,0.047790527,93.0
69,0.024981976,0.3467331,0.5925598,-0.0541626,-0.10938721,0.047790527,93.0
70,0.22494173,0.25151062,0.77124023,-0.0541626,-0.10938721,0.047790527,93.0
71,0.22494173,0.25151062,0.77124023,0.008496094,-0.023364259,0.08283692,93.0
72,0.11705065,0.26389313,0.57709885,0.008496094,-0.023364259,0.08283692,93.0
73,0.11705065,0.26389313,0.57709885,-0.020178223,0.06584473,0.02442627,93.0
74,-0.166296,0.31824493,0.30431747,-0.020178223,0.06584473,0.02442627,93.0
75,-0.166296,0.31824493,0.30431747,-0.04991455,0.12000733,-0.06265869,93.0
76,-0.36280966,0.13788605,0.22739029,-0.04991455,0.12000733,-0.06265869,93.0
77,-0.36280966,0.13788605,0.22739029,-0.10513916,0.1529297,-0.15080567,93.0
78,-0.3384533,-0.2745514,0.29167557,-0.10513916,0.1529297,-0.15080567,93.0
79,-0.3384533,-0.2745514,0.29167557,-0.14549561,0.19541016,-0.21452637,93.0
80,-0.20348954,-0.6047745,0.24687958,-0.14549561,0.19541016,-0.21452637,93.0
81,-0.20348954,-0.6047745,0.24687958,-0.21452637,0.25063476,-0.19647217,93.0
82,-0.21547699,-0.6378479,-0.078388214,-0.21452637,0.25063476,-0.19647217,93.0
83,-0.21547699,-0.6378479,-0.078388214,-0.2814331,0.27718505,-0.11469727,93.0
84,-0.43189096,-0.52750397,-0.54232407,-0.2814331,0.27718505,-0.11469727,93.0
85,-0.43189096,-0.52750397,-0.54232407,-0.22302246,0.22408448,-0.016992187,93.0
86,-0.6555958,-0.511261,-0.7813568,-0.22302246,0.22408448,-0.016992187,93.0
87,-0.6555958,-0.511261,-0.7813568,-0.08920898,0.1263794,0.11044922,93.0
88,-0.70644665,-0.49689484,-0.65309906,-0.08920898,0.1263794,0.11044922,93.0
89,-0.70644665,-0.49689484,-0.65309906,0.025488282,0.019116212,0.22727051,93.0
90,-0.60203505,-0.3347702,-0.39271545,0.025488282,0.019116212,0.22727051,93.0
91,-0.60203505,-0.3347702,-0.39271545,0.007434082,-0.06903076,0.34833986,93.0
92,-0.47232628,-0.079193115,-0.27780914,0.007434082,-0.06903076,0.34833986,93.0
93,-0.47232628,-0.079193115,-0.27780914,-0.016992187,-0.16036378,0.42692873,93.0
94,-0.3991499,0.07419586,-0.2527542,-0.016992187,-0.16036378,0.42692873,93.0
95,-0.3991499,0.07419586,-0.2527542,-0.058410645,-0.23682861,0.5150757,93.0
96,-0.35463476,0.03124237,-0.09184265,-0.058410645,-0.23682861,0.5150757,93.0
97,-0.35463476,0.03124237,-0.09184265,-0.022302246,-0.24851075,0.5511841,93.0
98,-0.28583193,-0.08345795,0.16133118,-0.022302246,-0.24851075,0.5511841,93.0
99,-0.28583193,-0.08345795,0.16133118,0.07327881,-0.2166504,0.5671143,93.0
100,-0.18862629,-0.115753174,0.23062897,0.07327881,-0.2166504,0.5671143,93.0
101,-0.18862629,-0.115753174,0.23062897,0.1263794,-0.19328614,0.5649902,93.0
102,-0.073069096,-0.124046326,0.112213135,0.1263794,-0.19328614,0.5649902,93.0
103,-0.073069096,-0.124046326,0.112213135,0.17735596,-0.19753419,0.5543701,93.0
104,0.07696915,-0.17469025,0.04663086,0.17735596,-0.19753419,0.5543701,93.0
105,0.07696915,-0.17469025,0.04663086,0.21877442,-0.21346436,0.5235718,93.0
106,0.24946594,-0.22272491,0.15914154,0.21877442,-0.21346436,0.5235718,93.0
107,0.24946594,-0.22272491,0.15914154,0.14018555,-0.22833252,0.52675784,93.0
108,0.37423086,-0.29676056,0.29625702,0.14018555,-0.22833252,0.52675784,93.0
109,0.37423086,-0.29676056,0.29625702,0.10513916,-0.21558838,0.5363159,93.0
110,0.35247278,-0.39291382,0.27488327,0.10513916,-0.21558838,0.5363159,93.0
111,0.35247278,-0.39291382,0.27488327,0.17841797,-0.22089843,0.5055176,93.0
112,0.2577839,-0.35913086,0.16856384,0.17841797,-0.22089843,0.5055176,93.0
113,0.2577839,-0.35913086,0.16856384,0.124255374,-0.22727051,0.46728516,93.0
114,0.20261383,-0.1700058,0.13007736,0.124255374,-0.22727051,0.46728516,93.0
115,0.20261383,-0.1700058,0.13007736,-0.03717041,-0.2166504,0.41949463,93.0
116,0.21710825,-0.032684326,0.11735535,-0.03717041,-0.2166504,0.41949463,93.0
117,0.21710825,-0.032684326,0.11735535,-0.22302246,-0.17841797,0.39294434,93.0
118,0.21710825,-0.032684326,0.11735535,-0.22302246,-0.17841797,0.39294434,93.0
119,0.22098875,-0.12792969,-0.05624771,-0.22302246,-0.17841797,0.39294434,93.0
120,0.22098875,-0.12792969,-0.05624771,-0.16461182,-0.1263794,0.38232422,93.0
121,0.1583829,-0.24544525,-0.31861877,-0.16461182,-0.1263794,0.38232422,93.0
122,0.1583829,-0.24544525,-0.31861877,0.027612304,-0.12000733,0.35152587,93.0
123,0.052475452,-0.052444458,-0.45222092,0.027612304,-0.12000733,0.35152587,93.0
124,0.052475452,-0.052444458,-0.45222092,0.021240234,-0.09664307,0.34090576,93.0
125,-0.067382336,0.26478577,-0.48604202,0.021240234,-0.09664307,0.34090576,93.0
126,-0.067382336,0.26478577,-0.48604202,-0.0637207,-0.08283692,0.30161133,93.0
127,-0.12987041,0.32576752,-0.50566864,-0.0637207,-0.08283692,0.30161133,93.0
128,-0.12987041,0.32576752,-0.50566864,-0.047790527,-0.057348635,0.26762697,93.0
129,-0.119838715,0.09636688,-0.4799385,-0.047790527,-0.057348635,0.26762697,93.0
130,-0.119838715,0.09636688,-0.4799385,0.07752686,-0.04141846,0.23682861,93.0
131,-0.09307575,-0.11626434,-0.38131714,0.07752686,-0.04141846,0.23682861,93.0
132,-0.09307575,-0.11626434,-0.38131714,0.13699952,-0.028674318,0.21558838,93.0
133,-0.03661871,-0.10482788,-0.2743988,0.13699952,-0.028674318,0.21558838,93.0
134,-0.03661871,-0.10482788,-0.2743988,0.04991455,-0.028674318,0.1985962,93.0
135,0.030287743,-0.030761719,-0.2597046,0.04991455,-0.028674318,0.1985962,93.0
136,0.030287743,-0.030761719,-0.2597046,-0.052038576,-0.013806152,0.20072022,93.0
137,0.06618595,-0.09637451,-0.3094864,-0.052038576,-0.013806152,0.20072022,93.0
138,0.06618595,-0.09637451,-0.3094864,-0.03717041,-0.011682129,0.19541016,93.0
139,0.04590559,-0.20790863,-0.28590775,-0.03717041,-0.011682129,0.19541016,93.0
140,0.04590559,-0.20790863,-0.28590775,0.0,0.0031860352,0.18054199,93.0
141,-0.019696712,-0.2070694,-0.13537979,0.0,0.0031860352,0.18054199,93.0
142,-0.019696712,-0.2070694,-0.13537979,-0.08602295,0.012744141,0.14549561,93.0
143,-0.07668257,-0.20665741,0.060913086,-0.08602295,0.012744141,0.14549561,93.0
144,-0.07668257,-0.20665741,0.060913086,-0.16461182,0.022302246,0.11682129,93.0
145,-0.09243727,-0.27222443,0.15917969,-0.16461182,0.022302246,0.11682129,93.0
146,-0.09243727,-0.27222443,0.15917969,-0.16885987,0.019116212,0.06478272,93.0
147,-0.0763545,-0.30422974,0.1725235,-0.16885987,0.019116212,0.06478272,93.0
148,-0.0763545,-0.30422974,0.1725235,-0.18054199,0.03079834,0.013806152,93.0
149,-0.040404797,-0.24489594,0.22704315,-0.18054199,0.03079834,0.013806152,93.0
150,-0.040404797,-0.24489594,0.22704315,-0.15505372,0.057348635,-0.057348635,93.0
151,0.05708027,-0.19387817,0.44836807,-0.15505372,0.057348635,-0.057348635,93.0
152,0.05708027,-0.19387817,0.44836807,-0.16354981,0.09133301,-0.115759276,93.0
153,0.2701149,-0.24375153,0.7727928,-0.16354981,0.09133301,-0.115759276,93.0
154,0.2701149,-0.24375153,0.7727928,-0.13381349,0.10407715,-0.1996582,93.0
155,0.62079144,-0.29588318,1.0022697,-0.13381349,0.10407715,-0.1996582,93.0
156,0.62079144,-0.29588318,1.0022697,-0.11257324,0.083898924,-0.27399904,93.0
157,0.8962426,-0.22645569,1.0816727,-0.11257324,0.083898924,-0.27399904,93.0
158,0.8962426,-0.22645569,1.0816727,-0.13806152,0.06584473,-0.28674316,93.0
159,0.93029976,-0.07847595,1.0907516,-0.13806152,0.06584473,-0.28674316,93.0
160,0.93029976,-0.07847595,1.0907516,-0.2623169,0.0031860352,-0.38657227,93.0
161,0.8631973,0.0058135986,1.1242485,-0.2623169,0.0031860352,-0.38657227,93.0
162,0.8631973,0.0058135986,1.1242485,-0.4354248,-0.046728518,-0.4630371,93.0
163,0.78790903,-0.040023804,1.0841408,-0.4354248,-0.046728518,-0.4630371,93.0
164,0.78790903,-0.040023804,1.0841408,-0.48109132,-0.010620117,-0.41524658,93.0
165,0.52465105,-0.037109375,0.6566696,-0.48109132,-0.010620117,-0.41524658,93.0
166,0.52465105,-0.037109375,0.6566696,-0.22833252,0.09133301,-0.26975098,93.0
167,-0.013421059,0.29438782,-0.19165802,-0.22833252,0.09133301,-0.26975098,93.0
168,-0.013421059,0.29438782,-0.19165802,0.012744141,0.2347046,-0.11044922,93.0
169,-0.5258858,0.84187317,-0.9761772,0.012744141,0.2347046,-0.11044922,93.0
170,-0.5258858,0.84187317,-0.9761772,0.032922365,0.32922363,-0.0541626,93.0
171,-0.6230402,1.064209,-1.2243729,0.032922365,0.32922363,-0.0541626,93.0
172,-0.6230402,1.064209,-1.2243729,0.0010620117,0.38232422,-0.06690674,93.0
173,-0.3420477,0.80615234,-0.9814606,0.0010620117,0.38232422,-0.06690674,93.0
174,-0.3420477,0.80615234,-0.9814606,0.02442627,0.36851808,-0.1263794,93.0
175,0.009918928,0.4787445,-0.6424942,0.02442627,0.36851808,-0.1263794,93.0
176,0.009918928,0.4787445,-0.6424942,-0.026550293,0.29311523,-0.19328614,93.0
177,0.26281786,0.34936523,-0.39393997,-0.026550293,0.29311523,-0.19328614,93.0
178,0.26281786,0.34936523,-0.39393997,-0.07965088,0.1996582,-0.25594482,93.0
179,0.33923388,0.3079605,-0.21507645,-0.07965088,0.1996582,-0.25594482,93.0
180,0.33923388,0.3079605,-0.21507645,-0.10407715,0.1359375,-0.2899292,93.0
181,0.25626278,0.25572205,-0.07836151,-0.10407715,0.1359375,-0.2899292,93.0
182,0.25626278,0.25572205,-0.07836151,-0.10089111,0.08071289,-0.30054933,93.0
183,0.08024216,0.23606873,0.033634186,-0.10089111,0.08071289,-0.30054933,93.0
184,0.08024216,0.23606873,0.033634186,-0.083898924,0.019116212,-0.31223145,93.0
185,-0.13154602,0.24600983,0.07512283,-0.083898924,0.019116212,-0.31223145,93.0
186,-0.13154602,0.24600983,0.07512283,-0.090270996,-0.016992187,-0.2984253,93.0
187,-0.3462038,0.24183655,-0.050865173,-0.090270996,-0.016992187,-0.2984253,93.0
188,-0.3462038,0.24183655,-0.050865173,-0.029736329,-0.046728518,-0.32072756,93.0
189,-0.5410135,0.20178223,-0.33761597,-0.029736329,-0.046728518,-0.32072756,93.0
190,-0.5410135,0.20178223,-0.33761597,0.0180542,-0.08071289,-0.37701416,93.0
191,-0.64843583,0.10267639,-0.5249634,0.0180542,-0.08071289,-0.37701416,93.0
192,-0.64843583,0.10267639,-0.5249634,0.08814698,-0.06903076,-0.48321533,93.0
193,-0.6116562,-0.06449127,-0.4469223,0.08814698,-0.06903076,-0.48321533,93.0
194,-0.6116562,-0.06449127,-0.4469223,0.14018555,-0.010620117,-0.54693604,93.0
195,-0.47106314,-0.2349701,-0.24136353,0.14018555,-0.010620117,-0.54693604,93.0
196,-0.47106314,-0.2349701,-0.24136353,0.10195313,0.04885254,-0.6117188,93.0
197,-0.34242678,-0.34025574,-0.051757812,0.10195313,0.04885254,-0.6117188,93.0
198,-0.34242678,-0.34025574,-0.051757812,0.012744141,0.1274414,-0.6042847,93.0
199,-0.2381382,-0.3669815,0.07862854,0.012744141,0.1274414,-0.6042847,93.0
200,-0.2381382,-0.3669815,0.07862854,-0.0998291,0.21558838,-0.56180423,93.0
201,-0.15994406,-0.39064026,0.13104248,-0.0998291,0.21558838,-0.56180423,93.0
202,-0.15994406,-0.39064026,0.13104248,-0.17523193,0.2984253,-0.47578126,93.0
203,-0.13896608,-0.5080795,0.1564331,-0.17523193,0.2984253,-0.47578126,93.0
204,-0.13896608,-0.5080795,0.1564331,-0.081774905,0.3802002,-0.4248047,93.0
205,-0.17313576,-0.51081085,0.1671257,-0.081774905,0.3802002,-0.4248047,93.0
206,-0.17313576,-0.51081085,0.1671257,0.028674318,0.44073486,-0.37382814,93.0
207,-0.28877687,-0.23976898,0.12253189,0.028674318,0.44073486,-0.37382814,93.0
208,-0.28877687,-0.23976898,0.12253189,-0.027612304,0.48427734,-0.28461915,93.0
209,-0.47103643,0.0019607544,0.035087585,-0.027612304,0.48427734,-0.28461915,93.0
210,-0.47103643,0.0019607544,0.035087585,0.07434082,0.46728516,-0.18266602,93.0
211,-0.6283064,0.08946228,-0.019699097,0.07434082,0.46728516,-0.18266602,93.0
212,-0.6283064,0.08946228,-0.019699097,0.24107666,0.42374268,-0.0998291,93.0
213,-0.7177453,0.22214508,0.019187927,0.24107666,0.42374268,-0.0998291,93.0
214,-0.7177453,0.22214508,0.019187927,0.27612305,0.3982544,-0.06796875,93.0
215,-0.8051777,0.38383484,0.11642456,0.27612305,0.3982544,-0.06796875,93.0
216,-0.8051777,0.38383484,0.11642456,0.23151855,0.40356445,-0.07115479,93.0
217,-0.8390393,0.3834839,0.2061882,0.23151855,0.40356445,-0.07115479,93.0
218,-0.8390393,0.3834839,0.2061882,0.26975098,0.40250245,-0.12000733,93.0
219,-0.68004465,0.17938232,0.29227066,0.26975098,0.40250245,-0.12000733,93.0
220,-0.68004465,0.17938232,0.29227066,0.25913087,0.36533204,-0.17523193,93.0
221,-0.29897928,-0.20249176,0.5170288,0.25913087,0.36533204,-0.17523193,93.0
222,-0.29897928,-0.20249176,0.5170288,0.21134034,0.3079834,-0.2623169,93.0
223,0.18173933,-0.63007355,0.89024353,0.21134034,0.3079834,-0.2623169,93.0
224,0.18173933,-0.63007355,0.89024353,0.21027832,0.2814331,-0.32072756,93.0
225,0.18173933,-0.63007355,0.89024353,0.21027832,0.2814331,-0.32072756,93.0
226,0.59155846,-0.8454666,1.1258774,0.21027832,0.2814331,-0.32072756,93.0
227,0.59155846,-0.8454666,1.1258774,0.19647217,0.2516968,-0.35152587,93.0
228,0.825078,-0.6283493,0.95869446,0.19647217,0.2516968,-0.35152587,93.0
229,0.825078,-0.6283493,0.95869446,0.0361084,0.20921631,-0.32603762,93.0
230,0.7518225,-0.13908386,0.5151596,0.0361084,0.20921631,-0.32603762,93.0
231,0.7518225,-0.13908386,0.5151596,-0.18054199,0.23789063,-0.16992188,93.0
232,0.3272152,0.31854248,6.904602E-4,-0.18054199,0.23789063,-0.16992188,93.0
233,0.3272152,0.31854248,6.904602E-4,-0.21240234,0.29205322,0.028674318,93.0
234,-0.23642159,0.68510437,-0.47771835,-0.21240234,0.29205322,0.028674318,93.0
235,-0.23642159,0.68510437,-0.47771835,-0.08602295,0.3462158,0.1996582,93.0
236,-0.598012,0.98010254,-0.8447952,-0.08602295,0.3462158,0.1996582,93.0
237,-0.598012,0.98010254,-0.8447952,0.090270996,0.32922363,0.28355715,93.0
238,-0.6810341,1.1574097,-1.0135078,0.090270996,0.32922363,0.28355715,93.0
239,-0.6810341,1.1574097,-1.0135078,0.23258057,0.25063476,0.22408448,93.0
240,-0.51372385,1.0991364,-0.85902405,0.23258057,0.25063476,0.22408448,93.0
241,-0.51372385,1.0991364,-0.85902405,0.23258057,0.14018555,0.14655761,93.0
242,-0.13671112,0.76216125,-0.36764908,0.23258057,0.14018555,0.14655761,93.0
243,-0.13671112,0.76216125,-0.36764908,0.2262085,0.022302246,0.07752686,93.0
244,0.2685609,0.33712006,0.18198013,0.2262085,0.022302246,0.07752686,93.0
245,0.2685609,0.33712006,0.18198013,0.19541016,-0.093457036,0.04141846,93.0
246,0.5361991,0.04826355,0.5126114,0.19541016,-0.093457036,0.04141846,93.0
247,0.5361991,0.04826355,0.5126114,0.11682129,-0.15611573,0.053100586,93.0
248,0.6415448,-0.020103455,0.6157532,0.11682129,-0.15611573,0.053100586,93.0
249,0.6415448,-0.020103455,0.6157532,0.15717773,-0.16354981,0.14761963,93.0
250,0.590775,0.1861496,0.60206604,0.15717773,-0.16354981,0.14761963,93.0
251,0.590775,0.1861496,0.60206604,0.20603028,-0.14337158,0.1996582,93.0
252,0.4345584,0.48390198,0.5130997,0.20603028,-0.14337158,0.1996582,93.0
253,0.4345584,0.48390198,0.5130997,0.12319336,-0.07752686,0.19222413,93.0
254,0.2493434,0.6296768,0.34168243,0.12319336,-0.07752686,0.19222413,93.0
255,0.2493434,0.6296768,0.34168243,0.06796875,0.021240234,0.115759276,93.0
256,0.09554386,0.6212921,0.030471802,0.06796875,0.021240234,0.115759276,93.0
257,0.09554386,0.6212921,0.030471802,0.0722168,0.107263185,0.011682129,93.0
258,0.015363216,0.57141876,-0.3844719,0.0722168,0.107263185,0.011682129,93.0
259,0.015363216,0.57141876,-0.3844719,0.0998291,0.15611573,-0.107263185,93.0
260,0.0023417473,0.46772003,-0.69220734,0.0998291,0.15611573,-0.107263185,93.0
261,0.0023417473,0.46772003,-0.69220734,0.10938721,0.16885987,-0.1985962,93.0
262,0.011541367,0.29644012,-0.75312805,0.10938721,0.16885987,-0.1985962,93.0
263,0.011541367,0.29644012,-0.75312805,0.16036378,0.16461182,-0.29099122,93.0
264,0.016435146,0.06704712,-0.59978104,0.16036378,0.16461182,-0.29099122,93.0
265,0.016435146,0.06704712,-0.59978104,0.22833252,0.17735596,-0.33240968,93.0
266,0.049500942,-0.14353943,-0.33868408,0.22833252,0.17735596,-0.33240968,93.0
267,0.049500942,-0.14353943,-0.33868408,0.31966552,0.1985962,-0.3802002,93.0
268,0.106580734,-0.18721771,-0.091812134,0.31966552,0.1985962,-0.3802002,93.0
269,0.106580734,-0.18721771,-0.091812134,0.26019287,0.23364258,-0.41843262,93.0
270,0.15666342,-0.06440735,0.057518005,0.26019287,0.23364258,-0.41843262,93.0
271,0.15666342,-0.06440735,0.057518005,0.07646485,0.26868898,-0.47684327,93.0
272,0.11644411,0.074417114,0.07388306,0.07646485,0.26868898,-0.47684327,93.0
273,0.11644411,0.074417114,0.07388306,-0.11044922,0.3079834,-0.5384399,93.0
274,-0.11307049,0.10992432,-7.2142487,-0.11044922,0.3079834,-0.5384399,93.0
275,-0.11307049,0.10992432,-7.2142487,-0.19647217,0.35046387,-0.6435791,93.0
276,-0.5203514,0.053955078,1.412487,-0.19647217,0.35046387,-0.6435791,93.0
277,-0.5203514,0.053955078,1.412487,-0.18160401,0.37807617,-0.73809814,93.0
278,-0.9169893,0.05265808,1.1196518,-0.18160401,0.37807617,-0.73809814,93.0
279,-0.9169893,0.05265808,1.1196518,-0.18797608,0.34727785,-0.91014403,93.0
280,-1.1360936,0.13093567,0.9349785,-0.18797608,0.34727785,-0.91014403,93.0
281,-1.1360936,0.13093567,0.9349785,-0.28674316,0.31435546,-1.0248413,93.0
282,-1.235425,0.08465576,0.83432007,-0.28674316,0.31435546,-1.0248413,93.0
283,-1.235425,0.08465576,0.83432007,-0.3802002,0.22089843,-1.174585,93.0
284,-1.2503638,-0.16949463,0.8337784,-0.3802002,0.22089843,-1.174585,93.0
285,-1.2503638,-0.16949463,0.8337784,-0.3058594,0.14018555,-1.2807862,93.0
286,-1.2261577,-0.3802948,0.86395645,-0.3058594,0.14018555,-1.2807862,93.0
287,-1.2261577,-0.3802948,0.86395645,-0.28780517,0.06584473,-1.2924683,93.0
288,-1.1824031,-0.4478531,0.7893486,-0.28780517,0.06584473,-1.2924683,93.0
289,-1.1824031,-0.4478531,0.7893486,-0.19541016,-0.010620117,-1.2276856,93.0
290,-0.9681759,-0.43462372,0.64953613,-0.19541016,-0.010620117,-1.2276856,93.0
291,-0.9681759,-0.43462372,0.64953613,-0.10301514,-0.03717041,-1.1533448,93.0
292,-0.71210194,-0.6540985,0.5948982,-0.10301514,-0.03717041,-1.1533448,93.0
293,-0.71210194,-0.6540985,0.5948982,0.15717773,-0.13699952,-0.9345703,93.0
294,-0.4361124,-0.53868103,0.5566406,0.15717773,-0.13699952,-0.9345703,93.0
295,-0.4361124,-0.53868103,0.5566406,0.1901001,-0.14974366,-0.85491943,93.0
296,0.13797522,-0.45816803,0.8806915,0.1901001,-0.14974366,-0.85491943,93.0
297,0.13797522,-0.45816803,0.8806915,0.26337892,-0.13381349,-0.6074707,93.0
298,0.31542158,-0.306427,0.84703445,0.26337892,-0.13381349,-0.6074707,93.0
299,0.31542158,-0.306427,0.84703445,0.28674316,-0.1083252,-0.5384399,93.0
300,0.5902276,0.031028748,0.6355362,0.28674316,-0.1083252,-0.5384399,93.0
301,0.5902276,0.031028748,0.6355362,0.21452637,-0.03717041,-0.30267334,93.0
302,0.46919107,0.19791412,0.37080383,0.21452637,-0.03717041,-0.30267334,93.0
303,0.46919107,0.19791412,0.37080383,0.20390625,-0.007434082,-0.24001466,93.0
304,0.18201828,0.40763855,-0.011608124,0.20390625,-0.007434082,-0.24001466,93.0
305,0.18201828,0.40763855,-0.011608124,0.38338622,0.026550293,-0.16885987,93.0
306,0.1030612,0.37615204,-0.008422852,0.38338622,0.026550293,-0.16885987,93.0
307,0.1030612,0.37615204,-0.008422852,0.41843262,0.03717041,-0.16885987,93.0
308,0.07093763,0.31850433,0.11076355,0.41843262,0.03717041,-0.16885987,93.0
309,0.07093763,0.31850433,0.11076355,0.33240968,0.06265869,-0.045666505,93.0
310,0.038879395,0.32034302,0.119895935,0.33240968,0.06265869,-0.045666505,93.0
311,0.038879395,0.32034302,0.119895935,0.30267334,0.060534667,0.011682129,93.0
312,-0.055151463,0.35942078,0.042987823,0.30267334,0.060534667,0.011682129,93.0
313,-0.055151463,0.35942078,0.042987823,0.22302246,0.028674318,0.1444336,93.0
314,-0.21090603,0.32692719,-0.09749603,0.22302246,0.028674318,0.1444336,93.0
315,-0.21090603,0.32692719,-0.09749603,0.059472658,0.0053100586,0.29630128,93.0
316,-0.30019474,-0.0014190674,-0.16704941,0.059472658,0.0053100586,0.29630128,93.0
317,-0.30019474,-0.0014190674,-0.16704941,0.16142578,0.04248047,0.42161867,93.0
318,-0.2741766,-0.53050995,-0.13999939,0.16142578,0.04248047,0.42161867,93.0
319,-0.2741766,-0.53050995,-0.13999939,0.630835,0.028674318,0.5734863,93.0
320,-0.20621872,-0.58006287,-0.11806488,0.630835,0.028674318,0.5734863,93.0
321,-0.20621872,-0.58006287,-0.11806488,0.8485474,-0.008496094,0.7338501,93.0
322,-0.08946228,-0.03954315,-0.15526962,0.8485474,-0.008496094,0.7338501,93.0
323,-0.08946228,-0.03954315,-0.15526962,0.635083,-0.0541626,0.8963379,93.0
324,0.08223915,0.40436554,-0.23073578,0.635083,-0.0541626,0.8963379,93.0
325,0.08223915,0.40436554,-0.23073578,0.55755615,-0.08071289,1.0354614,93.0
326,0.2555256,0.5360489,-0.24428177,0.55755615,-0.08071289,1.0354614,93.0
327,0.2555256,0.5360489,-0.24428177,0.632959,-0.09133301,1.0970582,93.0
328,0.2555256,0.5360489,-0.24428177,0.632959,-0.09133301,1.0970582,94.0
329,0.4952283,0.95116425,-0.25350952,0.632959,-0.09133301,1.0970582,94.0
330,0.4952283,0.95116425,-0.25350952,0.5809204,-0.121069334,1.1182984,94.0
331,0.49136066,1.0520782,-0.23688889,0.5809204,-0.121069334,1.1182984,94.0
332,0.49136066,1.0520782,-0.23688889,0.49489745,-0.10938721,1.1161743,94.0
333,0.5647073,1.3468475,-0.26862335,0.49489745,-0.10938721,1.1161743,94.0
334,0.5647073,1.3468475,-0.26862335,0.32178956,-0.098767094,1.0790039,94.0
335,0.57246923,1.3688889,-0.28940964,0.32178956,-0.098767094,1.0790039,94.0
336,0.57246923,1.3688889,-0.28940964,0.22302246,-0.10195313,0.998291,94.0
337,0.5761514,1.138237,-0.23674011,0.22302246,-0.10195313,0.998291,94.0
338,0.5761514,1.138237,-0.23674011,0.2548828,-0.10620117,0.92501223,94.0
339,0.57884073,0.78196716,-0.2245369,0.2548828,-0.10620117,0.92501223,94.0
340,0.57884073,0.78196716,-0.2245369,0.21346436,-0.19222413,0.8973999,94.0
341,0.5196519,0.49477386,-0.30752563,0.21346436,-0.19222413,0.8973999,94.0
342,0.5196519,0.49477386,-0.30752563,0.18479005,-0.18372802,0.8644776,94.0
343,0.3460803,0.43626404,-0.29158783,0.18479005,-0.18372802,0.8644776,94.0
344,0.3460803,0.43626404,-0.29158783,0.31860352,-0.22196046,0.75509036,94.0
345,0.05953026,0.50888824,-0.16885376,0.31860352,-0.22196046,0.75509036,94.0
346,0.05953026,0.50888824,-0.16885376,0.32072756,-0.270813,0.77951664,94.0
347,-0.15233946,0.5546951,-0.031578064,0.32072756,-0.270813,0.77951664,94.0
348,-0.15233946,0.5546951,-0.031578064,0.1529297,-0.3695801,0.77739257,94.0
349,-0.20176649,0.5030594,0.16143417,0.1529297,-0.3695801,0.77739257,94.0
350,-0.20176649,0.5030594,0.16143417,-0.011682129,-0.45029297,0.8591675,94.0
351,-0.06684494,0.3062439,0.44545364,-0.011682129,-0.45029297,0.8591675,94.0
352,-0.06684494,0.3062439,0.44545364,0.050976563,-0.46409914,0.91864014,94.0
353,0.16832542,0.094314575,0.6715698,0.050976563,-0.46409914,0.91864014,94.0
354,0.16832542,0.094314575,0.6715698,0.09133301,-0.3802002,0.91120607,94.0
355,0.26304197,0.018356323,0.54428864,0.09133301,-0.3802002,0.91120607,94.0
356,0.26304197,0.018356323,0.54428864,-0.121069334,-0.4970215,1.0386475,94.0
357,0.18732595,0.1105957,0.10706329,-0.121069334,-0.4970215,1.0386475,94.0
358,0.18732595,0.1105957,0.10706329,-0.2814331,-0.630835,1.0354614,94.0
359,0.22688723,0.16963959,-0.14592743,-0.2814331,-0.630835,1.0354614,94.0
360,0.22688723,0.16963959,-0.14592743,-0.3791382,-0.6977417,0.9420044,94.0
361,0.45762062,-0.1255188,-0.038009644,-0.3791382,-0.6977417,0.9420044,94.0
362,0.45762062,-0.1255188,-0.038009644,-0.2623169,-0.6446411,0.9632446,94.0
363,0.61273956,-0.6047745,0.20423508,-0.2623169,-0.6446411,0.9632446,94.0
364,0.61273956,-0.6047745,0.20423508,0.14124756,-0.44816896,0.8485474,94.0
365,0.49592876,-0.6335983,0.42611694,0.14124756,-0.44816896,0.8485474,94.0
366,0.49592876,-0.6335983,0.42611694,0.4895874,-0.30054933,0.7880127,94.0
367,0.23738003,-0.07598114,0.4859619,0.4895874,-0.30054933,0.7880127,94.0
368,0.23738003,-0.07598114,0.4859619,0.4439209,-0.20709229,0.813501,94.0
369,0.05952072,0.48485565,0.32639313,0.4439209,-0.20709229,0.813501,94.0
370,0.05952072,0.48485565,0.32639313,0.15823975,-0.18160401,0.77526855,94.0
371,0.101498604,0.5392761,0.10454559,0.15823975,-0.18160401,0.77526855,94.0
372,0.101498604,0.5392761,0.10454559,-0.10301514,-0.13806152,0.74022216,94.0
373,0.41293716,0.13224792,0.040424347,-0.10301514,-0.13806152,0.74022216,94.0
374,0.41293716,0.13224792,0.040424347,-0.058410645,-0.04991455,0.7497803,94.0
375,0.8096709,-0.2756195,0.0894928,-0.058410645,-0.04991455,0.7497803,94.0
376,0.8096709,-0.2756195,0.0894928,0.16461182,0.023364259,0.77102053,94.0
377,0.9516063,-0.13233948,-0.0131492615,0.16461182,0.023364259,0.77102053,94.0
378,0.9516063,-0.13233948,-0.0131492615,0.33984375,0.07646485,0.6945557,94.0
379,0.74518394,0.55218506,-0.27511978,0.33984375,0.07646485,0.6945557,94.0
380,0.74518394,0.55218506,-0.27511978,0.21240234,0.11363526,0.542688,94.0
381,0.44285107,1.0389404,-0.44265747,0.21240234,0.11363526,0.542688,94.0
382,0.44285107,1.0389404,-0.44265747,0.03717041,0.14761963,0.49383545,94.0
383,0.19433212,0.92142487,-0.3481331,0.03717041,0.14761963,0.49383545,94.0
384,0.19433212,0.92142487,-0.3481331,0.1178833,0.21027832,0.38444826,94.0
385,-0.04787922,0.57050323,-0.08533096,0.1178833,0.21027832,0.38444826,94.0
386,-0.04787922,0.57050323,-0.08533096,0.17947999,0.23258057,0.26337892,94.0
387,-0.23862076,0.30490112,0.1072731,0.17947999,0.23258057,0.26337892,94.0
388,-0.23862076,0.30490112,0.1072731,0.078588866,0.21134034,0.21346436,94.0
389,-0.27966595,-0.026771545,0.11128235,0.078588866,0.21134034,0.21346436,94.0
390,-0.27966595,-0.026771545,0.11128235,-0.06796875,0.18585205,0.21240234,94.0
391,-0.2441063,-0.54478455,0.0062026978,-0.06796875,0.18585205,0.21240234,94.0
392,-0.2441063,-0.54478455,0.0062026978,-0.17416993,0.13912354,0.3462158,94.0
393,-0.36630535,-0.9856796,-0.10536194,-0.17416993,0.13912354,0.3462158,94.0
394,-0.36630535,-0.9856796,-0.10536194,-0.21558838,0.027612304,0.46834716,94.0
395,-0.6350241,-1.1151047,-0.20568848,-0.21558838,0.027612304,0.46834716,94.0
396,-0.6350241,-1.1151047,-0.20568848,-0.3525879,-0.07434082,0.62552494,94.0
397,-0.81755304,-0.9977722,-0.27186203,-0.3525879,-0.07434082,0.62552494,94.0
398,-0.81755304,-0.9977722,-0.27186203,-0.43117675,-0.115759276,0.7805786,94.0
399,-0.86031675,-0.78300476,-0.3434677,-0.43117675,-0.115759276,0.7805786,94.0
400,-0.86031675,-0.78300476,-0.3434677,-0.5543701,-0.25700685,0.8623535,94.0
401,-0.7588711,-0.53796387,-0.49797058,-0.5543701,-0.25700685,0.8623535,94.0
402,-0.7588711,-0.53796387,-0.49797058,-0.9154541,-0.36320803,0.94412845,94.0
403,-0.49060535,-0.27374268,-0.44651794,-0.9154541,-0.36320803,0.94412845,94.0
404,-0.49060535,-0.27374268,-0.44651794,-1.1427246,-0.3334717,0.83898926,94.0
405,-0.13325596,-0.048057556,0.04361725,-1.1427246,-0.3334717,0.83898926,94.0
406,-0.13325596,-0.048057556,0.04361725,-1.0790039,-0.2166504,0.59260255,94.0
407,0.14287043,0.008995056,0.5908737,-1.0790039,-0.2166504,0.59260255,94.0
408,0.14287043,0.008995056,0.5908737,-0.47684327,-0.028674318,0.32178956,94.0
409,0.21692085,0.03678894,0.85079956,-0.47684327,-0.028674318,0.32178956,94.0
410,0.21692085,0.03678894,0.85079956,-0.06690674,0.22939454,-0.004248047,94.0
411,0.14218903,0.3110199,0.9179573,-0.06690674,0.22939454,-0.004248047,94.0
412,0.14218903,0.3110199,0.9179573,0.2888672,0.45560303,-0.39400634,94.0
413,0.03336811,0.60614014,0.82530975,0.2888672,0.45560303,-0.39400634,94.0
414,0.03336811,0.60614014,0.82530975,0.67650145,0.6510132,-0.61915284,94.0
415,-0.082558155,0.69348145,0.5171814,0.67650145,0.6510132,-0.61915284,94.0
416,-0.082558155,0.69348145,0.5171814,0.85491943,0.68712157,-0.7104859,94.0
417,-0.14912748,0.6399002,0.038208008,0.85491943,0.68712157,-0.7104859,94.0
418,-0.14912748,0.6399002,0.038208008,0.45560303,0.632959,-0.8028809,94.0
419,-0.07132816,0.3967743,-0.51791763,0.45560303,0.632959,-0.8028809,94.0
420,-0.07132816,0.3967743,-0.51791763,0.45560303,0.632959,-0.8028809,93.0
421,-0.07132816,0.3967743,-0.51791763,-0.22302246,0.5766724,-0.79226077,93.0
422,-0.03280735,-0.20388031,-1.0620651,-0.22302246,0.5766724,-0.79226077,93.0
423,-0.03280735,-0.20388031,-1.0620651,-0.63933104,0.45135498,-0.6414551,93.0
424,-0.21422195,-0.9350281,-1.5064163,-0.63933104,0.45135498,-0.6414551,93.0
425,-0.21422195,-0.9350281,-1.5064163,-0.6180908,0.26125488,-0.49171144,93.0
426,-0.5561676,-1.2901001,-1.7586594,-0.6180908,0.26125488,-0.49171144,93.0
427,-0.5561676,-1.2901001,-1.7586594,-0.43117675,0.0063720704,-0.3993164,93.0
428,-0.883008,-1.1592636,-1.7753258,-0.43117675,0.0063720704,-0.3993164,93.0
429,-0.883008,-1.1592636,-1.7753258,-0.33984375,-0.2803711,-0.32391357,93.0
430,-1.0258646,-0.9652176,-1.5710526,-0.33984375,-0.2803711,-0.32391357,93.0
431,-1.0258646,-0.9652176,-1.5710526,-0.37701416,-0.542688,-0.26550293,93.0
432,-0.9384041,-1.0584412,-1.1922302,-0.37701416,-0.542688,-0.26550293,93.0
433,-0.9384041,-1.0584412,-1.1922302,-0.29736328,-0.7625244,-0.22833252,93.0
434,-0.63572073,-1.2466507,-0.56995773,-0.29736328,-0.7625244,-0.22833252,93.0
435,-0.63572073,-1.2466507,-0.56995773,-0.04885254,-0.7975708,-0.24213867,93.0
436,-0.27835226,-1.0666351,0.27326965,-0.04885254,-0.7975708,-0.24213867,93.0
437,-0.27835226,-1.0666351,0.27326965,0.14974366,-0.7954468,-0.2177124,93.0
438,-0.02374363,-0.49964905,1.0224609,0.14974366,-0.7954468,-0.2177124,93.0
439,-0.02374363,-0.49964905,1.0224609,0.05522461,-0.7497803,-0.1731079,93.0
440,0.17278957,-0.020774841,1.3676529,0.05522461,-0.7497803,-0.1731079,93.0
441,0.17278957,-0.020774841,1.3676529,-0.09664307,-0.66481936,-0.16673584,93.0
442,0.36074162,0.040122986,1.3456497,-0.09664307,-0.66481936,-0.16673584,93.0
443,0.36074162,0.040122986,1.3456497,-0.24001466,-0.5384399,-0.13487549,93.0
444,0.46634007,-0.18321991,1.2799377,-0.24001466,-0.5384399,-0.13487549,93.0
445,0.46634007,-0.18321991,1.2799377,-0.2442627,-0.4354248,-0.11257324,93.0
446,0.47369432,-0.38245392,1.2559814,-0.2442627,-0.4354248,-0.11257324,93.0
447,0.47369432,-0.38245392,1.2559814,-0.09664307,-0.3154175,-0.10620117,93.0
448,0.46178007,-0.39157104,1.1373138,-0.09664307,-0.3154175,-0.10620117,93.0
449,0.46178007,-0.39157104,1.1373138,-0.06690674,-0.22089843,-0.04991455,93.0
450,0.43836927,-0.33625793,0.8903656,-0.06690674,-0.22089843,-0.04991455,93.0
451,0.43836927,-0.33625793,0.8903656,-0.2081543,-0.19116211,0.019116212,93.0
452,0.3857665,-0.42409515,0.55046463,-0.2081543,-0.19116211,0.019116212,93.0
453,0.3857665,-0.42409515,0.55046463,-0.3971924,-0.3058594,0.06159668,93.0
454,0.46891594,-0.77653503,0.2800331,-0.3971924,-0.3058594,0.06159668,93.0
455,0.46891594,-0.77653503,0.2800331,-0.4630371,-0.4609131,0.0722168,93.0
456,0.7424054,-1.2372055,0.31711578,-0.4630371,-0.4609131,0.0722168,93.0
457,0.7424054,-1.2372055,0.31711578,-0.095581055,-0.5140137,0.13168946,93.0
458,0.9519563,-1.34832,0.59983826,-0.095581055,-0.5140137,0.13168946,93.0
459,0.9519563,-1.34832,0.59983826,0.15823975,-0.5703003,0.16248779,93.0
460,1.0916309,-0.87879944,0.79219055,0.15823975,-0.5703003,0.16248779,93.0
461,1.0916309,-0.87879944,0.79219055,0.12850343,-0.5628662,0.2166504,93.0
462,1.2738662,-0.16976166,0.56329346,0.12850343,-0.5628662,0.2166504,93.0
463,1.2738662,-0.16976166,0.56329346,-0.13806152,-0.4694092,0.30161133,93.0
464,1.2878428,0.3452835,-0.17583084,-0.13806152,-0.4694092,0.30161133,93.0
465,1.2878428,0.3452835,-0.17583084,-0.44816896,-0.30267334,0.4715332,93.0
466,0.9541998,0.4867096,-1.018692,-0.44816896,-0.30267334,0.4715332,93.0
467,0.9541998,0.4867096,-1.018692,-0.4970215,-0.1709839,0.61065674,93.0
468,0.53008366,0.24168396,-1.4565926,-0.4970215,-0.1709839,0.61065674,93.0
469,0.53008366,0.24168396,-1.4565926,-0.40462646,-0.09664307,0.6552612,93.0
470,0.34774876,-0.28232574,-1.3238068,-0.40462646,-0.09664307,0.6552612,93.0
471,0.34774876,-0.28232574,-1.3238068,-0.15930176,0.0021240234,0.6711914,93.0
472,0.44454432,-0.75712585,-0.8933716,-0.15930176,0.0021240234,0.6711914,93.0
473,0.44454432,-0.75712585,-0.8933716,0.07965088,0.06903076,0.6435791,93.0
474,0.7104938,-0.8713913,-0.5829315,0.07965088,0.06903076,0.6435791,93.0
475,0.7104938,-0.8713913,-0.5829315,0.24107666,0.1083252,0.5936646,93.0
476,0.9872427,-0.7392273,-0.38047028,0.24107666,0.1083252,0.5936646,93.0
477,0.9872427,-0.7392273,-0.38047028,0.26125488,0.20921631,0.6074707,93.0
478,1.054296,-0.50344086,-0.14513397,0.26125488,0.20921631,0.6074707,93.0
479,1.054296,-0.50344086,-0.14513397,0.19222413,0.27506104,0.65207523,93.0
480,0.8376994,-0.14940643,-0.020866394,0.19222413,0.27506104,0.65207523,93.0
481,0.8376994,-0.14940643,-0.020866394,0.014868164,0.3164795,0.7051758,93.0
482,0.45443702,0.18360901,-0.18632126,0.014868164,0.3164795,0.7051758,93.0
483,0.45443702,0.18360901,-0.18632126,-0.11682129,0.33665773,0.7593384,93.0
484,0.024023294,0.3554001,-0.53517914,-0.11682129,0.33665773,0.7593384,93.0
485,0.024023294,0.3554001,-0.53517914,-0.20178223,0.33240968,0.8251831,93.0
486,-0.38141608,0.4236145,-0.8753128,-0.20178223,0.33240968,0.8251831,93.0
487,-0.38141608,0.4236145,-0.8753128,-0.20709229,0.30161133,0.8527954,93.0
488,-0.7201719,0.4954071,-1.1853333,-0.20709229,0.30161133,0.8527954,93.0
489,-0.7201719,0.4954071,-1.1853333,-0.1731079,0.29948732,0.8400513,93.0
490,-0.91156244,0.55336,-1.3814583,-0.1731079,0.29948732,0.8400513,93.0
491,-0.91156244,0.55336,-1.3814583,-0.1263794,0.30054933,0.8326172,93.0
492,-1.0121357,0.5462036,-1.3456688,-0.1263794,0.30054933,0.8326172,93.0
493,-1.0121357,0.5462036,-1.3456688,-0.09239502,0.27506104,0.8007569,93.0
494,-1.119987,0.46500397,-1.1102257,-0.09239502,0.27506104,0.8007569,93.0
495,-1.119987,0.46500397,-1.1102257,-0.04885254,0.21558838,0.72854006,93.0
496,-1.1875305,0.31393433,-0.8091278,-0.04885254,0.21558838,0.72854006,93.0
497,-1.1875305,0.31393433,-0.8091278,0.014868164,0.14761963,0.6202149,93.0
498,-1.1697755,0.12541199,-0.5841522,0.014868164,0.14761963,0.6202149,93.0
499,-1.1697755,0.12541199,-0.5841522,0.03717041,0.07434082,0.50233155,93.0
500,-1.080071,-0.044052124,-0.3910904,0.03717041,0.07434082,0.50233155,93.0
501,-1.080071,-0.044052124,-0.3910904,0.032922365,0.0021240234,0.36002198,93.0
502,-0.925385,-0.26867676,-0.04853058,0.032922365,0.0021240234,0.36002198,93.0
503,-0.925385,-0.26867676,-0.04853058,0.016992187,-0.087084964,0.21877442,93.0
504,-0.6002202,-0.58729553,0.51297,0.016992187,-0.087084964,0.21877442,93.0
505,-0.6002202,-0.58729553,0.51297,0.081774905,-0.1539917,0.029736329,93.0
506,-0.044128418,-0.8660202,1.1766357,0.081774905,-0.1539917,0.029736329,93.0
507,-0.044128418,-0.8660202,1.1766357,0.13699952,-0.14974366,-0.10620117,93.0
508,0.48009014,-0.8844147,1.6738777,0.13699952,-0.14974366,-0.10620117,93.0
509,0.48009014,-0.8844147,1.6738777,0.1263794,-0.14230958,-0.10195313,93.0
510,0.6639061,-0.4897232,1.8192673,0.1263794,-0.14230958,-0.10195313,93.0
511,0.6639061,-0.4897232,1.8192673,0.08814698,-0.17416993,-0.1529297,93.0
512,0.7290621,0.061172485,1.7698784,0.08814698,-0.17416993,-0.1529297,93.0
513,0.7290621,0.061172485,1.7698784,0.081774905,-0.16779785,-0.24957275,93.0
514,0.993052,0.3695526,1.7883759,0.081774905,-0.16779785,-0.24957275,93.0
515,0.993052,0.3695526,1.7883759,-0.012744141,-0.12956543,-0.5076416,93.0
516,1.2968221,0.40808105,1.7769661,-0.012744141,-0.12956543,-0.5076416,93.0
517,1.2968221,0.40808105,1.7769661,-0.19647217,-0.040356446,-0.7476563,93.0
518,1.3455143,0.33634186,1.5059509,-0.19647217,-0.040356446,-0.7476563,93.0
519,1.3455143,0.33634186,1.5059509,-0.49383545,-0.03186035,-1.0269654,93.0
520,1.2034988,0.17253876,1.0237656,-0.49383545,-0.03186035,-1.0269654,93.0
521,1.2034988,0.17253876,1.0237656,-0.6786255,0.004248047,-1.1406006,93.0
522,0.87848496,-0.011550903,0.40546417,-0.6786255,0.004248047,-1.1406006,93.0
523,0.87848496,-0.011550903,0.40546417,-0.8527954,0.040356446,-1.084314,93.0
524,0.32379627,-0.23364258,-0.28762817,-0.8527954,0.040356446,-1.084314,93.0
525,0.32379627,-0.23364258,-0.28762817,-0.8050049,0.043542482,-0.88996583,93.0
526,-0.16095805,-0.5917587,-0.74396896,-0.8050049,0.043542482,-0.88996583,93.0
527,-0.16095805,-0.5917587,-0.74396896,-0.34833986,-0.03186035,-0.7317261,93.0
528,-0.26500893,-0.83084106,-0.68549347,-0.34833986,-0.03186035,-0.7317261,93.0
529,-0.26500893,-0.83084106,-0.68549347,-0.02442627,-0.14337158,-0.56605226,93.0
530,0.046550035,-0.774292,-0.35279083,-0.02442627,-0.14337158,-0.56605226,93.0
531,0.046550035,-0.774292,-0.35279083,0.07115479,-0.20072022,-0.43117675,93.0
532,0.046550035,-0.774292,-0.35279083,0.07115479,-0.20072022,-0.43117675,93.0
533,0.4127648,-0.48270416,-0.18484497,0.07115479,-0.20072022,-0.43117675,93.0
534,0.4127648,-0.48270416,-0.18484497,-0.022302246,-0.16036378,-0.32497558,93.0
535,0.4595332,-0.07396698,-0.49544907,-0.022302246,-0.16036378,-0.32497558,93.0
536,0.4595332,-0.07396698,-0.49544907,-0.20921631,-0.07434082,-0.2538208,93.0
537,0.12518287,0.27230072,-1.1944771,-0.20921631,-0.07434082,-0.2538208,93.0
538,0.12518287,0.27230072,-1.1944771,-0.33984375,0.016992187,-0.20178223,93.0
539,-0.431067,0.37363434,-1.8585014,-0.33984375,0.016992187,-0.20178223,93.0
540,-0.431067,0.37363434,-1.8585014,-0.32709962,0.10513916,-0.21558838,93.0
541,-0.8572681,0.19966125,-2.0947113,-0.32709962,0.10513916,-0.21558838,93.0
542,-0.8572681,0.19966125,-2.0947113,-0.1444336,0.15080567,-0.27612305,93.0
543,-0.93035793,-0.045532227,-1.8444328,-0.1444336,0.15080567,-0.27612305,93.0
544,-0.93035793,-0.045532227,-1.8444328,0.08283692,0.19541016,-0.3536499,93.0
545,-0.7869501,-0.054527283,-1.3532104,0.08283692,0.19541016,-0.3536499,93.0
546,-0.7869501,-0.054527283,-1.3532104,0.124255374,0.22302246,-0.40993652,93.0
547,-0.6578927,0.16972351,-1.0427971,0.124255374,0.22302246,-0.40993652,93.0
548,-0.6578927,0.16972351,-1.0427971,-0.019116212,0.22727051,-0.48321533,93.0
549,-0.6578927,0.16972351,-1.0427971,-0.16992188,0.22089843,-0.5299439,93.0
550,-0.5693073,0.28646088,-0.9821358,-0.16992188,0.22089843,-0.5299439,93.0
551,-0.45232105,0.03929901,-0.7839508,-0.16992188,0.22089843,-0.5299439,93.0
552,-0.45232105,0.03929901,-0.7839508,-0.18691407,0.22302246,-0.51188964,93.0
553,-0.38151026,-0.34008026,-0.26701736,-0.18691407,0.22302246,-0.51188964,93.0
554,-0.38151026,-0.34008026,-0.26701736,-0.083898924,0.23258057,-0.47684327,93.0
555,-0.39732265,-0.490036,0.322052,-0.083898924,0.23258057,-0.47684327,93.0
556,-0.39732265,-0.490036,0.322052,-0.05628662,0.22514649,-0.4056885,93.0
557,-0.48216486,-0.2904129,0.65172195,-0.05628662,0.22514649,-0.4056885,93.0
558,-0.48216486,-0.2904129,0.65172195,-0.13381349,0.20921631,-0.33240968,93.0
559,-0.62511206,0.04664612,0.74222565,-0.13381349,0.20921631,-0.33240968,93.0
560,-0.62511206,0.04664612,0.74222565,-0.26337892,0.21346436,-0.22939454,93.0
561,-0.75007725,0.17157745,0.8121643,-0.26337892,0.21346436,-0.22939454,93.0
562,-0.75007725,0.17157745,0.8121643,-0.2442627,0.20072022,-0.1731079,93.0
563,-0.7270031,-0.042922974,0.9549103,-0.2442627,0.20072022,-0.1731079,93.0
564,-0.7270031,-0.042922974,0.9549103,-0.05628662,0.21027832,-0.1444336,93.0
565,-0.50256205,-0.30659485,1.1308594,-0.05628662,0.21027832,-0.1444336,93.0
566,-0.50256205,-0.30659485,1.1308594,0.121069334,0.18372802,-0.15080567,93.0
567,-0.13769388,-0.39340973,1.2524643,0.121069334,0.18372802,-0.15080567,93.0
568,-0.13769388,-0.39340973,1.2524643,0.16673584,0.16779785,-0.14230958,93.0
569,0.28513288,-0.36079407,1.2948532,0.16673584,0.16779785,-0.14230958,93.0
570,0.28513288,-0.36079407,1.2948532,0.21877442,0.14337158,-0.09239502,93.0
571,0.5859556,-0.15983582,1.3228455,0.21877442,0.14337158,-0.09239502,93.0
572,0.5859556,-0.15983582,1.3228455,0.1178833,0.081774905,-0.07434082,93.0
573,0.69454575,0.1819992,1.444725,0.1178833,0.081774905,-0.07434082,93.0
574,0.69454575,0.1819992,1.444725,-0.16779785,-0.009558106,-0.21027832,93.0
575,0.81336355,0.21381378,1.5984077,-0.16779785,-0.009558106,-0.21027832,93.0
576,0.81336355,0.21381378,1.5984077,-0.38975832,-0.09664307,-0.40250245,93.0
577,1.1322703,-0.3075714,1.5453873,-0.38975832,-0.09664307,-0.40250245,93.0
578,1.1322703,-0.3075714,1.5453873,-0.3355957,-0.10620117,-0.54693604,93.0
579,1.5568538,-0.80843353,1.1794739,-0.3355957,-0.10620117,-0.54693604,93.0
580,1.5568538,-0.80843353,1.1794739,-0.10195313,0.008496094,-0.4630371,93.0
581,1.6634884,-0.5901184,0.5423584,-0.10195313,0.008496094,-0.4630371,93.0
582,1.6634884,-0.5901184,0.5423584,0.02442627,0.10089111,-0.33984375,93.0
583,1.3256273,0.121032715,-0.18928528,0.02442627,0.10089111,-0.33984375,93.0
584,1.3256273,0.121032715,-0.18928528,-0.06796875,0.16779785,-0.22939454,93.0
585,0.8580606,0.57121277,-0.7648773,-0.06796875,0.16779785,-0.22939454,93.0
586,0.8580606,0.57121277,-0.7648773,-0.060534667,0.16567384,-0.1996582,93.0
587,0.5025983,0.56996155,-1.081398,-0.060534667,0.16567384,-0.1996582,93.0
588,0.5025983,0.56996155,-1.081398,0.10938721,0.19434814,-0.16461182,93.0
589,0.34763527,0.48004913,-1.1887512,0.10938721,0.19434814,-0.16461182,93.0
590,0.34763527,0.48004913,-1.1887512,0.27293703,0.20496826,-0.12956543,93.0
591,0.25755167,0.58480835,-1.2307129,0.27293703,0.20496826,-0.12956543,93.0
592,0.25755167,0.58480835,-1.2307129,0.25806886,0.1985962,-0.118945315,93.0
593,0.11442757,0.7367096,-1.2466545,0.25806886,0.1985962,-0.118945315,93.0
594,0.11442757,0.7367096,-1.2466545,0.16354981,0.20496826,-0.10301514,93.0
595,-0.08639979,0.74147034,-1.2125587,0.16354981,0.20496826,-0.10301514,93.0
596,-0.08639979,0.74147034,-1.2125587,0.07646485,0.1731079,-0.07646485,93.0
597,-0.32120728,0.6253433,-1.1343689,0.07646485,0.1731079,-0.07646485,93.0
598,-0.32120728,0.6253433,-1.1343689,-0.0010620117,0.15611573,-0.07540283,93.0
599,-0.50109434,0.47886658,-1.0046883,-0.0010620117,0.15611573,-0.07540283,93.0
600,-0.50109434,0.47886658,-1.0046883,-0.028674318,0.16142578,-0.08283692,93.0
601,-0.6204922,0.3874054,-0.88336563,-0.028674318,0.16142578,-0.08283692,93.0
602,-0.6204922,0.3874054,-0.88336563,-0.07646485,0.19434814,-0.1083252,93.0
603,-0.69885945,0.30068207,-0.8573532,-0.07646485,0.19434814,-0.1083252,93.0
604,-0.69885945,0.30068207,-0.8573532,-0.13487549,0.23682861,-0.18266602,93.0
605,-0.6809015,0.08979797,-0.8490639,-0.13487549,0.23682861,-0.18266602,93.0
606,-0.6809015,0.08979797,-0.8490639,-0.07752686,0.28568116,-0.21027832,93.0
607,-0.66967225,-0.14402008,-0.7543335,-0.07752686,0.28568116,-0.21027832,93.0
608,-0.66967225,-0.14402008,-0.7543335,0.008496094,0.3090454,-0.23895264,93.0
609,-0.7156694,-0.10562897,-0.6354141,0.008496094,0.3090454,-0.23895264,93.0
610,-0.7156694,-0.10562897,-0.6354141,-0.06265869,0.2888672,-0.25063476,93.0
611,-0.72522116,0.11908722,-0.60432816,-0.06265869,0.2888672,-0.25063476,93.0
612,-0.72522116,0.11908722,-0.60432816,-0.22196046,0.25594482,-0.2527588,93.0
613,-0.6825819,0.21553802,-0.59978485,-0.22196046,0.25594482,-0.2527588,93.0
614,-0.6825819,0.21553802,-0.59978485,-0.3058594,0.20603028,-0.27612305,93.0
615,-0.66851425,0.14392853,-0.4801712,-0.3058594,0.20603028,-0.27612305,93.0
616,-0.66851425,0.14392853,-0.4801712,-0.23895264,0.22089843,-0.3164795,93.0
617,-0.71565866,0.01826477,-0.15731812,-0.23895264,0.22089843,-0.3164795,93.0
618,-0.71565866,0.01826477,-0.15731812,-0.043542482,0.2623169,-0.41206056,93.0
619,-0.66840076,-0.06594086,0.26720047,-0.043542482,0.2623169,-0.41206056,93.0
620,-0.66840076,-0.06594086,0.26720047,0.14868164,0.2814331,-0.53737795,93.0
621,-0.43218136,-0.020904541,0.68481827,0.14868164,0.2814331,-0.53737795,93.0
622,-0.43218136,-0.020904541,0.68481827,0.16461182,0.29205322,-0.70092773,93.0
623,-0.43218136,-0.020904541,0.68481827,0.16461182,0.29205322,-0.70092773,92.0
624,-0.10363054,0.09199524,1.0400772,0.16461182,0.29205322,-0.70092773,92.0
625,-0.10363054,0.09199524,1.0400772,-0.021240234,0.28355715,-0.8442993,92.0
626,0.24335289,0.07622528,1.2025719,-0.021240234,0.28355715,-0.8442993,92.0
627,0.24335289,0.07622528,1.2025719,-0.19222413,0.3154175,-0.9324463,92.0
628,0.5071578,-0.06990814,1.1840057,-0.19222413,0.3154175,-0.9324463,92.0
629,0.5071578,-0.06990814,1.1840057,-0.1359375,0.3440918,-0.9717407,92.0
630,0.53125095,-0.063835144,1.2504501,-0.1359375,0.3440918,-0.9717407,92.0
631,0.53125095,-0.063835144,1.2504501,0.078588866,0.36851808,-0.98236084,92.0
632,0.40012312,0.2257309,1.5263596,0.078588866,0.36851808,-0.98236084,92.0
633,0.40012312,0.2257309,1.5263596,0.26444092,0.3430298,-1.09281,92.0
634,0.5320978,0.53718567,1.7862015,0.26444092,0.3430298,-1.09281,92.0
635,0.5320978,0.53718567,1.7862015,0.23789063,0.21877442,-1.5165528,92.0
636,1.0961859,0.53593445,1.9401779,0.23789063,0.21877442,-1.5165528,92.0
637,1.0961859,0.53593445,1.9401779,0.04248047,0.14868164,-1.9201173,92.0
638,1.6483719,0.13767242,2.0831604,0.04248047,0.14868164,-1.9201173,92.0
639,1.6483719,0.13767242,2.0831604,-0.3982544,0.13912354,-2.173938,92.0
640,1.866488,-0.49850464,2.1053963,-0.3982544,0.13912354,-2.173938,92.0
641,1.866488,-0.49850464,2.1053963,-0.44498292,0.16142578,-2.2514648,92.0
642,1.6117694,-0.7795563,1.6337318,-0.44498292,0.16142578,-2.2514648,92.0
643,1.6117694,-0.7795563,1.6337318,-0.31860352,0.19116211,-1.9817139,92.0
644,0.8579459,-0.3500595,0.6090698,-0.31860352,0.19116211,-1.9817139,92.0
645,0.8579459,-0.3500595,0.6090698,-0.4439209,0.15930176,-1.6174439,92.0
646,0.14148378,0.110710144,-0.39395905,-0.4439209,0.15930176,-1.6174439,92.0
647,0.14148378,0.110710144,-0.39395905,-0.40144044,0.098767094,-1.3243287,92.0
648,-0.11280179,0.08720398,-0.9289017,-0.40144044,0.098767094,-1.3243287,92.0
649,-0.11280179,0.08720398,-0.9289017,-0.17735596,0.046728518,-1.2160034,92.0
650,0.015715599,-0.057510376,-1.021637,-0.17735596,0.046728518,-1.2160034,92.0
651,0.015715599,-0.057510376,-1.021637,-0.028674318,0.081774905,-1.178833,92.0
652,0.22180104,0.08215332,-1.1283455,-0.028674318,0.081774905,-1.178833,92.0
653,0.22180104,0.08215332,-1.1283455,-0.014868164,0.15186767,-1.1490967,92.0
654,0.16231632,0.46956635,-1.565445,-0.014868164,0.15186767,-1.1490967,92.0
655,0.16231632,0.46956635,-1.565445,-0.15823975,0.26019287,-1.1193603,92.0
656,-0.13980031,0.7453079,-2.0559235,-0.15823975,0.26019287,-1.1193603,92.0
657,-0.13980031,0.7453079,-2.0559235,-0.29099122,0.33771974,-1.1076783,92.0
658,-0.42930865,0.66490173,-2.15316,-0.29099122,0.33771974,-1.1076783,92.0
659,-0.42930865,0.66490173,-2.15316,-0.25594482,0.4163086,-1.1629028,92.0
660,-0.5138571,0.3077774,-1.8386154,-0.25594482,0.4163086,-1.1629028,92.0
661,-0.5138571,0.3077774,-1.8386154,-0.11682129,0.4959595,-1.1947632,92.0
662,-0.51941085,0.09811401,-1.5023994,-0.11682129,0.4959595,-1.1947632,92.0
663,-0.51941085,0.09811401,-1.5023994,0.022302246,0.5713623,-1.268042,92.0
664,-0.64076066,0.27433777,-1.4034691,0.022302246,0.5713623,-1.268042,92.0
665,-0.64076066,0.27433777,-1.4034691,-0.09133301,0.58198243,-1.3434448,92.0
666,-0.78954935,0.49284363,-1.3592606,-0.09133301,0.58198243,-1.3434448,92.0
667,-0.78954935,0.49284363,-1.3592606,-0.23789063,0.54693604,-1.4337158,92.0
668,-0.87160516,0.31835938,-1.0952225,-0.23789063,0.54693604,-1.4337158,92.0
669,-0.87160516,0.31835938,-1.0952225,-0.2824951,0.51082766,-1.4804443,92.0
670,-0.921222,-0.12058258,-0.60167694,-0.2824951,0.51082766,-1.4804443,92.0
671,-0.921222,-0.12058258,-0.60167694,-0.2347046,0.45560303,-1.537793,92.0
672,-0.9462671,-0.40945435,-0.13163757,-0.2347046,0.45560303,-1.537793,92.0
673,-0.9462671,-0.40945435,-0.13163757,-0.2166504,0.3971924,-1.540979,92.0
674,-0.91560745,-0.42269135,0.16991043,-0.2166504,0.3971924,-1.540979,92.0
675,-0.91560745,-0.42269135,0.16991043,-0.28568116,0.3079834,-1.4825684,92.0
676,-0.82462454,-0.38013458,0.4227333,-0.28568116,0.3079834,-1.4825684,92.0
677,-0.82462454,-0.38013458,0.4227333,-0.36533204,0.22408448,-1.4082276,92.0
678,-0.6355667,-0.48558044,0.77279663,-0.36533204,0.22408448,-1.4082276,92.0
679,-0.6355667,-0.48558044,0.77279663,-0.4333008,0.17523193,-1.3253907,92.0
680,-0.41847515,-0.66350555,1.1419563,-0.4333008,0.17523193,-1.3253907,92.0
681,-0.41847515,-0.66350555,1.1419563,-0.46409914,0.15930176,-1.263794,92.0
682,-0.24261713,-0.72016907,1.3250542,-0.46409914,0.15930176,-1.263794,92.0
683,-0.24261713,-0.72016907,1.3250542,-0.49277344,0.15080567,-1.2160034,92.0
684,-0.050709724,-0.6428604,1.2685013,-0.49277344,0.15080567,-1.2160034,92.0
685,-0.050709724,-0.6428604,1.2685013,-0.4078125,0.095581055,-1.1873292,92.0
686,0.19818974,-0.55516815,1.2312927,-0.4078125,0.095581055,-1.1873292,92.0
687,0.19818974,-0.55516815,1.2312927,-0.33134767,0.05628662,-1.0790039,92.0
688,0.447834,-0.48902893,1.5607681,-0.33134767,0.05628662,-1.0790039,92.0
689,0.447834,-0.48902893,1.5607681,-0.2527588,-0.04991455,-1.1597168,92.0
690,0.904654,-0.5204849,2.2181854,-0.2527588,-0.04991455,-1.1597168,92.0
691,0.904654,-0.5204849,2.2181854,-0.2803711,-0.10513916,-1.3020264,92.0
692,1.6650805,-0.74710846,2.7750854,-0.2803711,-0.10513916,-1.3020264,92.0
693,1.6650805,-0.74710846,2.7750854,-0.35577393,-0.124255374,-1.4369019,92.0
694,2.3006558,-0.8650589,2.714367,-0.35577393,-0.124255374,-1.4369019,92.0
695,2.3006558,-0.8650589,2.714367,-0.32922363,-0.013806152,-1.3253907,92.0
696,2.2813938,-0.4133377,1.8557587,-0.32922363,-0.013806152,-1.3253907,92.0
697,2.2813938,-0.4133377,1.8557587,-0.4088745,0.26656494,-0.8995239,92.0
698,1.512151,0.5091629,0.5310173,-0.4088745,0.26656494,-0.8995239,92.0
699,1.512151,0.5091629,0.5310173,-0.54375,0.4885254,-0.42161867,92.0
700,0.47751856,1.3078156,-0.6376114,-0.54375,0.4885254,-0.42161867,92.0
701,0.47751856,1.3078156,-0.6376114,-0.52675784,0.6202149,-0.14230958,92.0
702,-0.2382977,1.5779037,-1.176239,-0.52675784,0.6202149,-0.14230958,92.0
703,-0.2382977,1.5779037,-1.176239,-0.33240968,0.7083618,-0.08283692,92.0
704,-0.43833113,1.4454498,-1.1578827,-0.33240968,0.7083618,-0.08283692,92.0
705,-0.43833113,1.4454498,-1.1578827,-0.070092775,0.7848267,-0.12850343,92.0
706,-0.23833585,1.2271347,-1.0223007,-0.070092775,0.7848267,-0.12850343,92.0
707,-0.23833585,1.2271347,-1.0223007,0.11363526,0.8485474,-0.20709229,92.0
708,0.13182878,1.0431442,-1.0070381,0.11363526,0.8485474,-0.20709229,92.0
709,0.13182878,1.0431442,-1.0070381,0.1901001,0.83898926,-0.2516968,92.0
710,0.39461112,0.8729172,-1.0410423,0.1901001,0.83898926,-0.2516968,92.0
711,0.39461112,0.8729172,-1.0410423,0.19647217,0.77102053,-0.27293703,92.0
712,0.3785429,0.65426636,-0.97024536,0.19647217,0.77102053,-0.27293703,92.0
713,0.3785429,0.65426636,-0.97024536,0.1274414,0.74022216,-0.21558838,92.0
714,0.10321283,0.413208,-0.8376694,0.1274414,0.74022216,-0.21558838,92.0
715,0.10321283,0.413208,-0.8376694,0.1263794,0.6796875,-0.20390625,92.0
716,-0.25364804,0.20835876,-0.8170929,0.1263794,0.6796875,-0.20390625,92.0
717,-0.25364804,0.20835876,-0.8170929,0.20603028,0.6616333,-0.20390625,92.0
718,-0.4632213,0.079940796,-0.81396484,0.20603028,0.6616333,-0.20390625,92.0
719,-0.4632213,0.079940796,-0.81396484,0.4800293,0.62340087,-0.2262085,92.0
720,-0.57318926,0.20954895,-0.7401123,0.4800293,0.62340087,-0.2262085,92.0
721,-0.57318926,0.20954895,-0.7401123,0.6064087,0.5766724,-0.28461915,92.0
722,-0.6934147,0.5652542,-0.6613045,0.6064087,0.5766724,-0.28461915,92.0
723,-0.6934147,0.5652542,-0.6613045,0.4343628,0.5214478,-0.37701416,92.0
724,-0.7990923,0.718956,-0.5797653,0.4343628,0.5214478,-0.37701416,92.0
725,-0.7990923,0.718956,-0.5797653,0.29523927,0.46728516,-0.4800293,92.0
726,-0.8470373,0.47105408,-0.516243,0.29523927,0.46728516,-0.4800293,92.0
727,-0.8470373,0.47105408,-0.516243,0.3727661,0.42692873,-0.59472656,92.0
728,-0.83353806,0.17991638,-0.48833466,0.3727661,0.42692873,-0.59472656,92.0
729,-0.83353806,0.17991638,-0.48833466,0.41843262,0.40250245,-0.71579593,92.0
730,-0.8133271,0.14888,-0.4039116,0.41843262,0.40250245,-0.71579593,92.0
731,-0.8133271,0.14888,-0.4039116,0.41843262,0.40250245,-0.71579593,92.0
732,-0.8133271,0.14888,-0.4039116,0.30161133,0.4078125,-0.8358032,92.0
733,-0.7492213,0.17086029,-0.29397583,0.30161133,0.4078125,-0.8358032,92.0
734,-0.7492213,0.17086029,-0.29397583,0.2081543,0.41099855,-0.9600586,92.0
735,-0.62640333,0.07093811,-0.25291824,0.2081543,0.41099855,-0.9600586,92.0
736,-0.62640333,0.07093811,-0.25291824,0.17841797,0.42268068,-1.0768799,92.0
737,-0.556921,-0.061035156,-0.20209122,0.17841797,0.42268068,-1.0768799,92.0
738,-0.556921,-0.061035156,-0.20209122,0.12319336,0.4439209,-1.1565307,92.0
739,-0.61329794,-0.19618225,0.01574707,0.12319336,0.4439209,-1.1565307,92.0
740,-0.61329794,-0.19618225,0.01574707,0.16885987,0.5055176,-1.1618408,92.0
741,-0.7562876,-0.22709656,0.3737793,0.16885987,0.5055176,-1.1618408,92.0
742,-0.7562876,-0.22709656,0.3737793,0.32178956,0.5787964,-1.1331666,92.0
743,-0.8641243,-0.009719849,0.6582527,0.32178956,0.5787964,-1.1331666,92.0
744,-0.8641243,-0.009719849,0.6582527,0.38763428,0.6435791,-1.1395386,92.0
745,-0.73386526,0.29785156,0.8497009,0.38763428,0.6435791,-1.1395386,92.0
746,-0.73386526,0.29785156,0.8497009,0.34940186,0.631897,-1.2988404,92.0
747,-0.3497877,0.47480774,1.1416855,0.34940186,0.631897,-1.2988404,92.0
748,-0.3497877,0.47480774,1.1416855,0.16885987,0.6796875,-1.4900025,92.0
749,-0.051424503,0.4892807,1.428009,0.16885987,0.6796875,-1.4900025,92.0
750,-0.051424503,0.4892807,1.428009,-0.19753419,0.7062378,-1.6747925,92.0
751,0.041904926,0.29768372,1.4672966,-0.19753419,0.7062378,-1.6747925,92.0
752,0.041904926,0.29768372,1.4672966,-0.51082766,0.6467652,-1.9625977,92.0
753,0.23371935,-0.10559082,1.3135376,-0.51082766,0.6467652,-1.9625977,92.0
754,0.23371935,-0.10559082,1.3135376,-0.7168579,0.65844727,-2.1973023,92.0
755,0.2703128,-0.43914795,0.9572983,-0.7168579,0.65844727,-2.1973023,92.0
756,0.2703128,-0.43914795,0.9572983,-0.84748536,0.7062378,-2.0964112,92.0
757,-0.29694557,-0.32377625,0.23567581,-0.84748536,0.7062378,-2.0964112,92.0
758,-0.29694557,-0.32377625,0.23567581,-0.8623535,0.6616333,-1.8765748,92.0
759,-0.9612136,0.04460144,-0.59207153,-0.8623535,0.6616333,-1.8765748,92.0
760,-0.9612136,0.04460144,-0.59207153,-0.9568726,0.541626,-1.6896607,92.0
761,-1.0756602,0.036849976,-1.1375618,-0.9568726,0.541626,-1.6896607,92.0
762,-1.0756602,0.036849976,-1.1375618,-0.9759888,0.38657227,-1.628064,92.0
763,-0.67022085,-0.40409088,-1.377945,-0.9759888,0.38657227,-1.628064,92.0
764,-0.67022085,-0.40409088,-1.377945,-0.90695804,0.18585205,-1.6652344,92.0
765,-0.08280754,-0.74689484,-1.4986343,-0.90695804,0.18585205,-1.6652344,92.0
766,-0.08280754,-0.74689484,-1.4986343,-0.9388184,-0.07646485,-1.7448853,92.0
767,0.3708148,-0.7338562,-1.6868591,-0.9388184,-0.07646485,-1.7448853,92.0
768,0.3708148,-0.7338562,-1.6868591,-1.1639649,-0.35577393,-1.8022339,92.0
769,0.47808456,-0.5634384,-2.0061188,-1.1639649,-0.35577393,-1.8022339,92.0
770,0.47808456,-0.5634384,-2.0061188,-1.4687623,-0.7104859,-1.8680786,92.0
771,0.22431326,-0.38414,-2.334362,-1.4687623,-0.7104859,-1.8680786,92.0
772,0.22431326,-0.38414,-2.334362,-1.7894897,-1.0906861,-1.9349854,92.0
773,-0.12755632,-0.3007202,-2.5420876,-1.7894897,-1.0906861,-1.9349854,92.0
774,-0.12755632,-0.3007202,-2.5420876,-2.1112792,-1.5218629,-2.0380006,92.0
775,-0.18941069,-0.36722565,-2.6151657,-2.1112792,-1.5218629,-2.0380006,92.0
776,-0.18941069,-0.36722565,-2.6151657,-2.4160767,-1.9700317,-2.162256,92.0
777,0.22867155,-0.53162384,-2.5738602,-2.4160767,-1.9700317,-2.162256,92.0
778,0.22867155,-0.53162384,-2.5738602,-2.6741455,-2.4235108,-2.3141236,92.0
779,1.0474272,-0.7792282,-2.477436,-2.6741455,-2.4235108,-2.3141236,92.0
780,1.0474272,-0.7792282,-2.477436,-2.6571534,-2.7814088,-2.6603394,92.0
781,2.1027489,-1.0220642,-2.36792,-2.6571534,-2.7814088,-2.6603394,92.0
782,2.1027489,-1.0220642,-2.36792,-2.3343017,-3.1201904,-3.1106324,92.0
783,3.3894255,-1.0840912,-2.2065544,-2.3343017,-3.1201904,-3.1106324,92.0
784,3.3894255,-1.0840912,-2.2065544,-1.9806519,-3.4302979,-3.6384523,92.0
785,5.0143237,-0.9724579,-2.0297318,-1.9806519,-3.4302979,-3.6384523,92.0
786,5.0143237,-0.9724579,-2.0297318,-1.7703736,-3.6713746,-4.1885743,92.0
787,5.7193084,-0.6172714,-2.0190964,-1.7703736,-3.6713746,-4.1885743,92.0
788,5.7193084,-0.6172714,-2.0190964,-1.6758546,-3.7510254,-4.483814,92.0
789,9.248213,-0.30480194,-1.8831367,-1.6758546,-3.7510254,-4.483814,92.0
790,9.248213,-0.30480194,-1.8831367,-1.1607789,-3.7414672,-5.3153687,92.0
791,9.591967,0.2735672,-1.8315849,-1.1607789,-3.7414672,-5.3153687,92.0
792,9.591967,0.2735672,-1.8315849,-0.83474123,-3.6575685,-5.516089,92.0
793,12.610133,0.46794128,-1.1244011,-0.83474123,-3.6575685,-5.516089,92.0
794,12.610133,0.46794128,-1.1244011,0.69986576,-2.797339,-5.340857,92.0
795,11.00538,0.9029541,-1.0147934,0.69986576,-2.797339,-5.340857,92.0
796,11.00538,0.9029541,-1.0147934,1.2361816,-2.5201538,-5.03075,92.0
797,7.7897778,1.4858017,-0.49306107,1.2361816,-2.5201538,-5.03075,92.0
798,7.7897778,1.4858017,-0.49306107,1.725769,-2.081543,-3.8614748,92.0
799,5.439806,2.2514343,-0.4653015,1.725769,-2.081543,-3.8614748,92.0
800,5.439806,2.2514343,-0.4653015,1.4220337,-1.8606446,-3.3272827,92.0
801,2.0279799,4.108238,-0.06361008,1.4220337,-1.8606446,-3.3272827,92.0
802,2.0279799,4.108238,-0.06361008,0.29099122,-1.358313,-1.9541016,92.0
803,1.0367756,4.033272,-0.23710632,0.29099122,-1.358313,-1.9541016,92.0
804,1.0367756,4.033272,-0.23710632,-0.046728518,-1.2361816,-1.6004517,92.0
805,-0.2787342,3.9551315,-1.1762924,-0.046728518,-1.2361816,-1.6004517,92.0
806,-0.2787342,3.9551315,-1.1762924,-1.0662597,-0.87615967,-0.89102787,92.0
807,-0.50354195,3.074974,-1.3734436,-1.0662597,-0.87615967,-0.89102787,92.0
808,-0.50354195,3.074974,-1.3734436,-1.3986695,-0.7391602,-0.75721437,92.0
809,-1.288063,1.21241,-1.744484,-1.3986695,-0.7391602,-0.75721437,92.0
810,-1.288063,1.21241,-1.744484,-1.9594116,-0.35152587,-0.49171144,92.0
811,-1.2758732,0.42780304,-1.460247,-1.9594116,-0.35152587,-0.49171144,92.0
812,-1.2758732,0.42780304,-1.460247,-2.0093262,-0.2347046,-0.41843262,92.0
813,-1.4484091,-0.86250305,-1.3082848,-2.0093262,-0.2347046,-0.41843262,92.0
814,-1.4484091,-0.86250305,-1.3082848,-1.9615357,0.13806152,-0.27399904,92.0
815,-1.2894163,-0.9514923,-1.0100174,-1.9615357,0.13806152,-0.27399904,92.0
816,-1.2894163,-0.9514923,-1.0100174,-1.9116211,0.24744873,-0.22514649,92.0
817,-1.580471,-0.98223877,-0.8945389,-1.9116211,0.24744873,-0.22514649,92.0
818,-1.580471,-0.98223877,-0.8945389,-1.6163819,0.4704712,-0.1539917,92.0
819,-1.4987144,-0.81443787,-0.6805115,-1.6163819,0.4704712,-0.1539917,92.0
820,-1.4987144,-0.81443787,-0.6805115,-1.4592041,0.50445557,-0.14018555,92.0
821,-1.5235443,-0.5957489,-0.6681137,-1.4592041,0.50445557,-0.14018555,92.0
822,-1.5235443,-0.5957489,-0.6681137,-1.0641358,0.5363159,-0.1178833,92.0
823,-1.2778931,-0.43068695,-0.73983765,-1.0641358,0.5363159,-0.1178833,92.0
824,-1.2778931,-0.43068695,-0.73983765,-0.60322267,0.5256958,-0.06478272,92.0
825,-0.7076292,-0.32461548,-0.9553337,-0.60322267,0.5256958,-0.06478272,92.0
826,-0.7076292,-0.32461548,-0.9553337,-0.04885254,0.5129517,0.04248047,92.0
827,-0.45465374,-0.23697662,-0.8065033,-0.04885254,0.5129517,0.04248047,92.0
828,-0.45465374,-0.23697662,-0.8065033,0.058410645,0.4970215,0.1274414,92.0
829,-0.024708748,0.056991577,-0.8686638,0.058410645,0.4970215,0.1274414,92.0
830,-0.024708748,0.056991577,-0.8686638,0.24638672,0.42799073,0.4078125,92.0
831,0.067892075,0.109375,-0.75307465,0.24638672,0.42799073,0.4078125,92.0
832,0.067892075,0.109375,-0.75307465,0.29736328,0.4067505,0.4885254,92.0
833,0.067892075,0.109375,-0.75307465,0.29736328,0.4067505,0.4885254,90.0
834,0.143754,0.3356247,-0.93404007,0.29736328,0.4067505,0.4885254,90.0
835,0.143754,0.3356247,-0.93404007,0.41524658,0.31116945,0.7412842,90.0
836,0.09205341,0.28644562,-0.81676483,0.41524658,0.31116945,0.7412842,90.0
837,0.09205341,0.28644562,-0.81676483,0.41206056,0.25913087,0.815625,90.0
838,0.05702877,0.32079315,-0.7611389,0.41206056,0.25913087,0.815625,90.0
839,0.05702877,0.32079315,-0.7611389,0.39506838,0.14337158,0.93350834,90.0
840,0.15188503,0.23123169,-0.6702652,0.39506838,0.14337158,0.93350834,90.0
841,0.15188503,0.23123169,-0.6702652,0.45878908,0.040356446,0.9802368,90.0
842,0.35966682,0.012069702,-0.5692215,0.45878908,0.040356446,0.9802368,90.0
843,0.35966682,0.012069702,-0.5692215,0.5299439,-0.058410645,0.9197022,90.0
844,0.5940075,-0.1936264,-0.469635,0.5299439,-0.058410645,0.9197022,90.0
845,0.5940075,-0.1936264,-0.469635,0.6711914,-0.1274414,0.83898926,90.0
846,0.6790018,-0.3265915,-0.37522125,0.6711914,-0.1274414,0.83898926,90.0
847,0.6790018,-0.3265915,-0.37522125,0.8315552,-0.1985962,0.74871826,90.0
848,0.6183729,-0.34077454,-0.30389023,0.8315552,-0.1985962,0.74871826,90.0
849,0.6183729,-0.34077454,-0.30389023,0.9897949,-0.2984253,0.6903076,90.0
850,0.6010704,-0.25125885,-0.24560547,0.9897949,-0.2984253,0.6903076,90.0
851,0.6010704,-0.25125885,-0.24560547,1.1660889,-0.4163086,0.66269535,90.0
852,0.79267216,-0.10066223,-0.25971985,1.1660889,-0.4163086,0.66269535,90.0
853,0.79267216,-0.10066223,-0.25971985,1.4114136,-0.56817627,0.68074954,90.0
854,1.2211609,0.0137786865,-0.2934456,1.4114136,-0.56817627,0.68074954,90.0
855,1.2211609,0.0137786865,-0.2934456,1.7565674,-0.66481936,0.70092773,90.0
856,1.6116333,0.09877014,-0.22294235,1.7565674,-0.66481936,0.70092773,90.0
857,1.6116333,0.09877014,-0.22294235,2.156946,-0.68712157,0.7604004,90.0
858,1.3953743,0.16765594,0.021621704,2.156946,-0.68712157,0.7604004,90.0
859,1.3953743,0.16765594,0.021621704,2.5392702,-0.59047854,0.8772217,90.0
860,0.25467777,0.35238647,0.46599197,2.5392702,-0.59047854,0.8772217,90.0
861,0.25467777,0.35238647,0.46599197,2.709192,-0.43861085,1.1299804,90.0
862,-1.212554,0.86873627,1.0252953,2.709192,-0.43861085,1.1299804,90.0
863,-1.212554,0.86873627,1.0252953,2.6040528,-0.25913087,1.3731812,90.0
864,-1.9882193,1.3899307,1.1671829,2.6040528,-0.25913087,1.3731812,90.0
865,-1.9882193,1.3899307,1.1671829,2.540332,-0.121069334,1.5069946,90.0
866,-1.5985956,1.3683014,0.5959549,2.540332,-0.121069334,1.5069946,90.0
867,-1.5985956,1.3683014,0.5959549,2.3958986,0.09239502,1.4007934,90.0
868,-0.54556274,0.9226227,-0.21147919,2.3958986,0.09239502,1.4007934,90.0
869,-0.54556274,0.9226227,-0.21147919,1.9328613,0.26550293,1.2043213,90.0
870,0.3537712,0.2838745,-0.788826,1.9328613,0.26550293,1.2043213,90.0
871,0.3537712,0.2838745,-0.788826,1.2542359,0.3536499,1.0683838,90.0
872,0.81835556,-0.4988556,-1.0376778,1.2542359,0.3536499,1.0683838,90.0
873,0.81835556,-0.4988556,-1.0376778,0.8326172,0.40250245,1.0460815,90.0
874,0.83509254,-1.2827301,-1.0903702,0.8326172,0.40250245,1.0460815,90.0
875,0.83509254,-1.2827301,-1.0903702,0.811377,0.38551027,1.0630738,90.0
876,0.4814167,-1.5449982,-1.0181351,0.811377,0.38551027,1.0630738,90.0
877,0.4814167,-1.5449982,-1.0181351,1.1533448,0.39082032,1.0110352,90.0
878,0.05969429,-1.0654907,-0.7416687,1.1533448,0.39082032,1.0110352,90.0
879,0.05969429,-1.0654907,-0.7416687,1.2149414,0.3440918,1.1660889,90.0
880,-0.35269642,-0.40828705,-0.36461258,1.2149414,0.3440918,1.1660889,90.0
881,-0.35269642,-0.40828705,-0.36461258,1.1002442,0.32709962,1.2096313,90.0
882,-0.84708595,-0.1611023,-0.06373596,1.1002442,0.32709962,1.2096313,90.0
883,-0.84708595,-0.1611023,-0.06373596,1.0046631,0.23789063,1.2202514,90.0
884,-1.2757645,-0.32209778,0.10112381,1.0046631,0.23789063,1.2202514,90.0
885,-1.2757645,-0.32209778,0.10112381,0.98236084,0.16036378,1.2404298,90.0
886,-1.5007267,-0.55285645,0.14358139,0.98236084,0.16036378,1.2404298,90.0
887,-1.5007267,-0.55285645,0.14358139,0.998291,0.11469727,1.268042,90.0
888,-1.488594,-0.5946808,0.10086441,0.998291,0.11469727,1.268042,90.0
889,-1.488594,-0.5946808,0.10086441,0.9505005,0.032922365,1.2351197,90.0
890,-1.2692442,-0.42057037,0.0058517456,0.9505005,0.032922365,1.2351197,90.0
891,-1.2692442,-0.42057037,0.0058517456,0.87403566,0.033984374,1.2276856,90.0
892,-1.1132469,-0.20049286,-0.08102417,0.87403566,0.033984374,1.2276856,90.0
893,-1.1132469,-0.20049286,-0.08102417,0.75509036,0.05628662,1.1692749,90.0
894,-1.1943932,-0.03994751,-0.157444,0.75509036,0.05628662,1.1692749,90.0
895,-1.1943932,-0.03994751,-0.157444,0.48746338,0.020178223,1.0503296,90.0
896,-1.2946749,0.04865265,-0.21518707,0.48746338,0.020178223,1.0503296,90.0
897,-1.2946749,0.04865265,-0.21518707,0.07752686,-0.07327881,0.8241211,90.0
898,-1.0610085,0.033706665,-0.1991272,0.07752686,-0.07327881,0.8241211,90.0
899,-1.0610085,0.033706665,-0.1991272,-0.3525879,-0.19647217,0.43861085,90.0
900,-0.34347248,-0.11949921,-0.0245018,-0.3525879,-0.19647217,0.43861085,90.0
901,-0.34347248,-0.11949921,-0.0245018,-0.68074954,-0.25700685,-0.050976563,90.0
902,0.70445824,-0.36678314,0.24487305,-0.68074954,-0.25700685,-0.050976563,90.0
903,0.70445824,-0.36678314,0.24487305,-0.91864014,-0.27718505,-0.6223389,90.0
904,1.8583298,-0.50453186,0.39852142,-0.91864014,-0.27718505,-0.6223389,90.0
905,1.8583298,-0.50453186,0.39852142,-1.171399,-0.20603028,-1.1501588,90.0
906,2.5882874,-0.35021973,0.34432983,-1.171399,-0.20603028,-1.1501588,90.0
907,2.5882874,-0.35021973,0.34432983,-1.544165,-0.015930176,-1.4666382,90.0
908,2.789978,0.052955627,0.35056305,-1.544165,-0.015930176,-1.4666382,90.0
909,2.789978,0.052955627,0.35056305,-2.073047,-0.008496094,-1.8903809,90.0
910,3.3197136,0.56676483,0.34085083,-2.073047,-0.008496094,-1.8903809,90.0
911,3.3197136,0.56676483,0.34085083,-2.6709595,-0.24851075,-2.2429688,90.0
912,4.3196745,0.82756805,0.1706047,-2.6709595,-0.24851075,-2.2429688,90.0
913,4.3196745,0.82756805,0.1706047,-3.3570192,-0.40993652,-2.4787354,90.0
914,4.181533,0.24211884,0.5216751,-3.3570192,-0.40993652,-2.4787354,90.0
915,4.181533,0.24211884,0.5216751,-3.6458862,-0.31329346,-2.5095336,90.0
916,1.8360825,-1.0793381,1.6335144,-3.6458862,-0.31329346,-2.5095336,90.0
917,1.8360825,-1.0793381,1.6335144,-2.817517,-0.08920898,-2.430945,90.0
918,-1.4596128,-1.9748077,2.2752686,-2.817517,-0.08920898,-2.430945,90.0
919,-1.4596128,-1.9748077,2.2752686,-1.0375855,0.04885254,-2.061365,90.0
920,-3.1477566,-1.3520279,1.4530373,-1.0375855,0.04885254,-2.061365,90.0
921,-3.1477566,-1.3520279,1.4530373,0.6446411,-0.040356446,-1.8648926,90.0
922,-2.4234667,0.447052,-0.25951767,0.6446411,-0.040356446,-1.8648926,90.0
923,-2.4234667,0.447052,-0.25951767,1.0333375,0.10301514,-1.6333741,90.0
924,-1.2197552,1.9136581,-1.4813576,1.0333375,0.10301514,-1.6333741,90.0
925,-1.2197552,1.9136581,-1.4813576,0.07752686,0.20921631,-1.3434448,90.0
926,-1.2197552,1.9136581,-1.4813576,0.07752686,0.20921631,-1.3434448,89.0
927,-0.6887188,2.291977,-1.5273819,0.07752686,0.20921631,-1.3434448,89.0
928,-0.6887188,2.291977,-1.5273819,-1.1076783,0.27506104,-1.0439576,89.0
929,-0.49888802,1.8186264,-0.97683716,-1.1076783,0.27506104,-1.0439576,89.0
930,-0.49888802,1.8186264,-0.97683716,-1.5643433,0.40993652,-0.68924564,89.0
931,-0.6798353,1.0232086,-0.57468414,-1.5643433,0.40993652,-0.68924564,89.0
932,-0.6798353,1.0232086,-0.57468414,-1.6418701,0.4609131,-0.41524658,89.0
933,-1.1482992,0.44111633,-0.45542526,-1.6418701,0.4609131,-0.41524658,89.0
934,-1.1482992,0.44111633,-0.45542526,-1.7374512,0.39082032,-0.2347046,89.0
935,-1.4537344,0.105651855,-0.4186592,-1.7374512,0.39082032,-0.2347046,89.0
936,-1.4537344,0.105651855,-0.4186592,-1.901001,0.3727661,-0.07965088,89.0
937,-1.5228996,-0.3143692,-0.29582977,-1.901001,0.3727661,-0.07965088,89.0
938,-1.5228996,-0.3143692,-0.29582977,-1.8786987,0.3451538,0.04460449,89.0
939,-1.5414772,-0.8436432,-0.09547424,-1.8786987,0.3451538,0.04460449,89.0
940,-1.5414772,-0.8436432,-0.09547424,-1.5250489,0.3058594,0.09133301,89.0
941,-1.517642,-1.1383286,0.11293793,-1.5250489,0.3058594,0.09133301,89.0
942,-1.517642,-1.1383286,0.11293793,-0.998291,0.2824951,-0.007434082,89.0
943,-1.3192158,-1.0225143,0.24429321,-0.998291,0.2824951,-0.007434082,89.0
944,-1.3192158,-1.0225143,0.24429321,-0.45135498,0.2782471,-0.11151123,89.0
945,-1.0825825,-0.6301956,0.20788574,-0.45135498,0.2782471,-0.11151123,89.0
946,-1.0825825,-0.6301956,0.20788574,-0.027612304,0.28461915,-0.28674316,89.0
947,-0.9950695,-0.20148468,-0.01821518,-0.027612304,0.28461915,-0.28674316,89.0
948,-0.9950695,-0.20148468,-0.01821518,0.17629395,0.18266602,-0.4725952,89.0
949,-0.7580061,0.12142944,-0.26176453,0.17629395,0.18266602,-0.4725952,89.0
950,-0.7580061,0.12142944,-0.26176453,0.23789063,0.016992187,-0.67331547,89.0
951,0.07872677,0.25466156,-0.31159592,0.23789063,0.016992187,-0.67331547,89.0
952,0.07872677,0.25466156,-0.31159592,0.2262085,-0.09239502,-0.86341554,89.0
953,1.2900562,0.2149353,-0.24739838,0.2262085,-0.09239502,-0.86341554,89.0
954,1.2900562,0.2149353,-0.24739838,0.1263794,-0.14124756,-1.0036011,89.0
955,2.1297503,0.11804199,-0.28482056,0.1263794,-0.14124756,-1.0036011,89.0
956,2.1297503,0.11804199,-0.28482056,-0.14124756,-0.2442627,-1.0418335,89.0
957,2.2508087,-0.028038025,-0.3319931,-0.14124756,-0.2442627,-1.0418335,89.0
958,2.2508087,-0.028038025,-0.3319931,-0.36108398,-0.4343628,-0.9324463,89.0
959,2.287097,-0.31543732,-0.20663452,-0.36108398,-0.4343628,-0.9324463,89.0
960,2.287097,-0.31543732,-0.20663452,-0.08283692,-0.6977417,-0.7720825,89.0
961,2.864029,-0.6351242,0.05769348,-0.08283692,-0.6977417,-0.7720825,89.0
962,2.864029,-0.6351242,0.05769348,0.7614624,-0.7784546,-0.46409914,89.0
963,3.6744385,-0.6305237,0.30895996,0.7614624,-0.7784546,-0.46409914,89.0
964,3.6744385,-0.6305237,0.30895996,1.7459472,-0.86553955,-0.13062744,89.0
965,3.6050167,-0.14102936,0.55882263,1.7459472,-0.86553955,-0.13062744,89.0
966,3.6050167,-0.14102936,0.55882263,2.4808595,-0.6467652,0.32072756,89.0
967,2.207035,0.519928,0.8515854,2.4808595,-0.6467652,0.32072756,89.0
968,2.207035,0.519928,0.8515854,2.8833618,-0.4598511,0.81668705,89.0
969,0.24630451,1.0698853,1.0105515,2.8833618,-0.4598511,0.81668705,89.0
970,0.24630451,1.0698853,1.0105515,3.1233766,-0.022302246,1.3848633,89.0
971,-1.2962427,1.7967758,1.0865326,3.1233766,-0.022302246,1.3848633,89.0
972,-1.2962427,1.7967758,1.0865326,3.0925782,0.26656494,1.8415283,89.0
973,-1.6061096,2.9033356,1.2624626,3.0925782,0.26656494,1.8415283,89.0
974,-1.6061096,2.9033356,1.2624626,3.0118654,0.5533081,1.9583496,89.0
975,-1.0987062,3.7900162,0.89012146,3.0118654,0.5533081,1.9583496,89.0
976,-1.0987062,3.7900162,0.89012146,3.6650026,0.7582764,1.7066529,89.0
977,-0.696434,3.7300034,0.021591187,3.6650026,0.7582764,1.7066529,89.0
978,-0.696434,3.7300034,0.021591187,3.2667482,0.89846194,1.6928467,89.0
979,-0.59669876,2.8219757,-0.4881363,3.2667482,0.89846194,1.6928467,89.0
980,-0.59669876,2.8219757,-0.4881363,2.2281005,0.8209351,1.354065,89.0
981,-0.6956091,1.3588638,-0.38780212,2.2281005,0.8209351,1.354065,89.0
982,-0.6956091,1.3588638,-0.38780212,0.23364258,0.8772217,1.260608,89.0
983,-1.0016413,-0.45226288,-0.11027527,0.23364258,0.8772217,1.260608,89.0
984,-1.0016413,-0.45226288,-0.11027527,-1.1820191,0.91864014,1.3476928,89.0
985,-1.5147772,-1.9759216,-0.2253418,-1.1820191,0.91864014,1.3476928,89.0
986,-1.5147772,-1.9759216,-0.2253418,-1.4092896,0.8581055,1.4103516,89.0
987,-2.0208912,-2.684639,-0.72343826,-1.4092896,0.8581055,1.4103516,89.0
988,-2.0208912,-2.684639,-0.72343826,-1.0917481,0.82730716,1.5526612,89.0
989,-2.378004,-2.6051178,-1.1540337,-1.0917481,0.82730716,1.5526612,89.0
990,-2.378004,-2.6051178,-1.1540337,-0.6818115,0.80181885,1.5303589,89.0
991,-2.436656,-2.303856,-1.228672,-0.6818115,0.80181885,1.5303589,89.0
992,-2.436656,-2.303856,-1.228672,-0.21027832,0.73703617,1.5473511,89.0
993,-2.15942,-2.1016083,-1.0423965,-0.21027832,0.73703617,1.5473511,89.0
994,-2.15942,-2.1016083,-1.0423965,0.39613038,0.68712157,1.5091187,89.0
995,-1.7181244,-1.8703156,-0.79148483,0.39613038,0.68712157,1.5091187,89.0
996,-1.7181244,-1.8703156,-0.79148483,0.90695804,0.63933104,1.3997315,89.0
997,-1.3112793,-1.4365234,-0.52386093,0.90695804,0.63933104,1.3997315,89.0
998,-1.3112793,-1.4365234,-0.52386093,1.0790039,0.57454836,1.3052124,89.0
999,-0.952466,-0.90236664,-0.216259,1.0790039,0.57454836,1.3052124,89.0
1000,-0.952466,-0.90236664,-0.216259,0.9759888,0.4980835,1.2064453,89.0
1001,-0.5699558,-0.50901794,0.06659317,0.9759888,0.4980835,1.2064453,89.0
1002,-0.5699558,-0.50901794,0.06659317,0.7168579,0.4343628,1.081128,89.0
1003,-0.08090401,-0.33626556,0.23234177,0.7168579,0.4343628,1.081128,89.0
1004,-0.08090401,-0.33626556,0.23234177,0.37489015,0.34833986,0.90058595,89.0
1005,0.5580063,-0.31973267,0.24623871,0.37489015,0.34833986,0.90058595,89.0
1006,0.5580063,-0.31973267,0.24623871,-0.013806152,0.2527588,0.67225343,89.0
1007,1.2275448,-0.3655243,0.12955856,-0.013806152,0.2527588,0.67225343,89.0
1008,1.2275448,-0.3655243,0.12955856,-0.41949463,0.16354981,0.38763428,89.0
1009,1.7770796,-0.37371826,-0.02173233,-0.41949463,0.16354981,0.38763428,89.0
1010,1.7770796,-0.37371826,-0.02173233,-0.817749,0.010620117,0.08496094,89.0
1011,2.2654257,-0.3027115,-0.09786606,-0.817749,0.010620117,0.08496094,89.0
1012,2.2654257,-0.3027115,-0.09786606,-1.1034302,-0.1539917,-0.21346436,89.0
1013,2.5649414,-0.20254517,0.00851059,-1.1034302,-0.1539917,-0.21346436,89.0
1014,2.5649414,-0.20254517,0.00851059,-1.354065,-0.270813,-0.47471926,89.0
1015,2.7812748,-0.052505493,0.26930618,-1.354065,-0.270813,-0.47471926,89.0
1016,2.7812748,-0.052505493,0.26930618,-1.6110718,-0.55968016,-0.8931519,89.0
1017,2.9113846,-0.017166138,0.5274048,-1.6110718,-0.55968016,-0.8931519,89.0
1018,2.9113846,-0.017166138,0.5274048,-1.7682495,-0.68712157,-1.1915772,89.0
1019,2.3990412,-0.19722748,0.62781906,-1.7682495,-0.68712157,-1.1915772,89.0
1020,2.3990412,-0.19722748,0.62781906,-2.0103881,-0.92501223,-1.630188,89.0
1021,1.2227726,-0.4547882,0.7764244,-2.0103881,-0.92501223,-1.630188,89.0
1022,1.2227726,-0.4547882,0.7764244,-1.8500245,-1.1490967,-1.803296,89.0
1023,0.27610588,-0.76773834,1.3123474,-1.8500245,-1.1490967,-1.803296,89.0
1024,0.27610588,-0.76773834,1.3123474,-0.8506714,-1.4124756,-2.1102173,89.0
1025,0.057115555,-1.0485382,2.0399055,-0.8506714,-1.4124756,-2.1102173,89.0
1026,0.057115555,-1.0485382,2.0399055,0.79226077,-1.3370727,-2.2111084,89.0
1027,0.1835947,-0.7917557,2.218937,0.79226077,-1.3370727,-2.2111084,89.0
1028,0.1835947,-0.7917557,2.218937,2.3098755,-1.2202514,-2.1431396,89.0
1029,0.15441895,0.36171722,1.352272,2.3098755,-1.2202514,-2.1431396,89.0
1030,0.15441895,0.36171722,1.352272,2.527588,-1.0970582,-1.996582,89.0
1031,-0.37669754,1.8590012,-0.03340149,2.527588,-1.0970582,-1.996582,89.0
1032,-0.37669754,1.8590012,-0.03340149,1.4846925,-0.91864014,-1.8670167,89.0
1033,-0.37669754,1.8590012,-0.03340149,1.4846925,-0.91864014,-1.8670167,90.0
1034,-1.3653107,2.618805,-0.98101807,1.4846925,-0.91864014,-1.8670167,90.0
1035,-1.3653107,2.618805,-0.98101807,0.18585205,-0.7614624,-1.7884277,90.0
1036,-2.2279053,2.3144531,-1.3097305,0.18585205,-0.7614624,-1.7884277,90.0
1037,-2.2279053,2.3144531,-1.3097305,-0.4980835,-0.6064087,-1.6238159,90.0
1038,-2.490881,1.4412003,-1.4378853,-0.4980835,-0.6064087,-1.6238159,90.0
1039,-2.490881,1.4412003,-1.4378853,-0.3164795,-0.38657227,-1.3699951,90.0
1040,-2.335966,0.7040558,-1.5042381,-0.3164795,-0.38657227,-1.3699951,90.0
1041,-2.335966,0.7040558,-1.5042381,-0.046728518,-0.18160401,-1.1204224,90.0
1042,-2.1297836,0.5795517,-1.3678322,-0.046728518,-0.18160401,-1.1204224,90.0
1043,-2.1297836,0.5795517,-1.3678322,-0.27612305,-0.04991455,-0.90058595,90.0
1044,-1.8797913,0.8498993,-1.0501022,-0.27612305,-0.04991455,-0.90058595,90.0
1045,-1.8797913,0.8498993,-1.0501022,-0.8995239,0.04141846,-0.71579593,90.0
1046,-1.4312983,0.9088135,-0.6445999,-0.8995239,0.04141846,-0.71579593,90.0
1047,-1.4312983,0.9088135,-0.6445999,-1.4592041,0.16779785,-0.59897465,90.0
1048,-0.7719307,0.52240753,-0.26506042,-1.4592041,0.16779785,-0.59897465,90.0
1049,-0.7719307,0.52240753,-0.26506042,-1.8022339,0.3154175,-0.4959595,90.0
1050,-0.06575012,-0.04562378,-0.08427811,-1.8022339,0.3154175,-0.4959595,90.0
1051,-0.06575012,-0.04562378,-0.08427811,-2.0443726,0.38869628,-0.42055663,90.0
1052,0.5763674,-0.4868393,-0.104496,-2.0443726,0.38869628,-0.42055663,90.0
1053,0.5763674,-0.4868393,-0.104496,-2.1983643,0.38763428,-0.36427003,90.0
1054,1.2375708,-0.7102356,-0.13874817,-2.1983643,0.38763428,-0.36427003,90.0
1055,1.2375708,-0.7102356,-0.13874817,-2.1643798,0.3451538,-0.32497558,90.0
1056,1.8221245,-0.7755356,0.045166016,-2.1643798,0.3451538,-0.32497558,90.0
1057,1.8221245,-0.7755356,0.045166016,-1.9126831,0.33984375,-0.26337892,90.0
1058,1.9773407,-0.78505707,0.49533844,-1.9126831,0.33984375,-0.26337892,90.0
1059,1.9773407,-0.78505707,0.49533844,-1.4846925,0.30479738,-0.21134034,90.0
1060,1.7925911,-0.7896271,0.84347534,-1.4846925,0.30479738,-0.21134034,90.0
1061,1.7925911,-0.7896271,0.84347534,-0.91120607,0.08496094,-0.16461182,90.0
1062,1.914175,-0.8058319,0.79956055,-0.91120607,0.08496094,-0.16461182,90.0
1063,1.914175,-0.8058319,0.79956055,-0.1709839,-0.081774905,-0.19647217,90.0
1064,2.4099407,-0.7956543,0.5823631,-0.1709839,-0.081774905,-0.19647217,90.0
1065,2.4099407,-0.7956543,0.5823631,0.59047854,-0.15930176,-0.14018555,90.0
1066,2.889183,-0.5456772,0.4095459,0.59047854,-0.15930176,-0.14018555,90.0
1067,2.889183,-0.5456772,0.4095459,1.1087402,-0.09664307,-0.08496094,90.0
1068,2.375019,-0.13613892,0.42564392,1.1087402,-0.09664307,-0.08496094,90.0
1069,2.375019,-0.13613892,0.42564392,1.2754761,0.16354981,0.17629395,90.0
1070,0.71673965,0.08589935,0.46820068,1.2754761,0.16354981,0.17629395,90.0
1071,0.71673965,0.08589935,0.46820068,1.4220337,0.21346436,0.4991455,90.0
1072,-0.3414526,0.17628479,0.124240875,1.4220337,0.21346436,0.4991455,90.0
1073,-0.3414526,0.17628479,0.124240875,1.7884277,0.24320069,0.9483765,90.0
1074,-0.103471756,0.41625977,-0.60435486,1.7884277,0.24320069,0.9483765,90.0
1075,-0.103471756,0.41625977,-0.60435486,2.2769532,0.45772704,1.3381348,90.0
1076,0.18542385,0.74240875,-1.2132568,2.2769532,0.45772704,1.3381348,90.0
1077,0.18542385,0.74240875,-1.2132568,2.3810303,0.5936646,1.6949707,90.0
1078,0.051573753,0.97177124,-1.367775,2.3810303,0.5936646,1.6949707,90.0
1079,0.051573753,0.97177124,-1.367775,2.151636,0.6786255,2.0135744,90.0
1080,-0.19671726,1.0243683,-1.113678,2.151636,0.6786255,2.0135744,90.0
1081,-0.19671726,1.0243683,-1.113678,1.9604737,0.8294312,2.2440307,90.0
1082,-0.7275162,0.8582916,-0.6509552,1.9604737,0.8294312,2.2440307,90.0
1083,-0.7275162,0.8582916,-0.6509552,1.6662964,0.88996583,2.3916504,90.0
1084,-1.471674,0.49686432,-0.18362045,1.6662964,0.88996583,2.3916504,90.0
1085,-1.471674,0.49686432,-0.18362045,1.2149414,0.9345703,2.535022,90.0
1086,-2.1089306,0.0077667236,0.15417862,1.2149414,0.9345703,2.535022,90.0
1087,-2.1089306,0.0077667236,0.15417862,0.7805786,0.9197022,2.6698976,90.0
1088,-2.453539,-0.5075455,0.32331848,0.7805786,0.9197022,2.6698976,90.0
1089,-2.453539,-0.5075455,0.32331848,0.54375,0.8464233,2.7453003,90.0
1090,-2.571742,-0.97213745,0.3655243,0.54375,0.8464233,2.7453003,90.0
1091,-2.571742,-0.97213745,0.3655243,0.48109132,0.77102053,2.7410524,90.0
1092,-2.5371542,-1.2915878,0.38012695,0.48109132,0.77102053,2.7410524,90.0
1093,-2.5371542,-1.2915878,0.38012695,0.5501221,0.7062378,2.6529052,90.0
1094,-2.3653183,-1.4077072,0.4028206,0.5501221,0.7062378,2.6529052,90.0
1095,-2.3653183,-1.4077072,0.4028206,0.72960204,0.7306641,2.5031617,90.0
1096,-2.1764584,-1.3500824,0.29548645,0.72960204,0.7306641,2.5031617,90.0
1097,-2.1764584,-1.3500824,0.29548645,0.82836914,0.69136965,2.2950075,90.0
1098,-1.9893723,-1.2042313,0.05439377,0.82836914,0.69136965,2.2950075,90.0
1099,-1.9893723,-1.2042313,0.05439377,0.7497803,0.61065674,2.0125122,90.0
1100,-1.6646061,-1.0531921,-0.10705948,0.7497803,0.61065674,2.0125122,90.0
1101,-1.6646061,-1.0531921,-0.10705948,0.6403931,0.52038574,1.7555054,90.0
1102,-1.1845903,-0.91249084,0.026500702,0.6403931,0.52038574,1.7555054,90.0
1103,-1.1845903,-0.91249084,0.026500702,0.62340087,0.47790527,1.4719483,90.0
1104,-0.6418009,-0.7355957,0.47396088,0.62340087,0.47790527,1.4719483,90.0
1105,-0.6418009,-0.7355957,0.47396088,0.70092773,0.5628662,1.1469727,90.0
1106,-0.15898514,-0.5115967,0.8779831,0.70092773,0.5628662,1.1469727,90.0
1107,-0.15898514,-0.5115967,0.8779831,0.71367186,0.5703003,0.7189819,90.0
1108,0.17975807,-0.24256134,0.93068314,0.71367186,0.5703003,0.7189819,90.0
1109,0.17975807,-0.24256134,0.93068314,0.4609131,0.452417,0.24638672,90.0
1110,0.36728096,-0.0062332153,0.8825989,0.4609131,0.452417,0.24638672,90.0
1111,0.36728096,-0.0062332153,0.8825989,0.021240234,0.29205322,-0.22089843,90.0
1112,0.51600456,0.16584778,1.1245003,0.021240234,0.29205322,-0.22089843,90.0
1113,0.51600456,0.16584778,1.1245003,-0.3812622,0.093457036,-0.77526855,90.0
1114,0.845006,0.2777481,1.4982071,-0.3812622,0.093457036,-0.77526855,90.0
1115,0.845006,0.2777481,1.4982071,-0.66481936,-0.2357666,-1.3625611,90.0
1116,1.8233433,0.35110474,1.5388832,-0.66481936,-0.2357666,-1.3625611,90.0
1117,1.8233433,0.35110474,1.5388832,-1.0556396,-0.7423462,-2.1463258,90.0
1118,3.4373121,0.3784027,1.2002335,-1.0556396,-0.7423462,-2.1463258,90.0
1119,3.4373121,0.3784027,1.2002335,-1.4730103,-1.0205933,-2.7474244,90.0
1120,4.348117,0.2459259,0.9663048,-1.4730103,-1.0205933,-2.7474244,90.0
1121,4.348117,0.2459259,0.9663048,-1.7310791,-1.0620117,-3.1764772,90.0
1122,3.6508322,-0.17476654,1.237545,-1.7310791,-1.0620117,-3.1764772,90.0
1123,3.6508322,-0.17476654,1.237545,-1.5632813,-1.2106934,-3.3368409,90.0
1124,2.5656738,-0.62043,1.5390587,-1.5632813,-1.2106934,-3.3368409,90.0
1125,2.5656738,-0.62043,1.5390587,-0.85598147,-1.268042,-3.3145387,90.0
1126,2.1344728,-0.5290375,1.1279755,-0.85598147,-1.268042,-3.3145387,90.0
1127,2.1344728,-0.5290375,1.1279755,0.30054933,-1.0736939,-2.9396484,90.0
1128,1.7709694,0.25990295,0.09511566,0.30054933,-1.0736939,-2.9396484,90.0
1129,1.7709694,0.25990295,0.09511566,1.1905152,-0.92501223,-2.529712,90.0
1130,0.8766508,1.3443527,-0.8847847,1.1905152,-0.92501223,-2.529712,90.0
1131,0.8766508,1.3443527,-0.8847847,0.9876709,-0.6977417,-2.1261475,90.0
1132,-0.5732889,2.1787643,-1.4527626,0.9876709,-0.6977417,-2.1261475,90.0
1133,-0.5732889,2.1787643,-1.4527626,-0.053100586,-0.39506838,-1.5739014,90.0
1134,-2.0654678,2.4853134,-1.6664238,-0.053100586,-0.39506838,-1.5739014,90.0
1135,-2.0654678,2.4853134,-1.6664238,-1.0269654,-0.24851075,-1.2266235,90.0
1136,-2.9879694,2.195755,-1.6565552,-1.0269654,-0.24851075,-1.2266235,90.0
1137,-2.9879694,2.195755,-1.6565552,-1.5537232,-0.1274414,-0.9759888,90.0
1138,-3.1921215,1.4767609,-1.4840813,-1.5537232,-0.1274414,-0.9759888,90.0
1139,-3.1921215,1.4767609,-1.4840813,-1.9710938,-0.04141846,-0.82836914,90.0
1140,-2.8775864,0.67147064,-1.2262764,-1.9710938,-0.04141846,-0.82836914,90.0
1141,-2.8775864,0.67147064,-1.2262764,-2.4160767,0.10089111,-0.7455322,90.0
1142,-2.3629217,0.01964569,-1.0598183,-2.4160767,0.10089111,-0.7455322,90.0
1143,-2.3629217,0.01964569,-1.0598183,-2.8759277,0.21240234,-0.6966797,90.0
1144,-2.3629217,0.01964569,-1.0598183,-2.8759277,0.21240234,-0.6966797,90.0
1145,-1.9591856,-0.544281,-0.96884155,-2.8759277,0.21240234,-0.6966797,90.0
1146,-1.9591856,-0.544281,-0.96884155,-3.2338257,0.31860352,-0.6446411,90.0
1147,-1.6765528,-1.100235,-0.7384033,-3.2338257,0.31860352,-0.6446411,90.0
1148,-1.6765528,-1.100235,-0.7384033,-3.3017945,0.41418457,-0.72004396,90.0
1149,-1.3183784,-1.5785751,-0.3134308,-3.3017945,0.41418457,-0.72004396,90.0
1150,-1.3183784,-1.5785751,-0.3134308,-2.9608886,0.49489745,-0.81668705,90.0
1151,-0.7997103,-1.8772888,0.062095642,-2.9608886,0.49489745,-0.81668705,90.0
1152,-0.7997103,-1.8772888,0.062095642,-2.3066895,0.5256958,-0.9600586,90.0
1153,-0.16449928,-1.8727036,0.1207695,-2.3066895,0.5256958,-0.9600586,90.0
1154,-0.16449928,-1.8727036,0.1207695,-1.5792115,0.39294434,-1.1575928,90.0
1155,0.48210907,-1.5150986,0.04494095,-1.5792115,0.39294434,-1.1575928,90.0
1156,0.48210907,-1.5150986,0.04494095,-0.9281983,0.26975098,-1.2351197,90.0
1157,0.9854069,-0.97128296,0.24227524,-0.9281983,0.26975098,-1.2351197,90.0
1158,0.9854069,-0.97128296,0.24227524,-0.36851808,0.1444336,-1.176709,90.0
1159,0.9854069,-0.97128296,0.24227524,0.090270996,0.033984374,-1.0492676,90.0
1160,1.3904371,-0.3801117,0.65483093,0.090270996,0.033984374,-1.0492676,90.0
1161,3.1325035,0.1068573,0.4405632,0.090270996,0.033984374,-1.0492676,90.0
1162,3.1325035,0.1068573,0.4405632,0.2538208,-0.118945315,-0.85598147,90.0
1163,3.1325035,0.1068573,0.4405632,0.28780517,-0.29417726,-0.6488892,90.0
1164,3.1325035,0.1068573,0.4405632,0.48427734,-0.41843262,-0.35577393,90.0
1165,3.919711,-0.19403839,-0.09355545,0.48427734,-0.41843262,-0.35577393,90.0
1166,3.919711,-0.19403839,-0.09355545,0.8050049,-0.5872925,-0.06159668,90.0
1167,4.2484035,-0.3181076,-0.31924438,0.8050049,-0.5872925,-0.06159668,90.0
1168,4.2484035,-0.3181076,-0.31924438,1.2329956,-0.2888672,0.30161133,90.0
1169,2.720708,-0.25950623,-0.11622238,1.2329956,-0.2888672,0.30161133,90.0
1170,2.720708,-0.25950623,-0.11622238,1.6567383,-0.24638672,0.77951664,90.0
1171,0.38959122,0.02797699,0.04553604,1.6567383,-0.24638672,0.77951664,90.0
1172,0.38959122,0.02797699,0.04553604,2.2249146,-0.17735596,1.3530029,90.0
1173,-0.6285496,0.5884094,-0.1831398,2.2249146,-0.17735596,1.3530029,90.0
1174,-0.6285496,0.5884094,-0.1831398,2.7229981,-0.18160401,1.8510865,90.0
1175,0.008793831,1.1582718,-0.56430817,2.7229981,-0.18160401,1.8510865,90.0
1176,0.008793831,1.1582718,-0.56430817,2.998059,-0.027612304,2.2068603,90.0
1177,0.88393974,1.4616165,-0.7563782,2.998059,-0.027612304,2.2068603,90.0
1178,0.88393974,1.4616165,-0.7563782,2.983191,0.20390625,2.433069,90.0
1179,1.0366564,1.5101242,-0.7285156,2.983191,0.20390625,2.433069,90.0
1180,1.0366564,1.5101242,-0.7285156,2.6560915,0.3345337,2.5955567,90.0
1181,0.4918127,1.3919983,-0.6136589,2.6560915,0.3345337,2.5955567,90.0
1182,0.4918127,1.3919983,-0.6136589,2.1410158,0.48640138,2.6943238,90.0
1183,-0.507246,1.0240707,-0.43078613,2.1410158,0.48640138,2.6943238,90.0
1184,-0.507246,1.0240707,-0.43078613,1.6620483,0.5055176,2.7760987,90.0
1185,-1.5656481,0.38755798,-0.19980621,1.6620483,0.5055176,2.7760987,90.0
1186,-1.5656481,0.38755798,-0.19980621,1.4199097,0.47684327,2.8515015,90.0
1187,-2.288639,-0.3204956,-0.013458252,1.4199097,0.47684327,2.8515015,90.0
1188,-2.288639,-0.3204956,-0.013458252,1.3699951,0.41206056,2.8833618,90.0
1189,-2.505166,-0.9061661,0.07672119,1.3699951,0.41206056,2.8833618,90.0
1190,-2.505166,-0.9061661,0.07672119,1.364685,0.3419678,2.9226563,90.0
1191,-2.2984076,-1.3560104,0.055210114,1.364685,0.3419678,2.9226563,90.0
1192,-2.2984076,-1.3560104,0.055210114,1.3200806,0.26975098,2.9789429,90.0
1193,-1.9014826,-1.6094131,-0.03768158,1.3200806,0.26975098,2.9789429,90.0
1194,-1.9014826,-1.6094131,-0.03768158,1.1958252,0.21240234,2.9481447,90.0
1195,-1.6248484,-1.7647552,-0.09994507,1.1958252,0.21240234,2.9481447,90.0
1196,-1.6248484,-1.7647552,-0.09994507,1.0630738,0.20390625,3.0214233,90.0
1197,-1.498169,-2.0955658,-0.1171875,1.0630738,0.20390625,3.0214233,90.0
1198,-1.498169,-2.0955658,-0.1171875,1.0163453,0.13168946,3.070276,90.0
1199,-1.1969976,-2.5247345,-0.18786621,1.0163453,0.13168946,3.070276,90.0
1200,-1.1969976,-2.5247345,-0.18786621,0.7391602,0.053100586,3.2040894,90.0
1201,-0.8150444,-2.7728424,-0.34494781,0.7391602,0.053100586,3.2040894,90.0
1202,-0.8150444,-2.7728424,-0.34494781,0.21134034,-0.033984374,3.2986085,90.0
1203,-0.78695965,-3.0067062,-0.34027863,0.21134034,-0.033984374,3.2986085,90.0
1204,-0.78695965,-3.0067062,-0.34027863,-0.2357666,-0.2177124,3.260376,90.0
1205,-0.9333763,-3.6833801,-0.16348267,-0.2357666,-0.2177124,3.260376,90.0
1206,-0.9333763,-3.6833801,-0.16348267,-0.04460449,-0.4609131,3.248694,90.0
1207,-0.9997406,-4.5373917,-0.11898041,-0.04460449,-0.4609131,3.248694,90.0
1208,-0.9997406,-4.5373917,-0.11898041,0.45878908,-0.5628662,3.1467407,90.0
1209,-1.1852665,-4.8357697,-0.22771835,0.45878908,-0.5628662,3.1467407,90.0
1210,-1.1852665,-4.8357697,-0.22771835,0.35046387,-0.7582764,3.0267334,90.0
1211,-1.5241652,-4.4344482,-0.24903107,0.35046387,-0.7582764,3.0267334,90.0
1212,-1.5241652,-4.4344482,-0.24903107,-0.32603762,-1.1076783,2.9141603,90.0
1213,-1.8940516,-3.9727325,0.014827728,-0.32603762,-1.1076783,2.9141603,90.0
1214,-1.8940516,-3.9727325,0.014827728,-0.79969484,-1.4220337,2.7718506,90.0
1215,-2.1311593,-4.1695404,0.4053421,-0.79969484,-1.4220337,2.7718506,90.0
1216,-2.1311593,-4.1695404,0.4053421,-0.59472656,-1.6376221,2.4543092,90.0
1217,-2.0040364,-4.7660065,0.50230026,-0.59472656,-1.6376221,2.4543092,90.0
1218,-2.0040364,-4.7660065,0.50230026,-0.1444336,-1.6206299,2.078357,90.0
1219,-1.7165956,-4.634262,-0.031787872,-0.1444336,-1.6206299,2.078357,90.0
1220,-1.7165956,-4.634262,-0.031787872,-0.32497558,-1.6790406,1.6801026,90.0
1221,-1.7296734,-3.596283,-0.84033585,-0.32497558,-1.6790406,1.6801026,90.0
1222,-1.7296734,-3.596283,-0.84033585,-0.9154541,-1.9689697,1.630188,90.0
1223,-1.9440174,-2.6118393,-1.1543617,-0.9154541,-1.9689697,1.630188,90.0
1224,-1.9440174,-2.6118393,-1.1543617,-0.9122681,-2.2270386,1.5739014,90.0
1225,-1.9466815,-2.1784744,-0.88038635,-0.9122681,-2.2270386,1.5739014,90.0
1226,-1.9466815,-2.1784744,-0.88038635,-0.2347046,-2.2992554,1.4252198,90.0
1227,-1.6587005,-1.8791962,-0.57670593,-0.2347046,-2.2992554,1.4252198,90.0
1228,-1.6587005,-1.8791962,-0.57670593,0.40144044,-2.2928834,1.3487549,90.0
1229,-1.3533764,-0.97354126,-0.66527176,0.40144044,-2.2928834,1.3487549,90.0
1230,-1.3533764,-0.97354126,-0.66527176,0.41737062,-2.2057984,1.1607789,90.0
1231,-1.4115341,0.5202713,-1.0101814,0.41737062,-2.2057984,1.1607789,90.0
1232,-1.4115341,0.5202713,-1.0101814,-0.1263794,-2.1941164,0.96218264,90.0
1233,-1.6325111,1.415741,-1.0787888,-0.1263794,-2.1941164,0.96218264,90.0
1234,-1.6325111,1.415741,-1.0787888,0.26019287,-2.1250856,0.60216063,90.0
1235,-1.859781,1.6111908,-0.70402145,0.26019287,-2.1250856,0.60216063,90.0
1236,-1.859781,1.6111908,-0.70402145,0.023364259,-1.7724975,0.62552494,90.0
1237,-2.18105,1.767334,-0.43658447,0.023364259,-1.7724975,0.62552494,90.0
1238,-2.18105,1.767334,-0.43658447,-0.53950197,-1.809668,0.50020754,90.0
1239,-2.3190465,1.8379288,-0.72175217,-0.53950197,-1.809668,0.50020754,90.0
1240,-2.3190465,1.8379288,-0.72175217,-1.2021973,-1.6238159,0.52038574,90.0
1241,-2.2641485,1.7548523,-1.2888412,-1.2021973,-1.6238159,0.52038574,90.0
1242,-2.2641485,1.7548523,-1.2888412,-1.6248779,-1.4751343,0.29736328,90.0
1243,-2.1693997,1.4401398,-1.5787659,-1.6248779,-1.4751343,0.29736328,90.0
1244,-2.1693997,1.4401398,-1.5787659,-1.7894897,-1.3285767,0.05628662,90.0
1245,-1.9504247,0.79668427,-1.5549316,-1.7894897,-1.3285767,0.05628662,90.0
1246,-1.9504247,0.79668427,-1.5549316,-1.7470093,-1.1352905,-0.1539917,90.0
1247,-1.663123,-0.13878632,-1.6711807,-1.7470093,-1.1352905,-0.1539917,90.0
1248,-1.663123,-0.13878632,-1.6711807,-1.2584839,-0.9685547,-0.2888672,90.0
1249,-1.3199881,-0.7578659,-2.2494354,-1.2584839,-0.9685547,-0.2888672,90.0
1250,-1.3199881,-0.7578659,-2.2494354,-0.4078125,-0.91014403,-0.49277344,90.0
1251,-0.9785125,-0.3784027,-2.6810303,-0.4078125,-0.91014403,-0.49277344,90.0
1252,-0.9785125,-0.3784027,-2.6810303,-0.52250975,-0.94731444,-0.7688965,90.0
1253,-0.9785125,-0.3784027,-2.6810303,-0.52250975,-0.94731444,-0.7688965,91.0
1254,-0.58739984,0.17863464,-2.0052261,-0.52250975,-0.94731444,-0.7688965,91.0
1255,-0.58739984,0.17863464,-2.0052261,-0.79332274,-0.8623535,-0.9281983,91.0
1256,0.08388871,-0.041763306,-1.1764717,-0.79332274,-0.8623535,-0.9281983,91.0
1257,0.08388871,-0.041763306,-1.1764717,-1.2786621,-0.83686525,-0.9218262,91.0
1258,0.63756996,-1.0893784,-1.5497818,-1.2786621,-0.83686525,-0.9218262,91.0
1259,0.63756996,-1.0893784,-1.5497818,-0.7593384,-0.86766356,-0.9876709,91.0
1260,0.97321516,-2.8809357,-2.454464,-0.7593384,-0.86766356,-0.9876709,91.0
1261,0.97321516,-2.8809357,-2.454464,-0.13699952,-0.8973999,-0.6616333,91.0
1262,1.0070511,-3.984871,-2.8673935,-0.13699952,-0.8973999,-0.6616333,91.0
1263,1.0070511,-3.984871,-2.8673935,-0.14337158,-0.9154541,-0.6956177,91.0
1264,0.5704358,-3.4182053,-2.7809868,-0.14337158,-0.9154541,-0.6956177,91.0
1265,0.5704358,-3.4182053,-2.7809868,-0.2824951,-1.0705079,-0.5798584,91.0
1266,0.3633067,-2.0431824,-2.3619576,-0.2824951,-1.0705079,-0.5798584,91.0
1267,0.3633067,-2.0431824,-2.3619576,-0.41949463,-1.1607789,-0.65632325,91.0
1268,0.6277425,-0.71323395,-1.8368301,-0.41949463,-1.1607789,-0.65632325,91.0
1269,0.6277425,-0.71323395,-1.8368301,-0.98129886,-1.2903442,-0.77951664,91.0
1270,0.941696,-0.8022537,-1.7774963,-0.98129886,-1.2903442,-0.77951664,91.0
1271,0.941696,-0.8022537,-1.7774963,-1.3137085,-1.1098022,-0.53525394,91.0
1272,1.1663084,-1.8823853,-2.4332275,-1.3137085,-1.1098022,-0.53525394,91.0
1273,1.1663084,-1.8823853,-2.4332275,-1.2329956,-1.0163453,-0.40356445,91.0
1274,1.0621728,-2.288063,-3.3064194,-1.2329956,-1.0163453,-0.40356445,91.0
1275,1.0621728,-2.288063,-3.3064194,-0.44073486,-0.9653687,-0.06690674,91.0
1276,0.6551826,-1.5162888,-3.3051338,-0.44073486,-0.9653687,-0.06690674,91.0
1277,0.6551826,-1.5162888,-3.3051338,1.0343994,-0.8219971,-0.10513916,91.0
1278,0.23520565,0.36265564,-2.3175316,1.0343994,-0.8219971,-0.10513916,91.0
1279,0.23520565,0.36265564,-2.3175316,1.7406372,-0.83898926,-0.22196046,91.0
1280,-0.20620799,2.3140564,-1.1375828,1.7406372,-0.83898926,-0.22196046,91.0
1281,-0.20620799,2.3140564,-1.1375828,1.8595825,-0.84111327,-0.36320803,91.0
1282,-0.5933355,3.3935318,-0.42895126,1.8595825,-0.84111327,-0.36320803,91.0
1283,-0.5933355,3.3935318,-0.42895126,1.3126465,-1.0450195,-0.4598511,91.0
1284,-0.5665996,3.1592255,-0.1800518,1.3126465,-1.0450195,-0.4598511,91.0
1285,-0.5665996,3.1592255,-0.1800518,0.82836914,-1.2138795,-0.5299439,91.0
1286,-0.3119589,2.3585052,-0.110788345,0.82836914,-1.2138795,-0.5299439,91.0
1287,-0.3119589,2.3585052,-0.110788345,0.6552612,-1.2892822,-0.50445557,91.0
1288,0.3896296,0.8991089,0.7497101,0.6552612,-1.2892822,-0.50445557,91.0
1289,0.3896296,0.8991089,0.7497101,0.90058595,-1.1013062,-0.34940186,91.0
1290,0.31089807,0.48244476,1.16963,0.90058595,-1.1013062,-0.34940186,91.0
1291,0.31089807,0.48244476,1.16963,1.2160034,-1.0163453,-0.29948732,91.0
1292,-0.42191142,1.1593552,2.5323486,1.2160034,-1.0163453,-0.29948732,91.0
1293,-0.42191142,1.1593552,2.5323486,1.7576294,-0.80819094,-0.23895264,91.0
1294,-0.6772996,1.4890442,2.5051498,1.7576294,-0.80819094,-0.23895264,91.0
1295,-0.6772996,1.4890442,2.5051498,1.7799317,-0.79226077,-0.07965088,91.0
1296,-1.4087709,2.09021,2.7347603,1.7799317,-0.79226077,-0.07965088,91.0
1297,-1.4087709,2.09021,2.7347603,2.34386,-0.6467652,0.65632325,91.0
1298,-1.1858668,1.7881851,2.5575104,2.34386,-0.6467652,0.65632325,91.0
1299,-1.1858668,1.7881851,2.5575104,1.9466676,-0.5628662,-0.10089111,91.0
1300,-1.0178585,1.9816208,2.8428116,1.9466676,-0.5628662,-0.10089111,91.0
1301,-1.0178585,1.9816208,2.8428116,0.6818115,-0.09770508,0.7869507,91.0
1302,-0.9277512,1.0722961,2.55859,0.6818115,-0.09770508,0.7869507,91.0
1303,-0.9277512,1.0722961,2.55859,0.7827026,0.013806152,0.5777344,91.0
1304,-0.21062136,-1.2188339,2.1664276,0.7827026,0.013806152,0.5777344,91.0
1305,-0.21062136,-1.2188339,2.1664276,2.439441,0.8421753,0.11469727,91.0
1306,0.13741112,-1.0507889,1.9681015,2.439441,0.8421753,0.11469727,91.0
1307,0.13741112,-1.0507889,1.9681015,2.5541382,1.0747559,-0.053100586,91.0
1308,0.6340866,0.8266144,1.6979446,2.5541382,1.0747559,-0.053100586,91.0
1309,0.6340866,0.8266144,1.6979446,0.9568726,1.2319336,-0.42374268,91.0
1310,0.8176331,1.115387,1.5457573,0.9568726,1.2319336,-0.42374268,91.0
1311,0.8176331,1.115387,1.5457573,0.15611573,1.2000732,-0.59897465,91.0
1312,1.8796803,0.5677948,1.6796951,0.15611573,1.2000732,-0.59897465,91.0
1313,1.8796803,0.5677948,1.6796951,-0.58304447,1.4273437,-1.5579712,91.0
1314,2.1065884,0.2264328,1.609005,-0.58304447,1.4273437,-1.5579712,91.0
1315,2.1065884,0.2264328,1.609005,-0.40356445,1.5632813,-1.8680786,91.0
1316,2.652739,-0.17700958,1.9536362,-0.40356445,1.5632813,-1.8680786,91.0
1317,2.652739,-0.17700958,1.9536362,0.5150757,1.8054199,-2.4702394,91.0
1318,3.2476797,-0.03643799,2.4534607,0.5150757,1.8054199,-2.4702394,91.0
1319,3.2476797,-0.03643799,2.4534607,1.9286133,2.0592408,-3.2147095,91.0
1320,4.1451163,1.1039429,2.8220482,1.9286133,2.0592408,-3.2147095,91.0
1321,4.1451163,1.1039429,2.8220482,3.149927,1.9795898,-4.806665,91.0
1322,4.2420697,2.0871277,2.7060127,3.149927,1.9795898,-4.806665,91.0
1323,4.2420697,2.0871277,2.7060127,2.9555786,1.7310791,-5.3780274,91.0
1324,6.443241,4.432083,1.8688507,2.9555786,1.7310791,-5.3780274,91.0
1325,6.443241,4.432083,1.8688507,0.35789797,0.62764895,-6.779883,91.0
1326,6.9729156,4.8854294,1.3163834,0.35789797,0.62764895,-6.779883,91.0
1327,6.9729156,4.8854294,1.3163834,-0.81243896,0.40993652,-6.9508667,91.0
1328,9.627088,4.290848,0.8755188,-0.81243896,0.40993652,-6.9508667,91.0
1329,9.627088,4.290848,0.8755188,-3.5503051,0.13806152,-6.8605957,91.0
1330,9.627088,4.290848,0.8755188,-3.79032,0.13168946,-6.643945,91.0
1331,8.865782,3.6692734,0.76000977,-3.79032,0.13168946,-6.643945,91.0
1332,6.4542217,3.456009,0.22652435,-3.79032,0.13168946,-6.643945,91.0
1333,6.4542217,3.456009,0.22652435,-3.3134766,0.40993652,-5.678577,91.0
1334,6.4542217,3.456009,0.22652435,-2.3226197,0.48215333,-4.866138,91.0
1335,6.4542217,3.456009,0.22652435,-1.7555054,0.53525394,-3.981482,91.0
1336,2.0164661,3.8827972,-0.1335144,-1.7555054,0.53525394,-3.981482,91.0
1337,2.0164661,3.8827972,-0.1335144,-1.4039795,0.48109132,-2.8780518,91.0
1338,-2.375084,4.121399,-0.325943,-1.4039795,0.48109132,-2.8780518,91.0
1339,-2.375084,4.121399,-0.325943,-1.1151123,0.29736328,-1.3689331,91.0
1340,-2.552167,3.6240845,-0.30207825,-1.1151123,0.29736328,-1.3689331,91.0
1341,-2.552167,3.6240845,-0.30207825,-1.0375855,0.3058594,-1.0248413,91.0
1342,-2.5552835,3.2351074,-0.41228104,-1.0375855,0.3058594,-1.0248413,91.0
1343,-2.5552835,3.2351074,-0.41228104,-1.0312134,0.36745605,-0.53525394,91.0
1344,-2.3574219,2.5781174,-0.50712204,-1.0312134,0.36745605,-0.53525394,91.0
1345,-2.3574219,2.5781174,-0.50712204,-1.1915772,0.32178956,-0.25063476,91.0
1346,-2.2922115,1.773735,-0.6112747,-1.1915772,0.32178956,-0.25063476,91.0
1347,-2.2922115,1.773735,-0.6112747,-1.4177856,0.23789063,-0.06478272,91.0
1348,-2.1676674,0.9917755,-0.61491394,-1.4177856,0.23789063,-0.06478272,91.0
1349,-2.1676674,0.9917755,-0.61491394,-1.6142578,0.2803711,-0.07540283,91.0
1350,-2.0636263,0.467247,-0.38006592,-1.6142578,0.2803711,-0.07540283,91.0
1351,-2.0636263,0.467247,-0.38006592,-1.6524903,0.39082032,-0.23895264,91.0
1352,-2.1532812,0.25180054,-0.027282715,-1.6524903,0.39082032,-0.23895264,91.0
1353,-2.1532812,0.25180054,-0.027282715,-1.4868164,0.48746338,-0.4980835,91.0
1354,-2.2945242,0.1919632,0.22766113,-1.4868164,0.48746338,-0.4980835,91.0
1355,-2.2945242,0.1919632,0.22766113,-1.4868164,0.48746338,-0.4980835,93.0
1356,-2.2945242,0.1919632,0.22766113,-1.170337,0.48640138,-0.8209351,93.0
1357,-2.1155882,0.10198212,0.44571686,-1.170337,0.48640138,-0.8209351,93.0
1358,-2.1155882,0.10198212,0.44571686,-0.8442993,0.35046387,-1.0917481,93.0
1359,-0.64476585,-0.055122375,0.8849182,-0.8442993,0.35046387,-1.0917481,93.0
1360,-0.64476585,-0.055122375,0.8849182,-0.32922363,0.1539917,-1.2489258,93.0
1361,0.20973682,0.093803406,0.7925415,-0.32922363,0.1539917,-1.2489258,93.0
1362,0.20973682,0.093803406,0.7925415,-0.24107666,0.04460449,-1.2170655,93.0
1363,1.8763714,0.26991272,0.5626068,-0.24107666,0.04460449,-1.2170655,93.0
1364,1.8763714,0.26991272,0.5626068,-0.26975098,-0.1985962,-1.0397094,93.0
1365,2.7973003,0.26226807,0.52508545,-0.26975098,-0.1985962,-1.0397094,93.0
1366,2.7973003,0.26226807,0.52508545,-0.27293703,-0.42692873,-0.6966797,93.0
1367,2.906395,-0.077697754,0.86938477,-0.27293703,-0.42692873,-0.6966797,93.0
1368,2.906395,-0.077697754,0.86938477,0.27718505,-0.72216797,-0.2262085,93.0
1369,3.2660103,-0.38842773,1.0930023,0.27718505,-0.72216797,-0.2262085,93.0
1370,3.2660103,-0.38842773,1.0930023,1.2712281,-1.0386475,0.30161133,93.0
1371,4.430155,-0.27308655,0.8081665,1.2712281,-1.0386475,0.30161133,93.0
1372,4.430155,-0.27308655,0.8081665,2.3066895,-1.0991821,0.7349121,93.0
1373,5.0410595,0.02153778,0.46147537,2.3066895,-1.0991821,0.7349121,93.0
1374,5.0410595,0.02153778,0.46147537,3.0947022,-0.9589966,1.2935303,93.0
1375,3.942418,0.18524933,0.4913826,3.0947022,-0.9589966,1.2935303,93.0
1376,3.942418,0.18524933,0.4913826,3.8317382,-0.77951664,1.9137452,93.0
1377,1.7574139,0.41736603,0.487175,3.8317382,-0.77951664,1.9137452,93.0
1378,1.7574139,0.41736603,0.487175,4.5539064,-0.5033936,2.6008668,93.0
1379,-0.12512398,0.86821747,-0.021224976,4.5539064,-0.5033936,2.6008668,93.0
1380,-0.12512398,0.86821747,-0.021224976,4.6378055,-0.3717041,3.1085083,93.0
1381,-0.77555084,1.5181122,-0.7660179,4.6378055,-0.3717041,3.1085083,93.0
1382,-0.77555084,1.5181122,-0.7660179,3.9719238,-0.32178956,3.4706542,93.0
1383,-0.51222515,2.0355682,-1.175827,3.9719238,-0.32178956,3.4706542,93.0
1384,-0.51222515,2.0355682,-1.175827,3.2412598,-0.16992188,3.5768554,93.0
1385,-0.19994068,1.835022,-0.874794,3.2412598,-0.16992188,3.5768554,93.0
1386,-0.19994068,1.835022,-0.874794,3.0054932,0.08496094,3.4674683,93.0
1387,-0.49870968,0.97795105,-0.29572296,3.0054932,0.08496094,3.4674683,93.0
1388,-0.49870968,0.97795105,-0.29572296,3.0256715,0.33028564,3.09364,93.0
1389,-1.5559626,0.09554291,0.027130127,3.0256715,0.33028564,3.09364,93.0
1390,-1.5559626,0.09554291,0.027130127,2.5095336,0.6074707,2.7484863,93.0
1391,-2.7243233,-0.6339264,0.105895996,2.5095336,0.6074707,2.7484863,93.0
1392,-2.7243233,-0.6339264,0.105895996,1.718335,0.5968506,2.5934327,93.0
1393,-3.3222198,-1.4401779,0.037586212,1.718335,0.5968506,2.5934327,93.0
1394,-3.3222198,-1.4401779,0.037586212,1.3434448,0.5055176,2.436255,93.0
1395,-3.2454224,-2.0018234,-0.095710754,1.3434448,0.5055176,2.436255,93.0
1396,-3.2454224,-2.0018234,-0.095710754,1.4114136,0.44179687,2.083667,93.0
1397,-2.7287111,-1.9601135,-0.14578247,1.4114136,0.44179687,2.083667,93.0
1398,-2.7287111,-1.9601135,-0.14578247,1.3487549,0.39613038,1.8627685,93.0
1399,-2.0827131,-1.6583099,-0.12985992,1.3487549,0.39613038,1.8627685,93.0
1400,-2.0827131,-1.6583099,-0.12985992,1.1182984,0.44179687,1.6567383,93.0
1401,-1.63204,-1.5882797,-0.22200394,1.1182984,0.44179687,1.6567383,93.0
1402,-1.63204,-1.5882797,-0.22200394,1.0386475,0.45454103,1.4326538,93.0
1403,-1.4083672,-1.6242218,-0.4444275,1.0386475,0.45454103,1.4326538,93.0
1404,-1.4083672,-1.6242218,-0.4444275,0.99298096,0.42905274,1.26167,93.0
1405,-1.1723967,-1.4100723,-0.60019684,0.99298096,0.42905274,1.26167,93.0
1406,-1.1723967,-1.4100723,-0.60019684,0.815625,0.44604492,1.1299804,93.0
1407,-0.88963795,-0.97843933,-0.5500183,0.815625,0.44604492,1.1299804,93.0
1408,-0.88963795,-0.97843933,-0.5500183,0.50020754,0.42692873,1.0375855,93.0
1409,-0.54853916,-0.63671875,-0.3697052,0.50020754,0.42692873,1.0375855,93.0
1410,-0.54853916,-0.63671875,-0.3697052,0.13487549,0.34833986,0.8878418,93.0
1411,-0.06549168,-0.5938492,-0.12908936,0.13487549,0.34833986,0.8878418,93.0
1412,-0.06549168,-0.5938492,-0.12908936,-0.10513916,0.30479738,0.7126099,93.0
1413,0.48626614,-0.7290726,0.14107513,-0.10513916,0.30479738,0.7126099,93.0
1414,0.48626614,-0.7290726,0.14107513,-0.20496826,0.23364258,0.4694092,93.0
1415,0.9535637,-0.7905197,0.42733765,-0.20496826,0.23364258,0.4694092,93.0
1416,0.9535637,-0.7905197,0.42733765,-0.18160401,0.1709839,0.17629395,93.0
1417,1.081028,-0.69312286,0.70799255,-0.18160401,0.1709839,0.17629395,93.0
1418,1.081028,-0.69312286,0.70799255,-0.05522461,0.12319336,-0.11363526,93.0
1419,0.98249817,-0.47988892,1.0075798,-0.05522461,0.12319336,-0.11363526,93.0
1420,0.98249817,-0.47988892,1.0075798,-0.026550293,-0.08920898,-0.5501221,93.0
1421,1.5051756,-0.116378784,1.228157,-0.026550293,-0.08920898,-0.5501221,93.0
1422,1.5051756,-0.116378784,1.228157,-0.11682129,-0.42161867,-1.1108643,93.0
1423,2.5780659,0.36759186,1.2605057,-0.11682129,-0.42161867,-1.1108643,93.0
1424,2.5780659,0.36759186,1.2605057,-0.49383545,-0.5256958,-1.5197388,93.0
1425,2.8188248,0.76724243,1.263031,-0.49383545,-0.5256958,-1.5197388,93.0
1426,2.8188248,0.76724243,1.263031,-1.2722901,-0.58623046,-1.9541016,93.0
1427,1.7645807,0.80179596,1.3671036,-1.2722901,-0.58623046,-1.9541016,93.0
1428,1.7645807,0.80179596,1.3671036,-2.086853,-0.8612915,-2.258899,93.0
1429,0.77091694,0.4018631,1.4021416,-2.086853,-0.8612915,-2.258899,93.0
1430,0.77091694,0.4018631,1.4021416,-2.1091554,-1.1522827,-2.627417,93.0
1431,0.67264175,-0.224823,1.2082748,-2.1091554,-1.1522827,-2.627417,93.0
1432,0.67264175,-0.224823,1.2082748,-1.2903442,-1.1671509,-2.792029,93.0
1433,0.8143225,-0.5914154,0.8530464,-1.2903442,-1.1671509,-2.792029,93.0
1434,0.8143225,-0.5914154,0.8530464,-0.052038576,-1.2032593,-2.8387573,93.0
1435,0.76371384,-0.30332947,0.40885162,-0.052038576,-1.2032593,-2.8387573,93.0
1436,0.76371384,-0.30332947,0.40885162,0.9260742,-1.1469727,-2.7527344,93.0
1437,0.54091454,0.58374023,-0.08094025,0.9260742,-1.1469727,-2.7527344,93.0
1438,0.54091454,0.58374023,-0.08094025,1.1193603,-0.8878418,-2.5222778,93.0
1439,-0.12439728,1.5800781,-0.58906937,1.1193603,-0.8878418,-2.5222778,93.0
1440,-0.12439728,1.5800781,-0.58906937,0.4343628,-0.6202149,-2.2111084,93.0
1441,-1.292181,2.1480103,-1.1618462,0.4343628,-0.6202149,-2.2111084,93.0
1442,-1.292181,2.1480103,-1.1618462,-0.5171997,-0.45135498,-1.8755127,93.0
1443,-2.3144455,2.1330566,-1.5833473,-0.5171997,-0.45135498,-1.8755127,93.0
1444,-2.3144455,2.1330566,-1.5833473,-1.0673218,-0.3175415,-1.5154908,93.0
1445,-2.624836,1.8043823,-1.5703621,-1.0673218,-0.3175415,-1.5154908,93.0
1446,-2.624836,1.8043823,-1.5703621,-1.2340577,-0.19328614,-1.2276856,93.0
1447,-2.2976103,1.5545197,-1.2166061,-1.2340577,-0.19328614,-1.2276856,93.0
1448,-2.2976103,1.5545197,-1.2166061,-1.5420411,-0.04991455,-1.0163453,93.0
1449,-1.7303486,1.359848,-0.87023544,-1.5420411,-0.04991455,-1.0163453,93.0
1450,-1.7303486,1.359848,-0.87023544,-2.16969,0.059472658,-0.8230591,93.0
1451,-1.7303486,1.359848,-0.87023544,-2.16969,0.059472658,-0.8230591,94.0
1452,-1.1580954,0.84284973,-0.46886826,-2.16969,0.059472658,-0.8230591,94.0
1453,-1.1580954,0.84284973,-0.46886826,-2.6964478,0.2984253,-0.66269535,94.0
1454,-0.5353508,-0.23748016,0.15882874,-2.6964478,0.2984253,-0.66269535,94.0
1455,-0.5353508,-0.23748016,0.15882874,-2.9683228,0.49489745,-0.42905274,94.0
1456,0.18861389,-1.5241165,0.499218,-2.9683228,0.49489745,-0.42905274,94.0
1457,0.18861389,-1.5241165,0.499218,-3.0543458,0.50445557,-0.11469727,94.0
1458,0.7687626,-2.2273636,0.3133049,-3.0543458,0.50445557,-0.11469727,94.0
1459,0.7687626,-2.2273636,0.3133049,-2.9523926,0.5649902,0.02442627,94.0
1460,0.9212837,-2.2734833,0.1434784,-2.9523926,0.5649902,0.02442627,94.0
1461,0.9212837,-2.2734833,0.1434784,-2.7527344,0.5777344,0.38338622,94.0
1462,0.87601566,-2.3097076,0.19890213,-2.7527344,0.5777344,0.38338622,94.0
1463,0.87601566,-2.3097076,0.19890213,-2.4054565,0.46409914,0.8358032,94.0
1464,1.0237494,-2.5536041,0.0646286,-2.4054565,0.46409914,0.8358032,94.0
1465,1.0237494,-2.5536041,0.0646286,-2.1123414,0.24107666,1.2393677,94.0
1466,1.2975397,-2.902298,-0.33703995,-2.1123414,0.24107666,1.2393677,94.0
1467,1.2975397,-2.902298,-0.33703995,-1.8606446,0.13062744,1.7491333,94.0
1468,1.3774843,-3.6515121,-0.7388077,-1.8606446,0.13062744,1.7491333,94.0
1469,1.3774843,-3.6515121,-0.7388077,-1.2627319,-0.0541626,2.1919923,94.0
1470,1.4047947,-4.885147,-1.1878967,-1.2627319,-0.0541626,2.1919923,94.0
1471,1.4047947,-4.885147,-1.1878967,-0.023364259,-0.38869628,2.5456421,94.0
1472,1.8661327,-5.474571,-1.637001,-0.023364259,-0.38869628,2.5456421,94.0
1473,1.8661327,-5.474571,-1.637001,1.0694458,-0.71367186,2.6529052,94.0
1474,2.175682,-4.5852356,-1.771965,1.0694458,-0.71367186,2.6529052,94.0
1475,2.175682,-4.5852356,-1.771965,1.447522,-0.8867798,3.0862062,94.0
1476,1.4673281,-3.0127945,-1.663971,1.447522,-0.8867798,3.0862062,94.0
1477,1.4673281,-3.0127945,-1.663971,1.4103516,-1.3498169,3.6639404,94.0
1478,0.46216774,-2.0157013,-1.6722794,1.4103516,-1.3498169,3.6639404,94.0
1479,0.46216774,-2.0157013,-1.6722794,1.6758546,-1.808606,4.251233,94.0
1480,-0.058451653,-1.9471207,-1.9199677,1.6758546,-1.808606,4.251233,94.0
1481,-0.058451653,-1.9471207,-1.9199677,2.4043946,-2.0263183,4.53479,94.0
1482,-0.50255966,-2.183281,-2.0607529,2.4043946,-2.0263183,4.53479,94.0
1483,-0.50255966,-2.183281,-2.0607529,2.9619508,-2.1091554,4.612317,94.0
1484,-1.2589569,-1.896164,-1.8014832,2.9619508,-2.1091554,4.612317,94.0
1485,-1.2589569,-1.896164,-1.8014832,2.9428346,-2.2132325,4.603821,94.0
1486,-2.2248049,-0.96951294,-1.2821426,2.9428346,-2.2132325,4.603821,94.0
1487,-2.2248049,-0.96951294,-1.2821426,2.7378662,-2.2886353,4.4965577,94.0
1488,-3.1604958,-0.14135742,-0.7559891,2.7378662,-2.2886353,4.4965577,94.0
1489,-3.1604958,-0.14135742,-0.7559891,2.5477662,-2.3746583,4.3956666,94.0
1490,-3.8903236,0.05857849,-0.3411064,2.5477662,-2.3746583,4.3956666,94.0
1491,-3.8903236,0.05857849,-0.3411064,2.5902467,-2.34917,4.13335,94.0
1492,-4.3667755,-0.32666016,-0.052497864,2.5902467,-2.34917,4.13335,94.0
1493,-4.3667755,-0.32666016,-0.052497864,2.5201538,-2.4097047,4.0473266,94.0
1494,-4.463867,-0.647789,0.10109329,2.5201538,-2.4097047,4.0473266,94.0
1495,-4.463867,-0.647789,0.10109329,2.2440307,-2.443689,3.9018312,94.0
1496,-4.424536,-0.087638855,0.19635391,2.2440307,-2.443689,3.9018312,94.0
1497,-4.424536,-0.087638855,0.19635391,1.5823975,-2.439441,3.7573974,94.0
1498,-4.6048145,0.7027588,0.32835007,1.5823975,-2.439441,3.7573974,94.0
1499,-4.6048145,0.7027588,0.32835007,0.82836914,-2.6624634,3.6681886,94.0
1500,-4.5752215,0.4166031,0.38866806,0.82836914,-2.6624634,3.6681886,94.0
1501,-4.5752215,0.4166031,0.38866806,0.28674316,-2.8376954,3.5556152,94.0
1502,-4.04736,-0.5879822,0.32665634,0.28674316,-2.8376954,3.5556152,94.0
1503,-4.04736,-0.5879822,0.32665634,0.26762697,-2.6762695,3.2232056,94.0
1504,-3.645029,-0.94986725,0.38244247,0.26762697,-2.6762695,3.2232056,94.0
1505,-3.645029,-0.94986725,0.38244247,-0.053100586,-2.439441,2.989563,94.0
1506,-3.878267,-0.6886749,0.73984146,-0.053100586,-2.439441,2.989563,94.0
1507,-3.878267,-0.6886749,0.73984146,-0.51826173,-2.2971313,2.703882,94.0
1508,-4.2623425,-1.0913391,0.9669571,-0.51826173,-2.2971313,2.703882,94.0
1509,-4.2623425,-1.0913391,0.9669571,-0.8421753,-2.2174804,2.5721924,94.0
1510,-4.2623425,-1.0913391,0.9669571,-0.48321533,-1.8266602,2.2259767,94.0
1511,-4.036449,-1.9554291,0.9291458,-0.48321533,-1.8266602,2.2259767,94.0
1512,-4.5841274,-2.9855576,0.89058304,-0.48321533,-1.8266602,2.2259767,94.0
1513,-4.5841274,-2.9855576,0.89058304,-0.5161377,-1.3243287,1.8404664,94.0
1514,-4.5841274,-2.9855576,0.89058304,-0.5012695,-1.1278565,1.7958618,94.0
1515,-4.5841274,-2.9855576,0.89058304,-0.84111327,-0.87403566,1.4836304,94.0
1516,-4.238884,-2.7085266,0.48001862,-0.84111327,-0.87403566,1.4836304,94.0
1517,-4.8983827,-3.8809052,0.5886383,-0.84111327,-0.87403566,1.4836304,94.0
1518,-4.8983827,-3.8809052,0.5886383,-1.3275146,-0.8793457,1.3933594,94.0
1519,-4.8983827,-3.8809052,0.5886383,-0.2527588,-0.6786255,1.0174073,94.0
1520,-4.8983827,-3.8809052,0.5886383,0.08283692,-0.30267334,0.64995116,94.0
1521,-4.50739,-4.090088,0.47166824,0.08283692,-0.30267334,0.64995116,94.0
1522,-4.8417397,-3.647705,-0.9476776,0.08283692,-0.30267334,0.64995116,94.0
1523,-4.8417397,-3.647705,-0.9476776,-0.86341554,-0.45135498,0.68712157,94.0
1524,-4.8417397,-3.647705,-0.9476776,-1.2351197,-0.5150757,0.71579593,94.0
1525,-4.8417397,-3.647705,-0.9476776,-1.0651978,-0.50445557,0.72641605,94.0
1526,-3.8203888,-2.912239,-0.58008957,-1.0651978,-0.50445557,0.72641605,94.0
1527,-3.8203888,-2.912239,-0.58008957,-0.55755615,-0.3525879,0.6839356,94.0
1528,-2.752832,-1.6294632,-0.7962265,-0.55755615,-0.3525879,0.6839356,94.0
1529,-2.752832,-1.6294632,-0.7962265,-0.8581055,-0.3695801,0.59047854,94.0
1530,-1.7973952,-0.2794037,-1.241291,-0.8581055,-0.3695801,0.59047854,94.0
1531,-1.7973952,-0.2794037,-1.241291,-1.0397094,-0.2623169,0.5214478,94.0
1532,-1.1826549,0.42612457,-1.4295921,-1.0397094,-0.2623169,0.5214478,94.0
1533,-1.1826549,0.42612457,-1.4295921,-0.70198977,-0.1263794,0.38657227,94.0
1534,-0.97418785,0.74191284,-1.53508,-0.70198977,-0.1263794,0.38657227,94.0
1535,-0.97418785,0.74191284,-1.53508,-0.11469727,-0.050976563,0.38975832,94.0
1536,-1.0185957,1.235611,-1.4598389,-0.11469727,-0.050976563,0.38975832,94.0
1537,-1.0185957,1.235611,-1.4598389,-0.12213135,-0.027612304,0.39294434,94.0
1538,-1.2538538,1.6464539,-1.0086784,-0.12213135,-0.027612304,0.39294434,94.0
1539,-1.2538538,1.6464539,-1.0086784,0.14868164,-0.010620117,0.544812,94.0
1540,-1.5654364,1.8760147,-0.32997513,0.14868164,-0.010620117,0.544812,94.0
1541,-1.5654364,1.8760147,-0.32997513,0.33878174,0.0010620117,0.52038574,94.0
1542,-1.8583431,1.9534149,0.32027435,0.33878174,0.0010620117,0.52038574,94.0
1543,-1.8583431,1.9534149,0.32027435,0.5713623,-0.0053100586,0.58410645,94.0
1544,-2.1603804,1.6746597,0.6811104,0.5713623,-0.0053100586,0.58410645,94.0
1545,-2.1603804,1.6746597,0.6811104,0.8326172,-0.009558106,0.64570314,94.0
1546,-2.4331627,1.3519592,0.89702606,0.8326172,-0.009558106,0.64570314,94.0
1547,-2.4331627,1.3519592,0.89702606,0.7083618,-0.059472658,0.72004396,94.0
1548,-2.4331627,1.3519592,0.89702606,0.7083618,-0.059472658,0.72004396,94.0
1549,-2.4247408,1.0609589,1.1512871,0.7083618,-0.059472658,0.72004396,94.0
1550,-2.4247408,1.0609589,1.1512871,0.7168579,-0.014868164,0.72641605,94.0
1551,-2.0982027,0.6114578,1.256649,0.7168579,-0.014868164,0.72641605,94.0
1552,-2.0982027,0.6114578,1.256649,0.7582764,0.06903076,0.70198977,94.0
1553,-1.648448,-0.024871826,1.1903038,0.7582764,0.06903076,0.70198977,94.0
1554,-1.648448,-0.024871826,1.1903038,1.081128,0.118945315,0.6488892,94.0
1555,-1.3154631,-0.49253845,1.1275101,1.081128,0.118945315,0.6488892,94.0
1556,-1.3154631,-0.49253845,1.1275101,1.0120972,0.08814698,0.64995116,94.0
1557,-1.3104887,-0.6366043,1.1728363,1.0120972,0.08814698,0.64995116,94.0
1558,-1.3104887,-0.6366043,1.1728363,0.7189819,-0.013806152,0.64995116,94.0
1559,-1.4692402,-0.74057007,1.2284698,0.7189819,-0.013806152,0.64995116,94.0
1560,-1.4692402,-0.74057007,1.2284698,0.6818115,-0.06903076,0.62127686,94.0
1561,-1.6854258,-0.8595123,1.0959473,0.6818115,-0.06903076,0.62127686,94.0
1562,-1.6854258,-0.8595123,1.0959473,0.7126099,-0.08496094,0.48640138,94.0
1563,-1.8338261,-0.86502075,0.84039307,0.7126099,-0.08496094,0.48640138,94.0
1564,-1.8338261,-0.86502075,0.84039307,0.5278198,-0.14124756,0.39613038,94.0
1565,-1.597969,-0.89797974,0.71421814,0.5278198,-0.14124756,0.39613038,94.0
1566,-1.597969,-0.89797974,0.71421814,0.42692873,-0.20709229,0.35895997,94.0
1567,-1.1441584,-1.1893463,0.72185135,0.42692873,-0.20709229,0.35895997,94.0
1568,-1.1441584,-1.1893463,0.72185135,0.56817627,-0.17735596,0.20496826,94.0
1569,-1.0420351,-1.7810211,0.71858215,0.56817627,-0.17735596,0.20496826,94.0
