,accx,accy,accz,gyrox,gyroy,gyroz,heart rate
0,walk,walk,walk,walk,walk,walk,walk
1,1.7361695,-52.221703,37.970825,0.0,0.0,0.0,0.0
2,1.7361695,-52.221703,37.970825,-0.1263794,-0.15186767,-0.34940186,0.0
3,1.564607,-41.95052,29.599878,-0.1263794,-0.15186767,-0.34940186,0.0
4,1.564607,-41.95052,29.599878,-0.07965088,0.15186767,-0.12531738,0.0
5,1.5839366,-33.541786,22.734066,-0.07965088,0.15186767,-0.12531738,0.0
6,1.5839366,-33.541786,22.734066,-0.21134034,0.18372802,0.090270996,0.0
7,1.4682236,-26.76611,17.663548,-0.21134034,0.18372802,0.090270996,0.0
8,1.4682236,-26.76611,17.663548,-0.12213135,0.04141846,-0.13806152,0.0
9,0.96084595,-21.718601,13.98732,-0.12213135,0.04141846,-0.13806152,0.0
10,0.96084595,-21.718601,13.98732,-0.25063476,-0.014868164,-0.16885987,0.0
11,0.59024656,-17.65004,11.052662,-0.25063476,-0.014868164,-0.16885987,0.0
12,0.59024656,-17.65004,11.052662,-0.41949463,-0.033984374,-0.13381349,0.0
13,0.4761281,-14.090527,8.616348,-0.41949463,-0.033984374,-0.13381349,0.0
14,0.4761281,-14.090527,8.616348,-0.6074707,-0.118945315,-0.14655761,0.0
15,0.36590004,-11.158836,6.7434845,-0.6074707,-0.118945315,-0.14655761,0.0
16,0.36590004,-11.158836,6.7434845,-0.62552494,-0.1359375,-0.10301514,0.0
17,0.19472194,-8.974838,5.327137,-0.62552494,-0.1359375,-0.10301514,0.0
18,0.19472194,-8.974838,5.327137,-0.50020754,-0.11044922,0.007434082,0.0
19,-0.056783438,-7.341942,4.2295074,-0.50020754,-0.11044922,0.007434082,0.0
20,-0.056783438,-7.341942,4.2295074,-0.3971924,-0.13381349,0.13381349,0.0
21,-0.4014325,-6.022602,3.4578972,-0.3971924,-0.13381349,0.13381349,0.0
22,-0.4014325,-6.022602,3.4578972,-0.3355957,-0.14868164,0.23045655,0.0
23,-0.6598911,-4.9014893,2.9723701,-0.3355957,-0.14868164,0.23045655,0.0
24,-0.6598911,-4.9014893,2.9723701,-0.3451538,-0.15930176,0.32709962,0.0
25,-0.71101844,-4.0031357,2.6322784,-0.3451538,-0.15930176,0.32709962,0.0
26,-0.71101844,-4.0031357,2.6322784,-0.15186767,-0.12213135,0.2782471,0.0
27,-0.57859254,-3.414215,2.3339462,-0.15186767,-0.12213135,0.2782471,0.0
28,-0.57859254,-3.414215,2.3339462,0.045666505,-0.10938721,0.2262085,0.0
29,-0.39447808,-2.8181381,2.050579,0.045666505,-0.10938721,0.2262085,0.0
30,-0.39447808,-2.8181381,2.050579,-0.008496094,-0.07540283,0.23258057,0.0
31,-0.23450339,-1.9578094,1.7165489,-0.008496094,-0.07540283,0.23258057,0.0
32,-0.23450339,-1.9578094,1.7165489,-0.11044922,-0.0021240234,0.2824951,0.0
33,-0.08840835,-1.2511749,1.3770485,-0.11044922,-0.0021240234,0.2824951,0.0
34,-0.08840835,-1.2511749,1.3770485,-0.06478272,0.08920898,0.25700685,0.0
35,0.0028694868,-0.99188995,1.2266998,-0.06478272,0.08920898,0.25700685,0.0
36,0.0028694868,-0.99188995,1.2266998,0.08283692,0.10301514,0.23151855,0.0
37,0.020276546,-0.88933563,1.2999649,0.08283692,0.10301514,0.23151855,0.0
38,0.020276546,-0.88933563,1.2999649,0.18585205,0.11682129,0.24851075,0.0
39,0.038377047,-0.7526932,1.2173157,0.18585205,0.11682129,0.24851075,0.0
40,0.038377047,-0.7526932,1.2173157,0.35789797,0.25063476,0.3451538,0.0
41,0.20305276,-0.30303192,1.1705666,0.35789797,0.25063476,0.3451538,0.0
42,0.20305276,-0.30303192,1.1705666,0.3345337,0.27718505,0.38869628,0.0
43,0.20305276,-0.30303192,1.1705666,0.3345337,0.27718505,0.38869628,85.0
44,0.23208332,-0.112724304,0.9450073,0.3345337,0.27718505,0.38869628,85.0
45,0.23208332,-0.112724304,0.9450073,0.24851075,0.35683593,0.3695801,85.0
46,0.3001685,0.16616821,0.7167473,0.24851075,0.35683593,0.3695801,85.0
47,0.3001685,0.16616821,0.7167473,0.23151855,0.3695801,0.32709962,85.0
48,0.2678814,0.07066345,0.644577,0.23151855,0.3695801,0.32709962,85.0
49,0.2678814,0.07066345,0.644577,0.2442627,0.3536499,0.29205322,85.0
50,0.2678814,0.07066345,0.644577,0.28355715,0.3164795,0.24957275,85.0
51,0.22244716,-0.058998108,0.62514496,0.28355715,0.3164795,0.24957275,85.0
52,0.1877966,-0.14603424,0.5729065,0.28355715,0.3164795,0.24957275,85.0
53,0.1877966,-0.14603424,0.5729065,0.12213135,0.2357666,0.124255374,85.0
54,0.28141403,-0.25123596,0.73353195,0.12213135,0.2357666,0.124255374,85.0
55,0.28141403,-0.25123596,0.73353195,0.0010620117,0.21240234,0.1444336,85.0
56,0.28908384,-0.19787598,0.77618027,0.0010620117,0.21240234,0.1444336,85.0
57,0.28908384,-0.19787598,0.77618027,-0.027612304,0.07540283,0.13806152,85.0
58,0.23987293,-0.26070404,1.110054,-0.027612304,0.07540283,0.13806152,85.0
59,0.23987293,-0.26070404,1.110054,0.045666505,0.03186035,0.11151123,85.0
60,0.1599648,-0.34817505,1.013298,0.045666505,0.03186035,0.11151123,85.0
61,0.1599648,-0.34817505,1.013298,0.18054199,0.15823975,0.27399904,85.0
62,0.17736149,-0.4764862,0.6662674,0.18054199,0.15823975,0.27399904,85.0
63,0.17736149,-0.4764862,0.6662674,0.2814331,0.28461915,0.452417,85.0
64,0.14684534,-0.43260193,0.23078156,0.2814331,0.28461915,0.452417,85.0
65,0.14684534,-0.43260193,0.23078156,0.5235718,0.45666504,0.6573853,85.0
66,-0.11838794,-0.41516113,-0.6938667,0.5235718,0.45666504,0.6573853,85.0
67,-0.11838794,-0.41516113,-0.6938667,0.61065674,0.45560303,0.64782715,85.0
68,-0.58175874,-0.3986969,-1.199955,0.61065674,0.45560303,0.64782715,85.0
69,-0.58175874,-0.3986969,-1.199955,0.61915284,0.32709962,0.5564942,85.0
70,-0.8381976,-0.4019165,-1.12426,0.61915284,0.32709962,0.5564942,85.0
71,-0.8381976,-0.4019165,-1.12426,0.4959595,0.20178223,0.4343628,85.0
72,-0.7276137,-0.48415375,-0.86315155,0.4959595,0.20178223,0.4343628,85.0
73,-0.7276137,-0.48415375,-0.86315155,0.26444092,0.053100586,0.33878174,85.0
74,-0.43155384,-0.5992508,-0.72600937,0.26444092,0.053100586,0.33878174,85.0
75,-0.43155384,-0.5992508,-0.72600937,0.10620117,-0.09770508,0.18266602,85.0
76,-0.09166634,-0.7616272,-0.6058922,0.10620117,-0.09770508,0.18266602,85.0
77,-0.09166634,-0.7616272,-0.6058922,0.040356446,-0.23258057,0.047790527,85.0
78,0.275666,-0.8115692,-0.33294296,0.040356446,-0.23258057,0.047790527,85.0
79,0.275666,-0.8115692,-0.33294296,-0.07752686,-0.25806886,0.022302246,85.0
80,0.65358937,-0.60944366,-0.09202576,-0.07752686,-0.25806886,0.022302246,85.0
81,0.65358937,-0.60944366,-0.09202576,-0.36533204,-0.13381349,0.11151123,85.0
82,0.91454625,-0.15827179,-0.31165695,-0.36533204,-0.13381349,0.11151123,85.0
83,0.91454625,-0.15827179,-0.31165695,-0.4088745,-0.09451904,0.11363526,85.0
84,0.7079065,-0.04450226,-0.44625092,-0.4088745,-0.09451904,0.11363526,85.0
85,0.7079065,-0.04450226,-0.44625092,-0.42374268,-0.020178223,0.124255374,85.0
86,0.39138627,0.035202026,-0.6767769,-0.42374268,-0.020178223,0.124255374,85.0
87,0.39138627,0.035202026,-0.6767769,-0.22514649,0.04885254,0.15823975,85.0
88,0.033067465,0.004470825,-0.80618286,-0.22514649,0.04885254,0.15823975,85.0
89,0.033067465,0.004470825,-0.80618286,-0.16885987,0.039294433,0.121069334,85.0
90,-0.35986185,0.05405426,-0.79248047,-0.16885987,0.039294433,0.121069334,85.0
91,-0.35986185,0.05405426,-0.79248047,-0.18054199,-0.07540283,0.11044922,85.0
92,-0.70544314,0.20480347,-0.58599854,-0.18054199,-0.07540283,0.11044922,85.0
93,-0.70544314,0.20480347,-0.58599854,-0.1178833,-0.1539917,0.047790527,85.0
94,-0.8218863,0.28007507,-0.3280487,-0.1178833,-0.1539917,0.047790527,85.0
95,-0.8218863,0.28007507,-0.3280487,-0.15611573,-0.21134034,0.0053100586,85.0
96,-0.7206805,0.34275055,-0.10702896,-0.15611573,-0.21134034,0.0053100586,85.0
97,-0.7206805,0.34275055,-0.10702896,-0.0541626,-0.2357666,-0.033984374,85.0
98,-0.5132265,0.3675995,0.119140625,-0.0541626,-0.2357666,-0.033984374,85.0
99,-0.5132265,0.3675995,0.119140625,-0.0010620117,-0.25806886,-0.070092775,85.0
100,-0.30468524,0.29496002,0.44112396,-0.0010620117,-0.25806886,-0.070092775,85.0
101,-0.30468524,0.29496002,0.44112396,-0.17416993,-0.3355957,-0.1985962,85.0
102,-0.1641705,0.21297455,0.81227493,-0.17416993,-0.3355957,-0.1985962,85.0
103,-0.1641705,0.21297455,0.81227493,-0.29736328,-0.42161867,-0.29948732,85.0
104,-0.03281343,0.12223816,1.1297913,-0.29736328,-0.42161867,-0.29948732,85.0
105,-0.03281343,0.12223816,1.1297913,-0.37595215,-0.5012695,-0.3440918,85.0
106,0.17683768,0.0315094,1.3613052,-0.37595215,-0.5012695,-0.3440918,85.0
107,0.17683768,0.0315094,1.3613052,-0.48746338,-0.541626,-0.29736328,85.0
108,0.41307664,0.05291748,1.3955383,-0.48746338,-0.541626,-0.29736328,85.0
109,0.41307664,0.05291748,1.3955383,-0.64995116,-0.632959,-0.27612305,85.0
110,0.60680413,0.18369293,1.189331,-0.64995116,-0.632959,-0.27612305,85.0
111,0.60680413,0.18369293,1.189331,-0.9505005,-0.7604004,-0.35471192,85.0
112,0.8586123,0.35826874,0.77368164,-0.9505005,-0.7604004,-0.35471192,85.0
113,0.8586123,0.35826874,0.77368164,-1.3901733,-0.89208984,-0.4704712,85.0
114,1.2178714,0.4768982,0.13417816,-1.3901733,-0.89208984,-0.4704712,85.0
115,1.2178714,0.4768982,0.13417816,-1.902063,-1.089624,-0.6680054,85.0
116,1.5592825,0.44410706,-0.62700653,-1.902063,-1.089624,-0.6680054,85.0
117,1.5592825,0.44410706,-0.62700653,-2.5148437,-1.2011353,-0.85598147,85.0
118,1.7940202,0.34079742,-1.3388748,-2.5148437,-1.2011353,-0.85598147,85.0
119,1.7940202,0.34079742,-1.3388748,-3.2412598,-1.2776002,-0.98236084,85.0
120,1.8224111,0.25149536,-2.0646935,-3.2412598,-1.2776002,-0.98236084,85.0
121,1.8224111,0.25149536,-2.0646935,-3.815808,-1.2956543,-1.1448487,85.0
122,1.5824895,0.10115051,-2.8891945,-3.815808,-1.2956543,-1.1448487,85.0
123,1.5824895,0.10115051,-2.8891945,-4.196008,-1.3307008,-1.3168945,85.0
124,1.1929445,-0.057250977,-3.6619186,-4.196008,-1.3307008,-1.3168945,85.0
125,1.1929445,-0.057250977,-3.6619186,-4.423279,-1.3668091,-1.4390259,85.0
126,0.92868423,-0.10089111,-4.1904945,-4.423279,-1.3668091,-1.4390259,85.0
127,0.92868423,-0.10089111,-4.1904945,-4.4721313,-1.4379638,-1.5930176,85.0
128,0.8782258,-0.049476624,-4.390396,-4.4721313,-1.4379638,-1.5930176,85.0
129,0.8782258,-0.049476624,-4.390396,-4.2830935,-1.5431031,-1.7661256,85.0
130,0.98051023,-0.11314392,-4.200966,-4.2830935,-1.5431031,-1.7661256,85.0
131,0.98051023,-0.11314392,-4.200966,-3.970862,-1.5930176,-2.1495118,85.0
132,1.1238856,-0.2781372,-3.6229706,-3.970862,-1.5930176,-2.1495118,85.0
133,1.1238856,-0.2781372,-3.6229706,-3.6087158,-1.6907227,-2.5010376,85.0
134,1.0858884,-0.26003265,-2.805153,-3.6087158,-1.6907227,-2.5010376,85.0
135,1.0858884,-0.26003265,-2.805153,-2.987439,-1.9233032,-2.7346802,85.0
136,0.62641335,0.029205322,-1.9795609,-2.987439,-1.9233032,-2.7346802,85.0
137,0.62641335,0.029205322,-1.9795609,-2.0603027,-2.2015502,-2.9247804,85.0
138,-0.08242655,0.560318,-1.3764114,-2.0603027,-2.2015502,-2.9247804,85.0
139,-0.08242655,0.560318,-1.3764114,-1.4857544,-2.608301,-2.9704468,85.0
140,-0.6094713,1.4059677,-1.0613365,-1.4857544,-2.608301,-2.9704468,85.0
141,-0.6094713,1.4059677,-1.0613365,-1.3944215,-3.1159425,-2.988501,85.0
142,-0.6994791,2.2991714,-1.0140495,-1.3944215,-3.1159425,-2.988501,85.0
143,-0.6994791,2.2991714,-1.0140495,-1.6004517,-3.5853517,-3.0416017,85.0
144,-0.36175632,2.688118,-1.1191864,-1.6004517,-3.5853517,-3.0416017,85.0
145,-0.36175632,2.688118,-1.1191864,-1.8001099,-4.009094,-3.1711671,85.0
146,0.1907711,2.5545502,-1.1322746,-1.8001099,-4.009094,-3.1711671,85.0
147,0.1907711,2.5545502,-1.1322746,-1.9742798,-4.449829,-3.2890503,85.0
148,0.7811322,2.3077621,-0.9347496,-1.9742798,-4.449829,-3.2890503,85.0
149,0.7811322,2.3077621,-0.9347496,-2.2259767,-4.8140993,-3.3771973,85.0
150,1.3966341,2.188385,-0.58877945,-2.2259767,-4.8140993,-3.3771973,85.0
151,1.3966341,2.188385,-0.58877945,-2.6327271,-5.0201297,-3.516321,85.0
152,1.9926004,2.1592636,-0.10784149,-2.6327271,-5.0201297,-3.516321,85.0
153,1.9926004,2.1592636,-0.10784149,-3.258252,-5.0456176,-3.5205688,85.0
154,2.3719854,2.1316376,0.61140823,-3.258252,-5.0456176,-3.5205688,85.0
155,2.3719854,2.1316376,0.61140823,-3.9751098,-4.87251,-3.4876466,85.0
156,2.2548027,1.9619751,1.5478325,-3.9751098,-4.87251,-3.4876466,85.0
157,2.2548027,1.9619751,1.5478325,-4.239551,-4.4721313,-3.3336549,85.0
158,1.8015962,1.3225708,2.4460678,-4.239551,-4.4721313,-3.3336549,85.0
159,1.8015962,1.3225708,2.4460678,-3.8381104,-3.61615,-2.8440673,85.0
160,1.408843,-0.2300148,2.6146774,-3.8381104,-3.61615,-2.8440673,85.0
161,1.408843,-0.2300148,2.6146774,-3.4058716,-2.269519,-2.0656128,85.0
162,0.8794422,-2.3309708,1.7687187,-3.4058716,-2.269519,-2.0656128,85.0
163,0.8794422,-2.3309708,1.7687187,-3.4058716,-2.269519,-2.0656128,78.0
164,0.8794422,-2.3309708,1.7687187,-2.8525636,-1.4230957,-1.6694825,78.0
165,0.11744499,-2.9216232,0.9258995,-2.8525636,-1.4230957,-1.6694825,78.0
166,0.11744499,-2.9216232,0.9258995,-2.6582153,-0.8591675,-0.6924316,78.0
167,-0.08089733,-1.3594055,0.84682465,-2.6582153,-0.8591675,-0.6924316,78.0
168,-0.08089733,-1.3594055,0.84682465,-2.7814088,0.045666505,-0.23364258,78.0
169,-0.16309452,0.06109619,1.5150452,-2.7814088,0.045666505,-0.23364258,78.0
170,-0.16309452,0.06109619,1.5150452,-3.0362916,0.68287355,0.10301514,78.0
171,-1.7176094,0.27764893,2.5144768,-3.0362916,0.68287355,0.10301514,78.0
172,-1.7176094,0.27764893,2.5144768,-3.344275,1.1374146,0.2824951,78.0
173,-4.763943,-0.13002777,2.945221,-3.344275,1.1374146,0.2824951,78.0
174,-4.763943,-0.13002777,2.945221,-3.338965,1.2085694,0.1901001,78.0
175,-7.703525,-0.65491486,2.605091,-3.338965,1.2085694,0.1901001,78.0
176,-7.703525,-0.65491486,2.605091,-2.992749,0.8612915,0.21240234,78.0
177,-8.912577,-0.88375854,2.0567017,-2.992749,0.8612915,0.21240234,78.0
178,-8.912577,-0.88375854,2.0567017,-2.5605104,0.6903076,0.38444826,78.0
179,-7.9254837,-0.81301117,1.5673065,-2.5605104,0.6903076,0.38444826,78.0
180,-7.9254837,-0.81301117,1.5673065,-2.0454347,0.77314454,0.3971924,78.0
181,-5.850067,-0.8342819,1.1615944,-2.0454347,0.77314454,0.3971924,78.0
182,-5.850067,-0.8342819,1.1615944,-1.3965454,0.6988037,0.35471192,78.0
183,-4.072302,-1.1229782,0.95944977,-1.3965454,0.6988037,0.35471192,78.0
184,-4.072302,-1.1229782,0.95944977,-0.52038574,0.4609131,0.39082032,78.0
185,-2.8523364,-1.4772491,0.88788605,-0.52038574,0.4609131,0.39082032,78.0
186,-2.8523364,-1.4772491,0.88788605,0.55968016,0.41524658,0.48321533,78.0
187,-1.7601528,-1.6187134,0.6653862,0.55968016,0.41524658,0.48321533,78.0
188,-1.7601528,-1.6187134,0.6653862,1.4613281,0.5256958,0.6085327,78.0
189,-0.7678757,-1.2550201,0.277256,1.4613281,0.5256958,0.6085327,78.0
190,-0.7678757,-1.2550201,0.277256,2.0443726,0.5140137,0.93350834,78.0
191,-0.14149785,-0.2857666,-0.11132431,2.0443726,0.5140137,0.93350834,78.0
192,-0.14149785,-0.2857666,-0.11132431,2.2514648,0.4959595,1.3710572,78.0
193,0.2748754,0.96720886,-0.48939133,2.2514648,0.4959595,1.3710572,78.0
194,0.2748754,0.96720886,-0.48939133,2.0826051,0.55543214,1.8510865,78.0
195,0.8070097,1.9805222,-0.8967247,2.0826051,0.55543214,1.8510865,78.0
196,0.8070097,1.9805222,-0.8967247,1.6142578,0.68287355,2.2482789,78.0
197,1.4477074,2.365532,-1.2524643,1.6142578,0.68287355,2.2482789,78.0
198,1.4477074,2.365532,-1.2524643,1.1639649,0.75509036,2.4182007,78.0
199,1.9504266,2.1689377,-1.4352722,1.1639649,0.75509036,2.4182007,78.0
200,1.9504266,2.1689377,-1.4352722,0.82836914,0.7890747,2.5636964,78.0
201,2.2961323,1.7449188,-1.4578743,0.82836914,0.7890747,2.5636964,78.0
202,2.2961323,1.7449188,-1.4578743,0.62977296,0.8517334,2.5881226,78.0
203,2.6084514,1.3174591,-1.4119301,0.62977296,0.8517334,2.5881226,78.0
204,2.6084514,1.3174591,-1.4119301,0.4991455,0.9260742,2.5010376,78.0
205,2.8279233,0.9810333,-1.281498,0.4991455,0.9260742,2.5010376,78.0
206,2.8279233,0.9810333,-1.281498,0.36533204,0.9568726,2.3704102,78.0
207,2.801218,0.77591705,-0.99464417,0.36533204,0.9568726,2.3704102,78.0
208,2.801218,0.77591705,-0.99464417,0.19541016,0.9260742,2.2270386,78.0
209,2.558577,0.6557312,-0.59583664,0.19541016,0.9260742,2.2270386,78.0
210,2.558577,0.6557312,-0.59583664,-0.025488282,0.84111327,2.081543,78.0
211,2.4125233,0.5948715,-0.34812927,-0.025488282,0.84111327,2.081543,78.0
212,2.4125233,0.5948715,-0.34812927,-0.36745605,0.7880127,2.0199463,78.0
213,2.6698625,0.66025925,-0.55675125,-0.36745605,0.7880127,2.0199463,78.0
214,2.6698625,0.66025925,-0.55675125,-0.92713624,0.57561034,1.9817139,78.0
215,3.5440564,0.77892685,-1.1179466,-0.92713624,0.57561034,1.9817139,78.0
216,3.5440564,0.77892685,-1.1179466,-1.3423828,0.65207523,1.8489624,78.0
217,4.699686,0.6395874,-1.307148,-1.3423828,0.65207523,1.8489624,78.0
218,4.699686,0.6395874,-1.307148,-1.0790039,0.7338501,1.7544434,78.0
219,4.307454,0.029529572,-0.19581604,-1.0790039,0.7338501,1.7544434,78.0
220,4.307454,0.029529572,-0.19581604,-0.2984253,0.27293703,1.5749635,78.0
221,1.6273723,-0.6962242,1.8113518,-0.2984253,0.27293703,1.5749635,78.0
222,1.6273723,-0.6962242,1.8113518,0.6680054,-0.14018555,1.4984986,78.0
223,-0.9785342,-0.779747,2.92844,0.6680054,-0.14018555,1.4984986,78.0
224,-0.9785342,-0.779747,2.92844,1.5845215,-0.30373535,1.6705445,78.0
225,-1.274014,-0.13101196,2.4194336,1.5845215,-0.30373535,1.6705445,78.0
226,-1.274014,-0.13101196,2.4194336,2.3672242,-0.22939454,1.7119629,78.0
227,0.3201809,0.5194855,0.9744377,2.3672242,-0.22939454,1.7119629,78.0
228,0.3201809,0.5194855,0.9744377,2.89292,0.06690674,1.5622193,78.0
229,2.144743,0.8792,-0.5373192,2.89292,0.06690674,1.5622193,78.0
230,2.144743,0.8792,-0.5373192,2.8536255,0.542688,1.4337158,78.0
231,3.0009384,1.2603531,-1.5192947,2.8536255,0.542688,1.4337158,78.0
232,3.0009384,1.2603531,-1.5192947,2.1059692,1.1044922,1.2892822,78.0
233,2.439581,1.873272,-1.6021042,2.1059692,1.1044922,1.2892822,78.0
234,2.439581,1.873272,-1.6021042,0.7805786,1.4432739,1.0662597,78.0
235,0.7311325,2.5631447,-0.7730408,0.7805786,1.4432739,1.0662597,78.0
236,0.7311325,2.5631447,-0.7730408,-0.8421753,1.4517701,1.0588257,78.0
237,-1.2646666,2.768814,0.4002304,-0.8421753,1.4517701,1.0588257,78.0
238,-1.2646666,2.768814,0.4002304,-2.1378295,1.4050416,0.85704345,78.0
239,-2.8026633,2.0414085,1.1701355,-2.1378295,1.4050416,0.85704345,78.0
240,-2.8026633,2.0414085,1.1701355,-2.802649,1.1947632,0.39188233,78.0
241,-3.5773969,0.7815552,1.3659325,-2.802649,1.1947632,0.39188233,78.0
242,-3.5773969,0.7815552,1.3659325,-3.0893922,0.88253176,0.0541626,78.0
243,-3.5113807,-0.36809158,1.3306961,-3.0893922,0.88253176,0.0541626,78.0
244,-3.5113807,-0.36809158,1.3306961,-3.2263916,0.66588134,-0.34727785,78.0
245,-2.8224347,-1.2209129,1.3172798,-3.2263916,0.66588134,-0.34727785,78.0
246,-2.8224347,-1.2209129,1.3172798,-2.998059,0.52675784,-0.8995239,78.0
247,-1.9576912,-1.8557701,1.2017975,-2.998059,0.52675784,-0.8995239,78.0
248,-1.9576912,-1.8557701,1.2017975,-2.450061,0.4630371,-1.4007934,78.0
249,-1.32919,-2.2603493,0.8736687,-2.450061,0.4630371,-1.4007934,78.0
250,-1.32919,-2.2603493,0.8736687,-1.7321411,0.3727661,-1.8733886,78.0
251,-1.107981,-2.3180847,0.5376167,-1.7321411,0.3727661,-1.8733886,78.0
252,-1.107981,-2.3180847,0.5376167,-1.0588257,0.21877442,-2.3353639,78.0
253,-1.2273881,-2.001999,0.41163635,-1.0588257,0.21877442,-2.3353639,78.0
254,-1.2273881,-2.001999,0.41163635,-0.5235718,-0.07115479,-2.7314942,78.0
255,-1.2273881,-2.001999,0.41163635,-0.5235718,-0.07115479,-2.7314942,77.0
256,-1.4034927,-1.4497185,0.40938568,-0.5235718,-0.07115479,-2.7314942,77.0
257,-1.4034927,-1.4497185,0.40938568,-0.18797608,-0.39294434,-3.1159425,77.0
258,-1.323429,-0.8892212,0.36077118,-0.18797608,-0.39294434,-3.1159425,77.0
259,-1.323429,-0.8892212,0.36077118,0.004248047,-0.67225343,-3.4610963,77.0
260,-0.90036917,-0.49263763,0.30026245,0.004248047,-0.67225343,-3.4610963,77.0
261,-0.90036917,-0.49263763,0.30026245,0.11363526,-1.0439576,-3.7690797,77.0
262,-0.25915027,-0.30364227,0.34877777,0.11363526,-1.0439576,-3.7690797,77.0
263,-0.25915027,-0.30364227,0.34877777,0.2516968,-1.4315919,-4.070691,77.0
264,0.5926554,-0.30507278,0.4727478,0.2516968,-1.4315919,-4.070691,77.0
265,0.5926554,-0.30507278,0.4727478,0.5246338,-1.6089478,-4.3128295,77.0
266,1.7185459,-0.549736,0.54382324,0.5246338,-1.6089478,-4.3128295,77.0
267,1.7185459,-0.549736,0.54382324,0.905896,-1.5877075,-4.436023,77.0
268,2.7347488,-1.0636673,0.44813156,0.905896,-1.5877075,-4.436023,77.0
269,2.7347488,-1.0636673,0.44813156,1.3827393,-1.3657471,-4.2947755,77.0
270,2.8701723,-1.6046829,0.15232849,1.3827393,-1.3657471,-4.2947755,77.0
271,2.8701723,-1.6046829,0.15232849,1.4039795,-1.0333375,-3.609778,77.0
272,1.7784252,-1.8721848,-0.5665283,1.4039795,-1.0333375,-3.609778,77.0
273,1.7784252,-1.8721848,-0.5665283,0.7965088,-0.8294312,-2.7431762,77.0
274,0.19637299,-1.6150093,-1.0188332,0.7965088,-0.8294312,-2.7431762,77.0
275,0.19637299,-1.6150093,-1.0188332,0.22727051,-0.38657227,-2.0167603,77.0
276,-0.684613,-0.18928528,-0.41999817,0.22727051,-0.38657227,-2.0167603,77.0
277,-0.684613,-0.18928528,-0.41999817,-0.95793456,0.24213867,-0.53737795,77.0
278,-1.096909,2.1002045,0.50178146,-0.95793456,0.24213867,-0.53737795,77.0
279,-1.096909,2.1002045,0.50178146,-2.3289917,0.45454103,0.38338622,77.0
280,-2.2864506,3.1193085,0.9797821,-2.3289917,0.45454103,0.38338622,77.0
281,-2.2864506,3.1193085,0.9797821,-3.5906618,0.29736328,0.8782837,77.0
282,-3.5867777,2.142994,1.1254044,-3.5906618,0.29736328,0.8782837,77.0
283,-3.5867777,2.142994,1.1254044,-4.1758304,0.21346436,1.3381348,77.0
284,-3.4584482,0.19752502,1.0489655,-4.1758304,0.21346436,1.3381348,77.0
285,-3.4584482,0.19752502,1.0489655,-3.7510254,0.42055663,1.4666382,77.0
286,-1.9782455,-1.9788208,0.83763504,-3.7510254,0.42055663,1.4666382,77.0
287,-1.9782455,-1.9788208,0.83763504,-2.4585571,0.55755615,1.2818482,77.0
288,-0.28481805,-3.5974846,0.80143356,-2.4585571,0.55755615,1.2818482,77.0
289,-0.28481805,-3.5974846,0.80143356,-0.8358032,0.81987303,1.1682129,77.0
290,0.79295856,-3.813568,0.88318634,-0.8358032,0.81987303,1.1682129,77.0
291,0.79295856,-3.813568,0.88318634,0.6117188,1.1554688,1.1883911,77.0
292,0.7511027,-2.4811554,0.8449249,0.6117188,1.1554688,1.1883911,77.0
293,0.7511027,-2.4811554,0.8449249,1.4815063,1.1905152,1.3806152,77.0
294,-0.23107588,-0.29522705,0.6777725,1.4815063,1.1905152,1.3806152,77.0
295,-0.23107588,-0.29522705,0.6777725,1.5739014,1.183081,1.725769,77.0
296,-1.0934666,1.7209015,0.3856659,1.5739014,1.183081,1.725769,77.0
297,-1.0934666,1.7209015,0.3856659,1.1246704,1.2149414,2.069861,77.0
298,-1.0093803,2.878357,-0.03823471,1.1246704,1.2149414,2.069861,77.0
299,-1.0093803,2.878357,-0.03823471,0.46516114,1.3190186,2.3364258,77.0
300,-0.1959686,3.0791855,-0.42297363,0.46516114,1.3190186,2.3364258,77.0
301,-0.1959686,3.0791855,-0.42297363,-0.052038576,1.4156617,2.4543092,77.0
302,0.6035279,2.5635338,-0.5447502,-0.052038576,1.4156617,2.4543092,77.0
303,0.6035279,2.5635338,-0.5447502,-0.09451904,1.4687623,2.3884645,77.0
304,0.8772315,1.6254959,-0.36746597,-0.09451904,1.4687623,2.3884645,77.0
305,0.8772315,1.6254959,-0.36746597,0.13487549,1.4092896,2.1080933,77.0
306,0.6700592,0.6824875,-0.118312836,0.13487549,1.4092896,2.1080933,77.0
307,0.6700592,0.6824875,-0.118312836,0.22833252,1.2977784,1.7321411,77.0
308,0.4095093,0.12099075,-0.06276703,0.22833252,1.2977784,1.7321411,77.0
309,0.4095093,0.12099075,-0.06276703,0.18479005,1.1820191,1.3115845,77.0
310,0.27332282,-0.05432129,-0.1931572,0.18479005,1.1820191,1.3115845,77.0
311,0.27332282,-0.05432129,-0.1931572,0.1709839,0.9781128,0.9165161,77.0
312,0.106060624,0.086818695,-0.21625519,0.1709839,0.9781128,0.9165161,77.0
313,0.106060624,0.086818695,-0.21625519,0.20284425,0.7072998,0.6711914,77.0
314,-0.17575943,0.41070175,0.08843231,0.20284425,0.7072998,0.6711914,77.0
315,-0.17575943,0.41070175,0.08843231,0.29630128,0.3706421,0.5320679,77.0
316,-0.53524864,0.69488525,0.56565475,0.29630128,0.3706421,0.5320679,77.0
317,-0.53524864,0.69488525,0.56565475,0.42799073,0.0,0.39400634,77.0
318,-0.8824225,0.7893677,0.8137207,0.42799073,0.0,0.39400634,77.0
319,-0.8824225,0.7893677,0.8137207,0.5097656,-0.32497558,0.2623169,77.0
320,-1.103045,0.7381134,0.6361809,0.5097656,-0.32497558,0.2623169,77.0
321,-1.103045,0.7381134,0.6361809,0.6149048,-0.61915284,0.08814698,77.0
322,-1.1304706,0.64250183,0.2672844,0.6149048,-0.61915284,0.08814698,77.0
323,-1.1304706,0.64250183,0.2672844,0.7476563,-0.8230591,-0.0637207,77.0
324,-1.0043033,0.5591202,0.014694214,0.7476563,-0.8230591,-0.0637207,77.0
325,-1.0043033,0.5591202,0.014694214,0.9143921,-0.9451904,-0.26550293,77.0
326,-0.9102542,0.46335983,0.04127121,0.9143921,-0.9451904,-0.26550293,77.0
327,-0.9102542,0.46335983,0.04127121,1.0949341,-1.0439576,-0.4980835,77.0
328,-1.0363698,0.36872482,0.27241898,1.0949341,-1.0439576,-0.4980835,77.0
329,-1.0363698,0.36872482,0.27241898,1.1873292,-1.2138795,-0.68924564,77.0
330,-1.2955875,0.35077667,0.38635254,1.1873292,-1.2138795,-0.68924564,77.0
331,-1.2955875,0.35077667,0.38635254,1.1629028,-1.449646,-0.88253176,77.0
332,-1.354744,0.3842697,0.19877625,1.1629028,-1.449646,-0.88253176,77.0
333,-1.354744,0.3842697,0.19877625,1.0875,-1.6684204,-1.1246704,77.0
334,-0.9359803,0.34391403,-0.140419,1.0875,-1.6684204,-1.1246704,77.0
335,-0.9359803,0.34391403,-0.140419,1.0174073,-1.7916138,-1.360437,77.0
336,-0.06415284,0.21273041,-0.43829727,1.0174073,-1.7916138,-1.360437,77.0
337,-0.06415284,0.21273041,-0.43829727,0.98236084,-1.808606,-1.5154908,77.0
338,0.8513267,0.07015991,-0.65163803,0.98236084,-1.808606,-1.5154908,77.0
339,0.8513267,0.07015991,-0.65163803,1.0312134,-1.7831177,-1.5855836,77.0
340,1.2736883,-0.048618317,-0.70168304,1.0312134,-1.7831177,-1.5855836,77.0
341,1.2736883,-0.048618317,-0.70168304,1.1682129,-1.8712647,-1.6110718,77.0
342,1.0609795,-0.054603577,-0.4528389,1.1682129,-1.8712647,-1.6110718,77.0
343,1.0609795,-0.054603577,-0.4528389,1.3922974,-2.0337524,-1.4273437,77.0
344,0.5538739,0.030960083,0.037399292,1.3922974,-2.0337524,-1.4273437,77.0
345,0.5538739,0.030960083,0.037399292,1.808606,-2.18562,-1.3243287,77.0
346,0.16165385,0.004917145,0.54465103,1.808606,-2.18562,-1.3243287,77.0
347,0.16165385,0.004917145,0.54465103,2.2334106,-2.3013794,-1.264856,77.0
348,0.11744565,-0.13088226,0.8106842,2.2334106,-2.3013794,-1.264856,77.0
349,0.11744565,-0.13088226,0.8106842,2.5509522,-2.2100465,-1.1894531,77.0
350,0.11744565,-0.13088226,0.8106842,2.5509522,-2.2100465,-1.1894531,77.0
351,0.4103872,-0.272892,0.55578613,2.5509522,-2.2100465,-1.1894531,77.0
352,0.4103872,-0.272892,0.55578613,2.633789,-1.8553345,-1.1151123,77.0
353,0.6983537,-0.433815,-0.3214836,2.633789,-1.8553345,-1.1151123,77.0
354,0.6983537,-0.433815,-0.3214836,2.5424562,-1.4252198,-1.0864381,77.0
355,0.57451546,-0.6310005,-1.4200287,2.5424562,-1.4252198,-1.0864381,77.0
356,0.57451546,-0.6310005,-1.4200287,2.444751,-1.1416626,-1.0620117,77.0
357,0.1471368,-0.640007,-2.2982178,2.444751,-1.1416626,-1.0620117,77.0
358,0.1471368,-0.640007,-2.2982178,2.2546508,-0.8506714,-0.8846558,77.0
359,0.0391694,-0.3183899,-2.8434715,2.2546508,-0.8506714,-0.8846558,77.0
360,0.0391694,-0.3183899,-2.8434715,2.1335816,-0.43967286,-0.6701294,77.0
361,0.3505494,-0.09460449,-3.0338364,2.1335816,-0.43967286,-0.6701294,77.0
362,0.3505494,-0.09460449,-3.0338364,1.9997681,-0.027612304,-0.49277344,77.0
363,0.61906254,-0.34881592,-2.9028282,1.9997681,-0.027612304,-0.49277344,77.0
364,0.61906254,-0.34881592,-2.9028282,1.7958618,0.29417726,-0.28461915,77.0
365,0.6074205,-0.7779045,-2.6695404,1.7958618,0.29417726,-0.28461915,77.0
366,0.6074205,-0.7779045,-2.6695404,1.7289551,0.69349366,0.0637207,77.0
367,0.33166397,-0.9601898,-2.5345001,1.7289551,0.69349366,0.0637207,77.0
368,0.33166397,-0.9601898,-2.5345001,1.630188,1.0439576,0.41312256,77.0
369,-0.2290048,-0.83797836,-2.5344849,1.630188,1.0439576,0.41312256,77.0
370,-0.2290048,-0.83797836,-2.5344849,1.2924683,0.87191164,0.74871826,77.0
371,-0.6994026,-0.4428177,-2.5244522,1.2924683,0.87191164,0.74871826,77.0
372,-0.6994026,-0.4428177,-2.5244522,0.95581055,0.725354,1.1119263,77.0
373,-0.17973691,0.032245636,-2.409649,0.95581055,0.725354,1.1119263,77.0
374,-0.17973691,0.032245636,-2.409649,0.8995239,1.1607789,1.4400879,77.0
375,1.1998141,0.2002449,-2.1370316,0.8995239,1.1607789,1.4400879,77.0
376,1.1998141,0.2002449,-2.1370316,0.814563,1.4804443,1.6673584,77.0
377,1.7370973,-0.05052185,-1.6382866,0.814563,1.4804443,1.6673584,77.0
378,1.7370973,-0.05052185,-1.6382866,0.5256958,1.3062744,1.7374512,77.0
379,0.7761769,-0.45593262,-1.1631203,0.5256958,1.3062744,1.7374512,77.0
380,0.7761769,-0.45593262,-1.1631203,0.25700685,1.0482056,1.6854126,77.0
381,-0.19037437,-0.69356537,-1.1447678,0.25700685,1.0482056,1.6854126,77.0
382,-0.19037437,-0.69356537,-1.1447678,0.1178833,0.98129886,1.5951416,77.0
383,0.11011505,-0.60868835,-1.5646896,0.1178833,0.98129886,1.5951416,77.0
384,0.11011505,-0.60868835,-1.5646896,0.033984374,1.0705079,1.4836304,77.0
385,1.1828187,-0.41892242,-1.9206963,0.033984374,1.0705079,1.4836304,77.0
386,1.1828187,-0.41892242,-1.9206963,-0.008496094,1.170337,1.3370727,77.0
387,1.7323512,-0.42630005,-1.802414,-0.008496094,1.170337,1.3370727,77.0
388,1.7323512,-0.42630005,-1.802414,-0.1274414,1.0959961,1.1724609,77.0
389,1.367485,-0.48728943,-1.3136978,-0.1274414,1.0959961,1.1724609,77.0
390,1.367485,-0.48728943,-1.3136978,-0.41949463,1.085376,1.1490967,77.0
391,0.761554,-0.23345947,-0.839386,-0.41949463,1.085376,1.1490967,77.0
392,0.761554,-0.23345947,-0.839386,-0.8209351,1.0736939,1.2892822,77.0
393,0.38172865,0.2901001,-0.53165054,-0.8209351,1.0736939,1.2892822,77.0
394,0.38172865,0.2901001,-0.53165054,-1.269104,1.0120972,1.4443359,77.0
395,0.18038273,0.65382004,-0.31175995,-1.269104,1.0120972,1.4443359,77.0
396,0.18038273,0.65382004,-0.31175995,-1.629126,0.9420044,1.5792115,77.0
397,0.0780344,0.64237976,-0.15073776,-1.629126,0.9420044,1.5792115,77.0
398,0.0780344,0.64237976,-0.15073776,-1.8595825,0.85385746,1.6705445,77.0
399,0.07310867,0.42469788,0.0022010803,-1.8595825,0.85385746,1.6705445,77.0
400,0.07310867,0.42469788,0.0022010803,-2.0156982,0.7168579,1.6832886,77.0
401,0.15602112,0.26822662,0.2103424,-2.0156982,0.7168579,1.6832886,77.0
402,0.15602112,0.26822662,0.2103424,-2.162256,0.5363159,1.6408081,77.0
403,0.31817627,0.25437927,0.45092773,-2.162256,0.5363159,1.6408081,77.0
404,0.31817627,0.25437927,0.45092773,-2.3268678,0.30479738,1.4878784,77.0
405,0.5307007,0.26529694,0.712059,-2.3268678,0.30479738,1.4878784,77.0
406,0.5307007,0.26529694,0.712059,-2.3948364,0.06265869,1.1331666,77.0
407,0.67375493,0.14147186,0.9885063,-2.3948364,0.06265869,1.1331666,77.0
408,0.67375493,0.14147186,0.9885063,-2.2950075,-0.23682861,0.5777344,77.0
409,0.5346215,-0.1727829,1.2690392,-2.2950075,-0.23682861,0.5777344,77.0
410,0.5346215,-0.1727829,1.2690392,-1.9413575,-0.6117188,-0.18054199,77.0
411,0.045824528,-0.61896515,1.5374985,-1.9413575,-0.6117188,-0.18054199,77.0
412,0.045824528,-0.61896515,1.5374985,-1.2892822,-1.0397094,-1.0768799,77.0
413,-0.5922344,-1.0485153,1.7979813,-1.2892822,-1.0397094,-1.0768799,77.0
414,-0.5922344,-1.0485153,1.7979813,-0.35152587,-1.4995606,-1.9148072,77.0
415,-1.1130819,-1.252655,1.9872131,-0.35152587,-1.4995606,-1.9148072,77.0
416,-1.1130819,-1.252655,1.9872131,0.72216797,-2.0380006,-2.6858277,77.0
417,-1.3636467,-1.1121063,1.9810677,0.72216797,-2.0380006,-2.6858277,77.0
418,-1.3636467,-1.1121063,1.9810677,1.9689697,-2.5732543,-3.3262208,77.0
419,-1.345556,-0.7962265,1.7349777,1.9689697,-2.5732543,-3.3262208,77.0
420,-1.345556,-0.7962265,1.7349777,3.2317016,-3.073462,-3.6873047,77.0
421,-1.2052046,-0.69174194,1.3441696,3.2317016,-3.073462,-3.6873047,77.0
422,-1.2052046,-0.69174194,1.3441696,4.5082397,-3.5747316,-3.9305055,77.0
423,-1.1153722,-0.9970932,0.83268356,4.5082397,-3.5747316,-3.9305055,77.0
424,-1.1153722,-0.9970932,0.83268356,5.684949,-3.9644897,-3.9570558,77.0
425,-1.0117435,-1.5875702,0.07941437,5.684949,-3.9644897,-3.9570558,77.0
426,-1.0117435,-1.5875702,0.07941437,6.6343875,-4.094055,-3.6830566,77.0
427,-0.6993973,-2.2353668,-0.9907913,6.6343875,-4.094055,-3.6830566,77.0
428,-0.6993973,-2.2353668,-0.9907913,7.366113,-3.883777,-3.2816162,77.0
429,-0.15564823,-2.897377,-2.2402763,7.366113,-3.883777,-3.2816162,77.0
430,-0.15564823,-2.897377,-2.2402763,7.664539,-3.0171754,-2.8695557,77.0
431,0.45361865,-3.1797714,-3.5221786,7.664539,-3.0171754,-2.8695557,77.0
432,0.45361865,-3.1797714,-3.5221786,5.3939576,-1.3954834,-2.7644165,77.0
433,0.88127875,-1.4906311,-3.7248116,5.3939576,-1.3954834,-2.7644165,77.0
434,0.88127875,-1.4906311,-3.7248116,2.7357423,-0.7763306,-1.5983276,77.0
435,0.64088726,2.1502838,-2.542591,2.7357423,-0.7763306,-1.5983276,77.0
436,0.64088726,2.1502838,-2.542591,2.5063477,0.008496094,-0.4248047,77.0
437,-0.33573997,3.2652817,-1.9947548,2.5063477,0.008496094,-0.4248047,77.0
438,-0.33573997,3.2652817,-1.9947548,2.352356,0.8591675,-0.3791382,77.0
439,-1.3989753,1.5005417,-2.286747,2.352356,0.8591675,-0.3791382,77.0
440,-1.3989753,1.5005417,-2.286747,1.2064453,1.170337,0.27399904,77.0
441,-2.0200715,0.5832443,-2.1016388,1.2064453,1.170337,0.27399904,77.0
442,-2.0200715,0.5832443,-2.1016388,-0.118945315,1.3338867,0.47684327,77.0
443,-2.148589,0.51391983,-1.4767075,-0.118945315,1.3338867,0.47684327,77.0
444,-2.148589,0.51391983,-1.4767075,-1.356189,1.806482,0.57454836,77.0
445,-1.6991202,0.3469391,-0.940155,-1.356189,1.806482,0.57454836,77.0
446,-1.6991202,0.3469391,-0.940155,-2.5849366,2.360852,0.8931519,77.0
447,-0.96735275,0.017345428,-0.45632172,-2.5849366,2.360852,0.8931519,77.0
448,-0.96735275,0.017345428,-0.45632172,-3.354895,2.3746583,1.1883911,77.0
449,-0.58075476,-0.5279846,0.027889252,-3.354895,2.3746583,1.1883911,77.0
450,-0.58075476,-0.5279846,0.027889252,-3.3963134,1.7501954,1.4655762,77.0
451,-0.41190606,-1.1584244,0.27082062,-3.3963134,1.7501954,1.4655762,77.0
452,-0.41190606,-1.1584244,0.27082062,-3.1382446,1.1161743,1.4942505,77.0
453,0.44250888,-1.5116501,-0.0983696,-3.1382446,1.1161743,1.4942505,77.0
454,0.44250888,-1.5116501,-0.0983696,-2.7484863,0.84323734,1.2829102,77.0
455,2.2574618,-1.6085129,-1.0465775,-2.7484863,0.84323734,1.2829102,77.0
456,2.2574618,-1.6085129,-1.0465775,-2.7484863,0.84323734,1.2829102,76.0
457,2.2574618,-1.6085129,-1.0465775,-2.0390625,0.81031495,0.98129886,76.0
458,4.0750003,-1.5905228,-1.9840622,-2.0390625,0.81031495,0.98129886,76.0
459,4.0750003,-1.5905228,-1.9840622,-1.0312134,0.91120607,0.7455322,76.0
460,4.5568266,-1.378273,-2.3287773,-1.0312134,0.91120607,0.7455322,76.0
461,4.5568266,-1.378273,-2.3287773,-0.009558106,0.81881106,0.6966797,76.0
462,3.108547,-0.88002014,-1.774559,-0.009558106,0.81881106,0.6966797,76.0
463,3.108547,-0.88002014,-1.774559,0.75296634,0.6403931,0.7720825,76.0
464,0.61253333,-0.13437653,-0.61236,0.75296634,0.6403931,0.7720825,76.0
465,0.61253333,-0.13437653,-0.61236,1.3731812,0.4428589,0.9685547,76.0
466,-1.4587283,0.58348083,0.40092087,1.3731812,0.4428589,0.9685547,76.0
467,-1.4587283,0.58348083,0.40092087,2.0305665,0.14549561,1.2425537,76.0
468,-2.2826567,0.89826965,0.8894119,2.0305665,0.14549561,1.2425537,76.0
469,-2.2826567,0.89826965,0.8894119,2.614673,0.0,1.5112427,76.0
470,-1.6566674,0.8912735,0.8278618,2.614673,0.0,1.5112427,76.0
471,-1.6566674,0.8912735,0.8278618,2.7389283,0.30373535,1.8415283,76.0
472,-0.013810515,1.0607758,0.24243927,2.7389283,0.30373535,1.8415283,76.0
473,-0.013810515,1.0607758,0.24243927,2.269519,0.75721437,2.1580079,76.0
474,1.3853261,1.452713,-0.48557663,2.269519,0.75721437,2.1580079,76.0
475,1.3853261,1.452713,-0.48557663,1.4114136,0.97067875,2.3141236,76.0
476,1.6769989,1.6049576,-0.7861061,1.4114136,0.97067875,2.3141236,76.0
477,1.6769989,1.6049576,-0.7861061,0.4694092,1.1267945,2.3088136,76.0
478,1.2943335,1.3067551,-0.62817764,0.4694092,1.1267945,2.3088136,76.0
479,1.2943335,1.3067551,-0.62817764,-0.4163086,1.2945923,2.2132325,76.0
480,0.90674376,0.7845154,-0.2953148,-0.4163086,1.2945923,2.2132325,76.0
481,0.90674376,0.7845154,-0.2953148,-1.0248413,1.3455689,2.0390625,76.0
482,0.6092205,0.21730042,0.088394165,-1.0248413,1.3455689,2.0390625,76.0
483,0.6092205,0.21730042,0.088394165,-1.3200806,1.2967163,1.814978,76.0
484,0.42608476,-0.23671722,0.39088058,-1.3200806,1.2967163,1.814978,76.0
485,0.42608476,-0.23671722,0.39088058,-1.3052124,1.2202514,1.5983276,76.0
486,0.50048685,-0.45066833,0.4930992,-1.3052124,1.2202514,1.5983276,76.0
487,0.50048685,-0.45066833,0.4930992,-1.0736939,1.1618408,1.3445069,76.0
488,0.82736707,-0.5091934,0.4004631,-1.0736939,1.1618408,1.3445069,76.0
489,0.82736707,-0.5091934,0.4004631,-0.7306641,1.1809571,1.0864381,76.0
490,1.1110635,-0.50457,0.26296234,-0.7306641,1.1809571,1.0864381,76.0
491,1.1110635,-0.50457,0.26296234,-0.4163086,1.1214844,0.85598147,76.0
492,1.0296712,-0.40437317,0.28733444,-0.4163086,1.1214844,0.85598147,76.0
493,1.0296712,-0.40437317,0.28733444,-0.27506104,0.9876709,0.6754395,76.0
494,0.6524477,-0.14772034,0.5066261,-0.27506104,0.9876709,0.6754395,76.0
495,0.6524477,-0.14772034,0.5066261,-0.26125488,0.7880127,0.5171997,76.0
496,0.3129983,0.17081451,0.72013474,-0.26125488,0.7880127,0.5171997,76.0
497,0.3129983,0.17081451,0.72013474,-0.32603762,0.6180908,0.32285157,76.0
498,0.25985909,0.36396027,0.80155945,-0.32603762,0.6180908,0.32285157,76.0
499,0.25985909,0.36396027,0.80155945,-0.4694092,0.4800293,0.081774905,76.0
500,0.42872477,0.36960602,0.7893677,-0.4694092,0.4800293,0.081774905,76.0
501,0.42872477,0.36960602,0.7893677,-0.6680054,0.37489015,-0.19541016,76.0
502,0.57983303,0.28123474,0.79045486,-0.6680054,0.37489015,-0.19541016,76.0
503,0.57983303,0.28123474,0.79045486,-0.8952759,0.2984253,-0.48427734,76.0
504,0.55225754,0.2866974,0.8113327,-0.8952759,0.2984253,-0.48427734,76.0
505,0.55225754,0.2866974,0.8113327,-1.2298096,0.22939454,-0.72641605,76.0
506,0.38543415,0.53328705,0.79776,-1.2298096,0.22939454,-0.72641605,76.0
507,0.38543415,0.53328705,0.79776,-1.6238159,0.18266602,-0.9260742,76.0
508,0.17614555,0.8178787,0.73786545,-1.6238159,0.18266602,-0.9260742,76.0
509,0.17614555,0.8178787,0.73786545,-1.9625977,0.107263185,-1.2096313,76.0
510,-0.016944885,0.85988235,0.7422104,-1.9625977,0.107263185,-1.2096313,76.0
511,-0.016944885,0.85988235,0.7422104,-2.2960694,-0.010620117,-1.5133667,76.0
512,0.0602355,0.8015022,0.85785675,-2.2960694,-0.010620117,-1.5133667,76.0
513,0.0602355,0.8015022,0.85785675,-2.6529052,-0.03186035,-1.8011719,76.0
514,0.6299877,0.8390541,0.9638977,-2.6529052,-0.03186035,-1.8011719,76.0
515,0.6299877,0.8390541,0.9638977,-3.0108032,0.13062744,-2.0645509,76.0
516,1.3645372,0.87994766,0.8510742,-3.0108032,0.13062744,-2.0645509,76.0
517,1.3645372,0.87994766,0.8510742,-3.4940186,0.2347046,-2.3905885,76.0
518,1.7815228,0.87641907,0.48207855,-3.4940186,0.2347046,-2.3905885,76.0
519,1.7815228,0.87641907,0.48207855,-4.0080323,0.37807617,-2.624231,76.0
520,1.8438096,0.82450104,0.13638306,-4.0080323,0.37807617,-2.624231,76.0
521,1.8438096,0.82450104,0.13638306,-4.3340697,0.725354,-2.788843,76.0
522,1.4958119,0.5417633,0.19047928,-4.3340697,0.725354,-2.788843,76.0
523,1.4958119,0.5417633,0.19047928,-4.3043337,0.994043,-2.9120362,76.0
524,0.30792904,0.019042969,0.7158241,-4.3043337,0.994043,-2.9120362,76.0
525,0.30792904,0.019042969,0.7158241,-3.9623659,0.8793457,-2.998059,76.0
526,-1.3782539,-0.462574,1.5632706,-3.9623659,0.8793457,-2.998059,76.0
527,-1.3782539,-0.462574,1.5632706,-3.2879884,0.6637573,-3.0479736,76.0
528,-2.1569366,-0.6203308,2.3362617,-3.2879884,0.6637573,-3.0479736,76.0
529,-2.1569366,-0.6203308,2.3362617,-2.3353639,0.73809814,-2.9364624,76.0
530,-1.3382206,-0.52059174,2.4606705,-2.3353639,0.73809814,-2.9364624,76.0
531,-1.3382206,-0.52059174,2.4606705,-1.634436,0.94731444,-2.717688,76.0
532,-0.14012003,-0.5040474,1.8268967,-1.634436,0.94731444,-2.717688,76.0
533,-0.14012003,-0.5040474,1.8268967,-1.5760254,1.1204224,-2.258899,76.0
534,-0.09008694,-0.621109,1.0140343,-1.5760254,1.1204224,-2.258899,76.0
535,-0.09008694,-0.621109,1.0140343,-1.81073,1.3126465,-1.622754,76.0
536,-1.270092,-0.5836792,0.66215515,-1.81073,1.3126465,-1.622754,76.0
537,-1.270092,-0.5836792,0.66215515,-2.1463258,1.3689331,-0.9781128,76.0
538,-2.6916842,0.09315109,1.0044937,-2.1463258,1.3689331,-0.9781128,76.0
539,-2.6916842,0.09315109,1.0044937,-2.4150147,1.2595459,-0.2347046,76.0
540,-3.381558,1.454979,1.8265839,-2.4150147,1.2595459,-0.2347046,76.0
541,-3.381558,1.454979,1.8265839,-2.794153,1.1650269,0.6138428,76.0
542,-3.0526829,2.541523,2.536171,-2.794153,1.1650269,0.6138428,76.0
543,-3.0526829,2.541523,2.536171,-3.1966553,1.1883911,1.1618408,76.0
544,-2.2285476,2.2977943,2.6878586,-3.1966553,1.1883911,1.1618408,76.0
545,-2.2285476,2.2977943,2.6878586,-3.4664063,1.2436157,1.4029175,76.0
546,-1.5432873,0.95573807,2.3061104,-3.4664063,1.2436157,1.4029175,76.0
547,-1.5432873,0.95573807,2.3061104,-3.5811036,1.263794,1.4836304,76.0
548,-1.0798813,-0.38565063,1.6746597,-3.5811036,1.263794,1.4836304,76.0
549,-1.0798813,-0.38565063,1.6746597,-3.5598633,1.3105224,1.4252198,76.0
550,-0.6552625,-1.1150856,1.1267891,-3.5598633,1.3105224,1.4252198,76.0
551,-0.6552625,-1.1150856,1.1267891,-3.3761353,1.4634522,1.2499878,76.0
552,-0.34879494,-1.3203392,0.921257,-3.3761353,1.4634522,1.2499878,76.0
553,-0.34879494,-1.3203392,0.921257,-3.1446168,1.5643433,1.0237793,76.0
554,-0.41347206,-1.2657928,1.0922813,-3.1446168,1.5643433,1.0237793,76.0
555,-0.41347206,-1.2657928,1.0922813,-2.9056642,1.5335449,0.7497803,76.0
556,-0.7793616,-1.1414185,1.4666443,-2.9056642,1.5335449,0.7497803,76.0
557,-0.7793616,-1.1414185,1.4666443,-2.6465333,1.4740723,0.44179687,76.0
558,-1.1284575,-1.0682602,1.784462,-2.6465333,1.4740723,0.44179687,76.0
559,-1.1284575,-1.0682602,1.784462,-2.5190918,1.4262818,0.2527588,76.0
560,-1.1949291,-1.0831718,1.8249321,-2.5190918,1.4262818,0.2527588,76.0
561,-1.1949291,-1.0831718,1.8249321,-2.2376587,1.1490967,-0.45135498,76.0
562,-1.6112535,-1.1375694,2.0527802,-2.2376587,1.1490967,-0.45135498,76.0
563,-1.6112535,-1.1375694,2.0527802,-2.182434,1.0014771,-0.7147339,76.0
564,-1.6295058,-1.2008667,1.9625244,-2.182434,1.0014771,-0.7147339,76.0
565,-1.6295058,-1.2008667,1.9625244,-2.0252564,0.47578126,-1.5038086,76.0
566,-1.6295058,-1.2008667,1.9625244,-2.0252564,0.47578126,-1.5038086,76.0
567,-1.5174229,-1.4046555,2.0608025,-2.0252564,0.47578126,-1.5038086,76.0
568,-1.5174229,-1.4046555,2.0608025,-1.9456055,0.30267334,-1.7841797,76.0
569,-1.2010112,-1.5331726,1.8943214,-1.9456055,0.30267334,-1.7841797,76.0
570,-1.2010112,-1.5331726,1.8943214,-1.63125,-0.26337892,-2.613611,76.0
571,0.072748184,-1.9307861,1.9173126,-1.63125,-0.26337892,-2.613611,76.0
572,0.072748184,-1.9307861,1.9173126,-1.538855,-0.47471926,-2.8291993,76.0
573,0.47771764,-1.9234161,1.8469238,-1.538855,-0.47471926,-2.8291993,76.0
574,0.47771764,-1.9234161,1.8469238,-1.3668091,-0.9143921,-3.163733,76.0
575,2.4945276,-1.796669,2.116726,-1.3668091,-0.9143921,-3.163733,76.0
576,2.4945276,-1.796669,2.116726,-1.2914063,-0.92501223,-3.169043,76.0
577,2.475212,-1.7365417,1.9140968,-1.2914063,-0.92501223,-3.169043,76.0
578,2.475212,-1.7365417,1.9140968,-0.91120607,-0.95368654,-2.9141603,76.0
579,1.5020324,-1.5439072,1.8762093,-0.91120607,-0.95368654,-2.9141603,76.0
580,1.5020324,-1.5439072,1.8762093,-0.89421386,-0.91757816,-2.6741455,76.0
581,0.49739003,-1.3028259,1.608963,-0.89421386,-0.91757816,-2.6741455,76.0
582,0.49739003,-1.3028259,1.608963,-1.260608,-0.9366943,-1.5431031,76.0
583,-1.076026,1.0681152E-4,0.885437,-1.260608,-0.9366943,-1.5431031,76.0
584,-1.076026,1.0681152E-4,0.885437,-1.360437,-0.9515625,-1.1437867,76.0
585,-0.8390801,0.23365784,0.5850105,-1.360437,-0.9515625,-1.1437867,76.0
586,-0.8390801,0.23365784,0.5850105,-1.4868164,-0.72004396,-0.13168946,76.0
587,0.30954647,0.8205948,0.23662567,-1.4868164,-0.72004396,-0.13168946,76.0
588,0.30954647,0.8205948,0.23662567,-1.6503662,-0.57242435,0.18797608,76.0
589,0.65177536,0.5361481,0.33388138,-1.6503662,-0.57242435,0.18797608,76.0
590,0.65177536,0.5361481,0.33388138,-2.4118288,-0.24107666,0.84111327,76.0
591,0.32159114,0.039230347,1.0194473,-2.4118288,-0.24107666,0.84111327,76.0
592,0.32159114,0.039230347,1.0194473,-2.6008668,-0.18266602,0.8995239,76.0
593,-0.18583012,-0.49837494,1.2458191,-2.6008668,-0.18266602,0.8995239,76.0
594,-0.18583012,-0.49837494,1.2458191,-2.998059,-0.047790527,0.8050049,76.0
595,-1.806501,-1.4424362,1.9916649,-2.998059,-0.047790527,0.8050049,76.0
596,-1.806501,-1.4424362,1.9916649,-3.07771,0.020178223,0.721106,76.0
597,-1.8964338,-1.7360153,1.7527466,-3.07771,0.020178223,0.721106,76.0
598,-1.8964338,-1.7360153,1.7527466,-3.0978882,0.1083252,0.4715332,76.0
599,-2.3181357,-2.0857239,1.3354721,-3.0978882,0.1083252,0.4715332,76.0
600,-2.3181357,-2.0857239,1.3354721,-2.8759277,0.107263185,0.14868164,76.0
601,-2.5348797,-2.3879623,0.78461075,-2.8759277,0.107263185,0.14868164,76.0
602,-2.5348797,-2.3879623,0.78461075,-2.1261475,0.007434082,-0.3525879,76.0
603,-2.4424424,-2.8714905,0.42182922,-2.1261475,0.007434082,-0.3525879,76.0
604,-2.4424424,-2.8714905,0.42182922,-1.7916138,-0.009558106,-0.51932377,76.0
605,-1.8324087,-2.7701263,0.31991196,-1.7916138,-0.009558106,-0.51932377,76.0
606,-1.8324087,-2.7701263,0.31991196,-0.9855469,0.058410645,-0.9122681,76.0
607,-0.3913176,-2.5803986,0.24495697,-0.9855469,0.058410645,-0.9122681,76.0
608,-0.3913176,-2.5803986,0.24495697,-0.8219971,0.058410645,-1.0195312,76.0
609,0.19755387,-2.145401,0.13504028,-0.8219971,0.058410645,-1.0195312,76.0
610,0.19755387,-2.145401,0.13504028,-0.71579593,0.16248779,-1.1565307,76.0
611,1.075011,-1.6103745,0.021701813,-0.71579593,0.16248779,-1.1565307,76.0
612,1.075011,-1.6103745,0.021701813,-0.8995239,0.26444092,-1.2011353,76.0
613,1.3612539,-1.1994553,0.054164886,-0.8995239,0.26444092,-1.2011353,76.0
614,1.3612539,-1.1994553,0.054164886,-1.2213135,0.22514649,-1.1023682,76.0
615,0.9903337,-0.9706497,0.22507095,-1.2213135,0.22514649,-1.1023682,76.0
616,0.9903337,-0.9706497,0.22507095,-1.4878784,0.0010620117,-0.91120607,76.0
617,0.3840394,-0.9221344,0.45532608,-1.4878784,0.0010620117,-0.91120607,76.0
618,0.3840394,-0.9221344,0.45532608,-1.6397461,-0.3069214,-0.70092773,76.0
619,0.20708513,-0.92972565,0.6466217,-1.6397461,-0.3069214,-0.70092773,76.0
620,0.20708513,-0.92972565,0.6466217,-1.5781494,-0.81031495,-0.5033936,76.0
621,1.1153996,-0.96715546,0.7706146,-1.5781494,-0.81031495,-0.5033936,76.0
622,1.1153996,-0.96715546,0.7706146,-1.0343994,-0.99935305,-0.2888672,76.0
623,3.2814188,-1.341011,0.8286247,-1.0343994,-0.99935305,-0.2888672,76.0
624,3.2814188,-1.341011,0.8286247,-0.24213867,-0.48215333,-0.24107666,76.0
625,5.598768,-2.036766,0.53899765,-0.24213867,-0.48215333,-0.24107666,76.0
626,5.598768,-2.036766,0.53899765,0.39188233,0.26975098,-0.09239502,76.0
627,5.756798,-2.409996,-0.115737915,0.39188233,0.26975098,-0.09239502,76.0
628,5.756798,-2.409996,-0.115737915,0.9866089,0.38975832,0.23682861,76.0
629,3.044928,-1.9085999,-0.47238922,0.9866089,0.38975832,0.23682861,76.0
630,3.044928,-1.9085999,-0.47238922,1.8861328,0.121069334,0.64570314,76.0
631,0.028007746,-0.6800995,-0.3309517,1.8861328,0.121069334,0.64570314,76.0
632,0.028007746,-0.6800995,-0.3309517,2.6539674,0.2357666,1.1607789,76.0
633,-0.9362974,1.178482,-0.031341553,2.6539674,0.2357666,1.1607789,76.0
634,-0.9362974,1.178482,-0.031341553,2.8621216,0.6085327,1.6790406,76.0
635,-0.22248769,3.14431,0.290905,2.8621216,0.6085327,1.6790406,76.0
636,-0.22248769,3.14431,0.290905,2.453247,1.1533448,2.001892,76.0
637,0.26733446,4.2432785,0.59472275,2.453247,1.1533448,2.001892,76.0
638,0.26733446,4.2432785,0.59472275,1.5091187,1.7268311,2.2036743,76.0
639,-0.71652794,4.0682907,0.729332,1.5091187,1.7268311,2.2036743,76.0
640,-0.71652794,4.0682907,0.729332,0.6595093,2.0581787,2.2344728,76.0
641,-3.082878,2.9796906,0.6410217,0.6595093,2.0581787,2.2344728,76.0
642,-3.082878,2.9796906,0.6410217,0.14868164,1.9222412,2.1112792,76.0
643,-5.5067077,1.7303543,0.37525558,0.14868164,1.9222412,2.1112792,76.0
644,-5.5067077,1.7303543,0.37525558,-0.115759276,1.4634522,1.988086,76.0
645,-6.507002,1.0139236,0.025302887,-0.115759276,1.4634522,1.988086,76.0
646,-6.507002,1.0139236,0.025302887,-0.16885987,1.1214844,2.0220704,76.0
647,-5.623131,0.82022095,-0.42925644,-0.16885987,1.1214844,2.0220704,76.0
648,-5.623131,0.82022095,-0.42925644,0.13062744,1.1214844,2.0560548,76.0
649,-3.6938052,0.56327057,-1.0269012,0.13062744,1.1214844,2.0560548,76.0
650,-3.6938052,0.56327057,-1.0269012,0.5649902,1.3009644,1.8861328,76.0
651,-1.9780178,0.17658997,-1.5670433,0.5649902,1.3009644,1.8861328,76.0
652,-1.9780178,0.17658997,-1.5670433,0.77102053,1.3168945,1.6110718,76.0
653,-1.0720263,0.09159088,-1.7407455,0.77102053,1.3168945,1.6110718,76.0
654,-1.0720263,0.09159088,-1.7407455,0.77526855,1.1852051,1.3880494,76.0
655,-1.0720263,0.09159088,-1.7407455,0.77526855,1.1852051,1.3880494,76.0
656,-0.6841955,0.30067444,-1.5262375,0.77526855,1.1852051,1.3880494,76.0
657,-0.6841955,0.30067444,-1.5262375,0.7349121,1.1182984,1.1321045,76.0
658,-0.2874565,0.44432068,-1.2112732,0.7349121,1.1182984,1.1321045,76.0
659,-0.2874565,0.44432068,-1.2112732,0.63720703,1.083252,0.8527954,76.0
660,0.2856598,0.43847656,-1.0103989,0.63720703,1.083252,0.8527954,76.0
661,0.2856598,0.43847656,-1.0103989,0.3440918,1.0046631,0.59047854,76.0
662,0.88605976,0.4517975,-0.91989136,0.3440918,1.0046631,0.59047854,76.0
663,0.88605976,0.4517975,-0.91989136,-0.03079834,0.8793457,0.41418457,76.0
664,1.4520853,0.5141144,-0.8852768,-0.03079834,0.8793457,0.41418457,76.0
665,1.4520853,0.5141144,-0.8852768,-0.47684327,0.7954468,0.3069214,76.0
666,1.9893172,0.48244476,-1.0123253,-0.47684327,0.7954468,0.3069214,76.0
667,1.9893172,0.48244476,-1.0123253,-1.0397094,0.72323,0.20603028,76.0
668,2.3676867,0.32538605,-1.3508148,-1.0397094,0.72323,0.20603028,76.0
669,2.3676867,0.32538605,-1.3508148,-1.6004517,0.6223389,0.1444336,76.0
670,2.4596646,0.09441376,-1.6838646,-1.6004517,0.6223389,0.1444336,76.0
671,2.4596646,0.09441376,-1.6838646,-2.0135744,0.57561034,0.118945315,76.0
672,2.1896799,-0.20024872,-1.7916107,-2.0135744,0.57561034,0.118945315,76.0
673,2.1896799,-0.20024872,-1.7916107,-2.3088136,0.41843262,0.08071289,76.0
674,1.6290388,-0.45768738,-1.5828857,-2.3088136,0.41843262,0.08071289,76.0
675,1.6290388,-0.45768738,-1.5828857,-2.4670532,0.3419678,0.04991455,76.0
676,0.8276817,-0.49360657,-1.1874046,-2.4670532,0.3419678,0.04991455,76.0
677,0.8276817,-0.49360657,-1.1874046,-2.524402,0.25913087,0.052038576,76.0
678,-0.3438605,-0.3431778,-0.77687836,-2.524402,0.25913087,0.052038576,76.0
679,-0.3438605,-0.3431778,-0.77687836,-2.4882934,0.09770508,0.038232423,76.0
680,-1.8073516,-0.28147888,-0.39686966,-2.4882934,0.09770508,0.038232423,76.0
681,-1.8073516,-0.28147888,-0.39686966,-2.3682861,-0.29736328,-0.057348635,76.0
682,-2.7985058,-0.4195099,-0.038589478,-2.3682861,-0.29736328,-0.057348635,76.0
683,-2.7985058,-0.4195099,-0.038589478,-2.1229615,-0.55543214,-0.17523193,76.0
684,-2.5873399,-0.6358185,0.21331787,-2.1229615,-0.55543214,-0.17523193,76.0
685,-2.5873399,-0.6358185,0.21331787,-1.7087768,-0.6711914,-0.43117675,76.0
686,-1.5155873,-0.89775085,0.37552643,-1.7087768,-0.6711914,-0.43117675,76.0
687,-1.5155873,-0.89775085,0.37552643,-1.3954834,-0.7434082,-0.7784546,76.0
688,-0.5065861,-1.1722412,0.49829865,-1.3954834,-0.7434082,-0.7784546,76.0
689,-0.5065861,-1.1722412,0.49829865,-1.2542359,-0.72641605,-1.1395386,76.0
690,-0.1467483,-1.439354,0.5367012,-1.2542359,-0.72641605,-1.1395386,76.0
691,-0.1467483,-1.439354,0.5367012,-1.1618408,-0.6966797,-1.5303589,76.0
692,-0.49386358,-1.6877747,0.6165924,-1.1618408,-0.6966797,-1.5303589,76.0
693,-0.49386358,-1.6877747,0.6165924,-1.0588257,-0.72004396,-1.8755127,76.0
694,-1.1754375,-1.7777557,0.85691833,-1.0588257,-0.72004396,-1.8755127,76.0
695,-1.1754375,-1.7777557,0.85691833,-1.0184692,-0.79226077,-2.1229615,76.0
696,-1.6235652,-1.6582413,1.1252289,-1.0184692,-0.79226077,-2.1229615,76.0
697,-1.6235652,-1.6582413,1.1252289,-1.0259033,-0.8400513,-2.3396118,76.0
698,-1.5056272,-1.4455719,1.1823349,-1.0259033,-0.8400513,-2.3396118,76.0
699,-1.5056272,-1.4455719,1.1823349,-1.1682129,-0.87615967,-2.5732543,76.0
700,-0.88770485,-1.3216782,0.9419365,-1.1682129,-0.87615967,-2.5732543,76.0
701,-0.88770485,-1.3216782,0.9419365,-1.4188477,-0.9611206,-2.8504395,76.0
702,0.029838562,-1.4014816,0.5190544,-1.4188477,-0.9611206,-2.8504395,76.0
703,0.029838562,-1.4014816,0.5190544,-1.5781494,-1.0949341,-3.1860352,76.0
704,1.1955996,-1.7054596,0.1424408,-1.5781494,-1.0949341,-3.1860352,76.0
705,1.1955996,-1.7054596,0.1424408,-1.5101807,-1.2106934,-3.5757935,76.0
706,2.695823,-2.2124481,0.096508026,-1.5101807,-1.2106934,-3.5757935,76.0
707,2.695823,-2.2124481,0.096508026,-1.0375855,-1.351941,-3.979358,76.0
708,4.493475,-2.865158,0.59749603,-1.0375855,-1.351941,-3.979358,76.0
709,4.493475,-2.865158,0.59749603,0.13912354,-1.4379638,-4.2937136,76.0
710,6.2450733,-3.5595245,1.6617126,0.13912354,-1.4379638,-4.2937136,76.0
711,6.2450733,-3.5595245,1.6617126,1.5346069,-1.1586548,-4.246985,76.0
712,6.9613905,-3.9401093,2.770584,1.5346069,-1.1586548,-4.246985,76.0
713,6.9613905,-3.9401093,2.770584,2.3927124,-0.84323734,-3.8731568,76.0
714,5.678707,-3.3135223,3.1272354,2.3927124,-0.84323734,-3.8731568,76.0
715,5.678707,-3.3135223,3.1272354,2.262085,-0.362146,-3.258252,76.0
716,2.924326,-1.4040527,2.2813873,2.262085,-0.362146,-3.258252,76.0
717,2.924326,-1.4040527,2.2813873,1.350879,-0.14337158,-2.259961,76.0
718,0.21737814,0.76361084,0.6427002,1.350879,-0.14337158,-2.259961,76.0
719,0.21737814,0.76361084,0.6427002,0.90695804,-0.36108398,-1.453894,76.0
720,-1.2550161,1.7183456,-0.38151932,0.90695804,-0.36108398,-1.453894,76.0
721,-1.2550161,1.7183456,-0.38151932,0.5671143,-0.18903808,-0.88040775,76.0
722,-0.8285856,1.7565842,-0.50336075,0.5671143,-0.18903808,-0.88040775,76.0
723,-0.8285856,1.7565842,-0.50336075,-0.124255374,0.060534667,-0.05522461,76.0
724,0.95893335,1.5725479,-0.68110657,-0.124255374,0.060534667,-0.05522461,76.0
725,0.95893335,1.5725479,-0.68110657,-0.7306641,0.60216063,0.55543214,76.0
726,2.7816486,0.98529816,-1.1447525,-0.7306641,0.60216063,0.55543214,76.0
727,2.7816486,0.98529816,-1.1447525,-1.1597168,1.4284058,1.1140503,76.0
728,3.57975,0.21965027,-1.613411,-1.1597168,1.4284058,1.1140503,76.0
729,3.57975,0.21965027,-1.613411,-1.450708,2.0687988,1.5781494,76.0
730,2.6979551,-0.38230133,-1.7156563,-1.450708,2.0687988,1.5781494,76.0
731,2.6979551,-0.38230133,-1.7156563,-1.5823975,2.2015502,2.0571167,76.0
732,0.61089087,-0.7376175,-1.3393097,-1.5823975,2.2015502,2.0571167,76.0
733,0.61089087,-0.7376175,-1.3393097,-1.5176147,2.3077514,2.5020998,76.0
734,-1.372921,-0.89079285,-0.83623123,-1.5176147,2.3077514,2.5020998,76.0
735,-1.372921,-0.89079285,-0.83623123,-1.1650269,2.2079225,2.7984009,76.0
736,-2.5671601,-0.97447205,-0.5208168,-1.1650269,2.2079225,2.7984009,76.0
737,-2.5671601,-0.97447205,-0.5208168,-0.5533081,1.8882569,2.998059,76.0
738,-2.9698536,-0.99263,-0.41664124,-0.5533081,1.8882569,2.998059,76.0
739,-2.9698536,-0.99263,-0.41664124,0.37489015,1.6960328,3.0893922,76.0
740,-2.8285074,-0.8670807,-0.45571136,0.37489015,1.6960328,3.0893922,76.0
741,-2.8285074,-0.8670807,-0.45571136,1.4846925,1.4953126,3.0925782,76.0
742,-2.6903086,-0.4015274,-0.4858818,1.4846925,1.4953126,3.0925782,76.0
743,-2.6903086,-0.4015274,-0.4858818,2.3980224,1.2043213,3.0968263,76.0
744,-2.8499396,0.5371399,-0.3706894,2.3980224,1.2043213,3.0968263,76.0
745,-2.8499396,0.5371399,-0.3706894,2.9470825,0.994043,3.1711671,76.0
746,-3.0022416,1.7866058,-0.22052765,2.9470825,0.994043,3.1711671,76.0
747,-3.0022416,1.7866058,-0.22052765,3.0692139,0.9696167,3.243384,76.0
748,-2.9500844,2.8542862,-0.23856735,3.0692139,0.9696167,3.243384,76.0
749,-2.9500844,2.8542862,-0.23856735,2.8653076,1.0174073,3.2210815,76.0
750,-2.9330657,3.3048172,-0.44518661,2.8653076,1.0174073,3.2210815,76.0
751,-2.9330657,3.3048172,-0.44518661,2.4776733,1.0152832,3.1339967,76.0
752,-2.9938402,3.1956635,-0.7231293,2.4776733,1.0152832,3.1339967,76.0
753,-2.9938402,3.1956635,-0.7231293,2.0390625,0.89846194,2.9821289,76.0
754,-2.8019326,2.9574127,-0.98996353,2.0390625,0.89846194,2.9821289,76.0
755,-2.8019326,2.9574127,-0.98996353,1.6131958,0.9122681,2.8100832,76.0
756,-2.192718,2.857483,-1.1572647,1.6131958,0.9122681,2.8100832,76.0
757,-2.192718,2.857483,-1.1572647,1.3338867,0.95793456,2.6157348,76.0
758,-1.4798214,2.8458405,-1.1039734,1.3338867,0.95793456,2.6157348,76.0
759,-1.4798214,2.8458405,-1.1039734,1.2138795,0.89208984,2.3693483,76.0
760,-0.9977243,2.6812744,-0.82461166,1.2138795,0.89208984,2.3693483,76.0
761,-0.9977243,2.6812744,-0.82461166,1.1586548,0.81881106,2.0210083,76.0
762,-0.70660233,2.3093872,-0.47984314,1.1586548,0.81881106,2.0210083,76.0
763,-0.70660233,2.3093872,-0.47984314,0.9897949,0.70198977,1.6503662,76.0
764,-0.3980577,1.9941254,-0.24085617,0.9897949,0.70198977,1.6503662,76.0
765,-0.3980577,1.9941254,-0.24085617,0.78164065,0.58198243,1.2510499,76.0
766,-0.015272379,2.0164413,-0.16222763,0.78164065,0.58198243,1.2510499,76.0
767,-0.015272379,2.0164413,-0.16222763,0.49171144,0.4800293,0.9218262,76.0
768,0.34259176,2.2583313,-0.20203781,0.49171144,0.4800293,0.9218262,76.0
769,0.34259176,2.2583313,-0.20203781,-0.057348635,0.35683593,0.66588134,76.0
770,0.68525505,2.394188,-0.39994812,-0.057348635,0.35683593,0.66588134,76.0
771,0.68525505,2.394188,-0.39994812,-0.84323734,0.3791382,0.38232422,76.0
772,1.0098739,2.3262634,-0.83882904,-0.84323734,0.3791382,0.38232422,76.0
773,1.0098739,2.3262634,-0.83882904,-0.84323734,0.3791382,0.38232422,77.0
774,1.0098739,2.3262634,-0.83882904,-1.7809937,0.32816163,0.10407715,77.0
775,1.2093396,2.1798477,-1.3038902,-1.7809937,0.32816163,0.10407715,77.0
776,1.2093396,2.1798477,-1.3038902,-2.717688,0.2538208,-0.09770508,77.0
777,1.333231,1.7449646,-1.518589,-2.717688,0.2538208,-0.09770508,77.0
778,1.333231,1.7449646,-1.518589,-3.3432128,0.24532472,-0.45878908,77.0
779,1.2293534,0.5702362,-1.2938118,-3.3432128,0.24532472,-0.45878908,77.0
780,1.2293534,0.5702362,-1.2938118,-3.5131347,0.07965088,-0.9228882,77.0
781,0.70041394,-1.0757675,-0.50426483,-3.5131347,0.07965088,-0.9228882,77.0
782,0.70041394,-1.0757675,-0.50426483,-3.3102906,-0.020178223,-1.2967163,77.0
783,-0.09231782,-2.2284088,0.47329712,-3.3102906,-0.020178223,-1.2967163,77.0
784,-0.09231782,-2.2284088,0.47329712,-2.9269044,-0.16567384,-1.5590333,77.0
785,-0.78293633,-2.29982,1.0390015,-2.9269044,-0.16567384,-1.5590333,77.0
786,-0.78293633,-2.29982,1.0390015,-2.5148437,-0.29311523,-1.6970948,77.0
787,-1.1055851,-1.6706314,0.95719147,-2.5148437,-0.29311523,-1.6970948,77.0
788,-1.1055851,-1.6706314,0.95719147,-2.2015502,-0.42905274,-1.8542725,77.0
789,-1.1086502,-1.2310333,0.5452461,-2.2015502,-0.42905274,-1.8542725,77.0
790,-1.1086502,-1.2310333,0.5452461,-2.088977,-0.53525394,-2.1357057,77.0
791,-0.8982115,-1.4827118,0.22396469,-2.088977,-0.53525394,-2.1357057,77.0
792,-0.8982115,-1.4827118,0.22396469,-2.092163,-0.5628662,-2.5254638,77.0
793,-0.583828,-2.1893387,0.101070404,-2.092163,-0.5628662,-2.5254638,77.0
794,-0.583828,-2.1893387,0.101070404,-2.16969,-0.5979126,-2.9587648,77.0
795,-0.34151316,-2.7987366,0.124996185,-2.16969,-0.5979126,-2.9587648,77.0
796,-0.34151316,-2.7987366,0.124996185,-2.2896974,-0.6924316,-3.3687012,77.0
797,-0.09081316,-3.0743866,0.18051147,-2.2896974,-0.6924316,-3.3687012,77.0
798,-0.09081316,-3.0743866,0.18051147,-2.3119996,-0.79119873,-3.7510254,77.0
799,0.44524503,-3.2171478,0.1696167,-2.3119996,-0.79119873,-3.7510254,77.0
800,0.44524503,-3.2171478,0.1696167,-2.1282716,-0.814563,-4.1375976,77.0
801,1.3263865,-3.4319458,0.1014061,-2.1282716,-0.814563,-4.1375976,77.0
802,1.3263865,-3.4319458,0.1014061,-1.7820557,-0.8708496,-4.532666,77.0
803,2.2719734,-3.6902695,0.06721115,-1.7820557,-0.8708496,-4.532666,77.0
804,2.2719734,-3.6902695,0.06721115,-1.4379638,-0.97386473,-4.8438354,77.0
805,3.1336188,-3.7968597,0.1049881,-1.4379638,-0.97386473,-4.8438354,77.0
806,3.1336188,-3.7968597,0.1049881,-1.0736939,-1.0991821,-5.060486,77.0
807,3.9996076,-3.697754,0.17658234,-1.0736939,-1.0991821,-5.060486,77.0
808,3.9996076,-3.697754,0.17658234,-0.631897,-1.2032593,-5.1146483,77.0
809,4.88256,-3.576622,0.43743134,-0.631897,-1.2032593,-5.1146483,77.0
810,4.88256,-3.576622,0.43743134,0.009558106,-1.357251,-4.878882,77.0
811,5.657476,-3.7553253,1.0162811,0.009558106,-1.357251,-4.878882,77.0
812,5.657476,-3.7553253,1.0162811,0.09770508,-0.8857178,-4.068567,77.0
813,5.6610394,-4.2297363,1.1469345,0.09770508,-0.8857178,-4.068567,77.0
814,5.6610394,-4.2297363,1.1469345,-0.21877442,-0.45454103,-3.263562,77.0
815,3.9161606,-3.9593658,1.022232,-0.21877442,-0.45454103,-3.263562,77.0
816,3.9161606,-3.9593658,1.022232,0.32922363,-0.7126099,-2.543518,77.0
817,1.3646913,-1.681839,1.811657,0.32922363,-0.7126099,-2.543518,77.0
818,1.3646913,-1.681839,1.811657,0.88359374,-1.0620117,-1.2903442,77.0
819,0.2347951,1.2949219,2.6015358,0.88359374,-1.0620117,-1.2903442,77.0
820,0.2347951,1.2949219,2.6015358,0.6510132,-0.7168579,-0.58623046,77.0
821,1.0445132,2.4713058,2.3163872,0.6510132,-0.7168579,-0.58623046,77.0
822,1.0445132,2.4713058,2.3163872,0.18903808,-0.6117188,0.070092775,77.0
823,2.6778226,1.1315994,1.3755455,0.18903808,-0.6117188,0.070092775,77.0
824,2.6778226,1.1315994,1.3755455,0.20496826,0.4991455,0.4354248,77.0
825,3.811325,-1.6927948,0.13129425,0.20496826,0.4991455,0.4354248,77.0
826,3.811325,-1.6927948,0.13129425,0.84323734,1.8309082,0.55755615,77.0
827,2.6584597,-3.5160065,-0.8825531,0.84323734,1.8309082,0.55755615,77.0
828,2.6584597,-3.5160065,-0.8825531,1.2383057,2.1282716,0.8379273,77.0
829,-0.7503319,-2.4705734,-1.1455574,1.2383057,2.1282716,0.8379273,77.0
830,-0.7503319,-2.4705734,-1.1455574,1.3530029,2.2142944,1.2191895,77.0
831,-3.7085786,0.34350586,-1.0761871,1.3530029,2.2142944,1.2191895,77.0
832,-3.7085786,0.34350586,-1.0761871,1.3243287,2.2461548,1.6131958,77.0
833,-4.4311085,2.5724258,-1.1608047,1.3243287,2.2461548,1.6131958,77.0
834,-4.4311085,2.5724258,-1.1608047,1.2340577,2.3321779,1.8755127,77.0
835,-3.3855977,3.171997,-1.4210396,1.2340577,2.3321779,1.8755127,77.0
836,-3.3855977,3.171997,-1.4210396,0.998291,2.5583863,2.1813722,77.0
837,-1.9353094,2.6381836,-1.595829,0.998291,2.5583863,2.1813722,77.0
838,-1.9353094,2.6381836,-1.595829,0.6149048,2.88761,2.5583863,77.0
839,-1.0520439,1.9021759,-1.4084358,0.6149048,2.88761,2.5583863,77.0
840,-1.0520439,1.9021759,-1.4084358,0.18160401,3.1286867,2.9683228,77.0
841,-1.065207,1.451271,-0.77025604,0.18160401,3.1286867,2.9683228,77.0
842,-1.065207,1.451271,-0.77025604,-0.21346436,3.079834,3.454724,77.0
843,-1.932378,1.3132858,0.020698547,-0.21346436,3.079834,3.454724,77.0
844,-1.932378,1.3132858,0.020698547,-0.40356445,2.6454713,3.8402345,77.0
845,-3.1584878,1.283905,0.48625946,-0.40356445,2.6454713,3.8402345,77.0
846,-3.1584878,1.283905,0.48625946,-0.37382814,2.0741088,4.0335207,77.0
847,-3.9469075,1.2091293,0.4141426,-0.37382814,2.0741088,4.0335207,77.0
848,-3.9469075,1.2091293,0.4141426,-0.07327881,1.5091187,4.061133,77.0
849,-3.8103704,1.0898895,-0.016159058,-0.07327881,1.5091187,4.061133,77.0
850,-3.8103704,1.0898895,-0.016159058,0.36851808,1.0375855,3.9942262,77.0
851,-2.9926567,1.022316,-0.57016754,0.36851808,1.0375855,3.9942262,77.0
852,-2.9926567,1.022316,-0.57016754,0.7678345,0.62552494,3.8540406,77.0
853,-1.9683075,1.140007,-1.1093559,0.7678345,0.62552494,3.8540406,77.0
854,-1.9683075,1.140007,-1.1093559,1.1448487,0.3802002,3.6713746,77.0
855,-0.9408814,1.4568634,-1.5168571,1.1448487,0.3802002,3.6713746,77.0
856,-0.9408814,1.4568634,-1.5168571,1.5069946,0.3175415,3.5407472,77.0
857,-0.062714815,1.818428,-1.7399864,1.5069946,0.3175415,3.5407472,77.0
858,-0.062714815,1.818428,-1.7399864,1.7618774,0.29523927,3.440918,77.0
859,0.66713774,2.0707855,-1.8238373,1.7618774,0.29523927,3.440918,77.0
860,0.66713774,2.0707855,-1.8238373,1.9413575,0.45454103,3.2784302,77.0
861,1.3439398,2.3755722,-1.8378906,1.9413575,0.45454103,3.2784302,77.0
862,1.3439398,2.3755722,-1.8378906,2.0656128,0.91120607,2.991687,77.0
863,1.3481133,3.5177994,-1.8947906,2.0656128,0.91120607,2.991687,77.0
864,1.3481133,3.5177994,-1.8947906,2.0656128,0.91120607,2.991687,77.0
865,1.3481133,3.5177994,-1.8947906,1.6652344,1.1862671,3.081958,77.0
866,0.09610534,5.582718,-1.8887596,1.6652344,1.1862671,3.081958,77.0
867,0.09610534,5.582718,-1.8887596,0.59260255,1.084314,3.165857,77.0
868,-1.5146441,6.844139,-1.5548172,0.59260255,1.084314,3.165857,77.0
869,-1.5146441,6.844139,-1.5548172,-0.3090454,1.0460815,2.6730835,77.0
870,-2.1946254,6.1789703,-0.9390297,-0.3090454,1.0460815,2.6730835,77.0
871,-2.1946254,6.1789703,-0.9390297,-0.9876709,0.8793457,1.9806519,77.0
872,-1.8672237,4.550331,-0.15492249,-0.9876709,0.8793457,1.9806519,77.0
873,-1.8672237,4.550331,-0.15492249,-1.7385132,0.67650145,1.1852051,77.0
874,-1.3094773,2.978592,0.41578293,-1.7385132,0.67650145,1.1852051,77.0
875,-1.3094773,2.978592,0.41578293,-2.4489992,0.48533937,0.23364258,77.0
876,-1.4561512,1.4520645,0.68400574,-2.4489992,0.48533937,0.23364258,77.0
877,-1.4561512,1.4520645,0.68400574,-2.552014,-0.25594482,-0.88040775,77.0
878,-2.2553387,-0.120918274,1.2823486,-2.552014,-0.25594482,-0.88040775,77.0
879,-2.2553387,-0.120918274,1.2823486,-2.1909301,-0.9897949,-1.7661256,77.0
880,-2.2574081,-1.275322,1.973156,-2.1909301,-0.9897949,-1.7661256,77.0
881,-2.2574081,-1.275322,1.973156,-1.8871949,-1.268042,-2.4797974,77.0
882,-0.81168795,-1.8228836,2.185791,-1.8871949,-1.268042,-2.4797974,77.0
883,-0.81168795,-1.8228836,2.185791,-1.4284058,-1.5346069,-3.0458496,77.0
884,0.9114163,-2.075508,2.0838127,-1.4284058,-1.5346069,-3.0458496,77.0
885,0.9114163,-2.075508,2.0838127,-0.9759888,-1.807544,-3.6819947,77.0
886,1.7799997,-2.3385773,1.9351768,-0.9759888,-1.807544,-3.6819947,77.0
887,1.7799997,-2.3385773,1.9351768,-0.6690674,-1.8925049,-4.077063,77.0
888,1.7702279,-2.4582367,1.70018,-0.6690674,-1.8925049,-4.077063,77.0
889,1.7702279,-2.4582367,1.70018,-0.5703003,-1.7555054,-4.169458,77.0
890,1.1699176,-2.3376007,1.3517075,-0.5703003,-1.7555054,-4.169458,77.0
891,1.1699176,-2.3376007,1.3517075,-0.8506714,-1.5484132,-4.2151246,77.0
892,0.21939349,-2.069748,0.9167671,-0.8506714,-1.5484132,-4.2151246,77.0
893,0.21939349,-2.069748,0.9167671,-1.5717773,-1.5685914,-4.228931,77.0
894,-0.53340864,-1.7197266,0.43431854,-1.5717773,-1.5685914,-4.228931,77.0
895,-0.53340864,-1.7197266,0.43431854,-2.4882934,-1.5622193,-4.2321167,77.0
896,-0.39196134,-1.5648575,-0.275959,-2.4882934,-1.5622193,-4.2321167,77.0
897,-0.39196134,-1.5648575,-0.275959,-3.3166625,-1.3073364,-4.280969,77.0
898,0.7367482,-1.950058,-1.2899475,-3.3166625,-1.3073364,-4.280969,77.0
899,0.7367482,-1.950058,-1.2899475,-4.1375976,-0.9388184,-4.444519,77.0
900,2.2961736,-2.8824081,-2.2406616,-4.1375976,-0.9388184,-4.444519,77.0
901,2.2961736,-2.8824081,-2.2406616,-4.8087893,-0.7391602,-4.686658,77.0
902,3.9037113,-4.0188904,-2.6994286,-4.8087893,-0.7391602,-4.686658,77.0
903,3.9037113,-4.0188904,-2.6994286,-4.974463,-0.39400634,-4.87782,77.0
904,5.7934036,-5.2355194,-2.4909897,-4.974463,-0.39400634,-4.87782,77.0
905,5.7934036,-5.2355194,-2.4909897,-4.1067996,-0.06584473,-5.3079348,77.0
906,7.8912296,-6.850975,-1.37426,-4.1067996,-0.06584473,-5.3079348,77.0
907,7.8912296,-6.850975,-1.37426,-1.7501954,-0.27293703,-5.793274,77.0
908,9.097322,-9.16201,0.56168747,-1.7501954,-0.27293703,-5.793274,77.0
909,9.097322,-9.16201,0.56168747,-0.09770508,0.31860352,-4.9298587,77.0
910,7.8254895,-11.136276,1.2987518,-0.09770508,0.31860352,-4.9298587,77.0
911,7.8254895,-11.136276,1.2987518,0.20921631,0.54587406,-4.2671633,77.0
912,3.540226,-9.653641,0.84532547,0.20921631,0.54587406,-4.2671633,77.0
913,3.540226,-9.653641,0.84532547,1.4570801,0.11682129,-3.715979,77.0
914,-1.223227,-3.1557465,1.7045822,1.4570801,0.11682129,-3.715979,77.0
915,-1.223227,-3.1557465,1.7045822,2.1845582,-0.20284425,-1.084314,77.0
916,-3.6302662,3.4534225,3.4073677,2.1845582,-0.20284425,-1.084314,77.0
917,-3.6302662,3.4534225,3.4073677,2.0337524,-0.21877442,-0.40462646,77.0
918,-3.8101702,5.194748,4.019924,2.0337524,-0.21877442,-0.40462646,77.0
919,-3.8101702,5.194748,4.019924,1.2106934,-0.6180908,0.7455322,77.0
920,-3.2303872,3.227066,3.1296616,1.2106934,-0.6180908,0.7455322,77.0
921,-3.2303872,3.227066,3.1296616,-0.64782715,-0.73809814,1.9094971,77.0
922,-1.6364951,0.024017334,1.2281418,-0.64782715,-0.73809814,1.9094971,77.0
923,-1.6364951,0.024017334,1.2281418,-1.1151123,0.22089843,1.9477295,77.0
924,1.2347126,-2.6556778,-1.2467079,-1.1151123,0.22089843,1.9477295,77.0
925,1.2347126,-2.6556778,-1.2467079,-0.4715332,1.5069946,2.3056276,77.0
926,3.065639,-3.1654053,-3.3903465,-0.4715332,1.5069946,2.3056276,77.0
927,3.065639,-3.1654053,-3.3903465,0.29736328,1.8733886,2.5732543,77.0
928,1.8040862,-1.5084457,-4.122822,0.29736328,1.8733886,2.5732543,77.0
929,1.8040862,-1.5084457,-4.122822,1.0174073,1.5186768,2.788843,77.0
930,-0.65988016,0.52949524,-3.4992104,1.0174073,1.5186768,2.788843,77.0
931,-0.65988016,0.52949524,-3.4992104,1.8553345,1.6493043,2.8260133,77.0
932,-1.3267932,1.6091309,-2.4604034,1.8553345,1.6493043,2.8260133,77.0
933,-1.3267932,1.6091309,-2.4604034,2.6507814,2.2387207,3.1244385,77.0
934,-0.18893671,1.9427261,-1.4632187,2.6507814,2.2387207,3.1244385,77.0
935,-0.18893671,1.9427261,-1.4632187,3.1828492,2.6879518,3.3007324,77.0
936,1.2312117,2.0675888,-0.38919067,3.1828492,2.6879518,3.3007324,77.0
937,1.2312117,2.0675888,-0.38919067,3.4472902,2.9481447,3.5322511,77.0
938,1.7304163,2.342369,0.8381958,3.4472902,2.9481447,3.5322511,77.0
939,1.7304163,2.342369,0.8381958,3.3803833,2.538208,3.7765138,77.0
940,0.4391427,2.9375916,2.0106926,3.3803833,2.538208,3.7765138,77.0
941,0.4391427,2.9375916,2.0106926,2.983191,1.9742798,4.062195,77.0
942,-2.0007,3.6575928,2.6268654,2.983191,1.9742798,4.062195,77.0
943,-2.0007,3.6575928,2.6268654,2.5169678,1.4857544,4.3000855,77.0
944,-3.7202864,4.078087,2.362465,2.5169678,1.4857544,4.3000855,77.0
945,-3.7202864,4.078087,2.362465,2.2355347,1.1129884,4.4774413,77.0
946,-4.0012293,4.0884705,1.4264221,2.2355347,1.1129884,4.4774413,77.0
947,-4.0012293,4.0884705,1.4264221,1.9817139,0.813501,4.52948,77.0
948,-3.38664,3.830017,0.3058014,1.9817139,0.813501,4.52948,77.0
949,-3.38664,3.830017,0.3058014,1.7045288,0.59897465,4.5316043,77.0
950,-2.4219828,3.2935715,-0.6910744,1.7045288,0.59897465,4.5316043,77.0
951,-2.4219828,3.2935715,-0.6910744,1.6503662,0.57242435,4.2830935,77.0
952,-1.3460336,2.46727,-1.5028,1.6503662,0.57242435,4.2830935,77.0
953,-1.3460336,2.46727,-1.5028,2.005078,0.7954468,3.8476684,77.0
954,-0.46584046,1.6687851,-2.0747871,2.005078,0.7954468,3.8476684,77.0
955,-0.46584046,1.6687851,-2.0747871,2.5105958,1.1937011,3.4196777,77.0
956,-0.3255899,1.5306091,-2.2714386,2.5105958,1.1937011,3.4196777,77.0
957,-0.3255899,1.5306091,-2.2714386,2.8015869,1.5462891,3.1393068,77.0
958,-1.0863752,2.309105,-2.1084366,2.8015869,1.5462891,3.1393068,77.0
959,-1.0863752,2.309105,-2.1084366,2.8684938,1.8181641,2.9768188,77.0
960,-2.1114707,3.5742874,-1.8319016,2.8684938,1.8181641,2.9768188,77.0
961,-2.1114707,3.5742874,-1.8319016,2.6560915,2.0656128,2.9640749,77.0
962,-2.747746,4.666527,-1.554306,2.6560915,2.0656128,2.9640749,77.0
963,-2.747746,4.666527,-1.554306,2.2270386,2.1176515,2.983191,77.0
964,-2.9353063,5.121231,-1.180687,2.2270386,2.1176515,2.983191,77.0
965,-2.9353063,5.121231,-1.180687,2.2270386,2.1176515,2.983191,77.0
966,-2.9353063,5.121231,-1.180687,1.5770874,1.9647217,2.969385,77.0
967,-2.6539457,4.8462067,-0.7360077,1.5770874,1.9647217,2.969385,77.0
968,-2.6539457,4.8462067,-0.7360077,0.7476563,1.9498535,2.9194703,77.0
969,-1.933264,4.2940598,-0.49713135,0.7476563,1.9498535,2.9194703,77.0
970,-1.933264,4.2940598,-0.49713135,-0.32072756,1.905249,2.7750366,77.0
971,-1.4894946,4.2354507,-0.6994629,-0.32072756,1.905249,2.7750366,77.0
972,-1.4894946,4.2354507,-0.6994629,-1.5675293,1.6503662,2.715564,77.0
973,-1.9068058,4.8869247,-1.130516,-1.5675293,1.6503662,2.715564,77.0
974,-1.9068058,4.8869247,-1.130516,-2.4893556,1.0450195,2.453247,77.0
975,-2.7446828,5.193039,-0.9810829,-2.4893556,1.0450195,2.453247,77.0
976,-2.7446828,5.193039,-0.9810829,-2.4893556,0.050976563,1.5515991,77.0
977,-2.8318791,3.8426628,0.23723984,-2.4893556,0.050976563,1.5515991,77.0
978,-2.8318791,3.8426628,0.23723984,-1.8043579,-0.55968016,0.56605226,77.0
979,-1.5647221,1.2665482,1.6005707,-1.8043579,-0.55968016,0.56605226,77.0
980,-1.5647221,1.2665482,1.6005707,-1.1990112,-1.0938721,-0.67437744,77.0
981,-0.29468536,-1.0553131,2.5305786,-1.1990112,-1.0938721,-0.67437744,77.0
982,-0.29468536,-1.0553131,2.5305786,-0.5235718,-1.9764038,-1.8489624,77.0
983,-0.18496704,-2.0146713,3.3015137,-0.5235718,-1.9764038,-1.8489624,77.0
984,-0.18496704,-2.0146713,3.3015137,-0.0637207,-2.433069,-2.716626,77.0
985,-0.27476788,-1.3476639,3.532421,-0.0637207,-2.433069,-2.716626,77.0
986,-0.27476788,-1.3476639,3.532421,-0.16567384,-2.7622926,-3.2051513,77.0
987,0.09258795,-0.060005188,2.9353485,-0.16567384,-2.7622926,-3.2051513,77.0
988,0.09258795,-0.060005188,2.9353485,-0.6244629,-3.149927,-3.535437,77.0
989,0.6234479,0.5535431,1.8586807,-0.6244629,-3.149927,-3.535437,77.0
990,0.6234479,0.5535431,1.8586807,-1.174585,-3.2380738,-3.9251955,77.0
991,1.2194371,0.12534332,0.7701874,-1.174585,-3.2380738,-3.9251955,77.0
992,1.2194371,0.12534332,0.7701874,-1.7937378,-3.0288575,-4.258667,77.0
993,1.7473271,-0.8351517,0.09694672,-1.7937378,-3.0288575,-4.258667,77.0
994,1.7473271,-0.8351517,0.09694672,-2.3682861,-2.7229981,-4.519922,77.0
995,1.8971415,-1.7700119,-0.0020599365,-2.3682861,-2.7229981,-4.519922,77.0
996,1.8971415,-1.7700119,-0.0020599365,-2.9354005,-2.4872315,-4.800293,77.0
997,1.7308114,-2.4707108,0.23707199,-2.9354005,-2.4872315,-4.800293,77.0
998,1.7308114,-2.4707108,0.23707199,-3.5980957,-2.3098755,-5.0201297,77.0
999,1.8871882,-2.9657059,0.31584167,-3.5980957,-2.3098755,-5.0201297,77.0
1000,1.8871882,-2.9657059,0.31584167,-4.279907,-2.0603027,-5.1252685,77.0
1001,2.8812716,-3.5355072,-0.061264038,-4.279907,-2.0603027,-5.1252685,77.0
1002,2.8812716,-3.5355072,-0.061264038,-4.7673707,-1.627002,-5.317493,77.0
1003,4.58606,-4.564186,-0.6876221,-4.7673707,-1.627002,-5.317493,77.0
1004,4.58606,-4.564186,-0.6876221,-4.8576417,-1.1225464,-5.6435304,77.0
1005,6.468335,-6.049202,-0.99209976,-4.8576417,-1.1225464,-5.6435304,77.0
1006,6.468335,-6.049202,-0.99209976,-4.2947755,-0.7890747,-5.859119,77.0
1007,7.9102397,-7.793991,-0.53484344,-4.2947755,-0.7890747,-5.859119,77.0
1008,7.9102397,-7.793991,-0.53484344,-2.9205322,-0.64570314,-5.6817627,77.0
1009,8.47857,-10.042824,0.19804382,-2.9205322,-0.64570314,-5.6817627,77.0
1010,8.47857,-10.042824,0.19804382,-2.1335816,-0.2081543,-4.696216,77.0
1011,7.2306585,-11.603836,0.7185669,-2.1335816,-0.2081543,-4.696216,77.0
1012,7.2306585,-11.603836,0.7185669,-1.8574585,0.19434814,-4.3776126,77.0
1013,3.8549614,-8.662888,1.0662231,-1.8574585,0.19434814,-4.3776126,77.0
1014,3.8549614,-8.662888,1.0662231,-1.3264526,-0.26975098,-2.703882,77.0
1015,-0.25038147,-2.2441177,1.5348129,-1.3264526,-0.26975098,-2.703882,77.0
1016,-0.25038147,-2.2441177,1.5348129,0.57454836,-0.84748536,-1.7671875,77.0
1017,-3.3155518,1.1436005,2.6062431,0.57454836,-0.84748536,-1.7671875,77.0
1018,-3.3155518,1.1436005,2.6062431,1.6758546,-1.2468017,-1.44115,77.0
1019,-4.1197753,0.96663666,3.5340195,1.6758546,-1.2468017,-1.44115,77.0
1020,-4.1197753,0.96663666,3.5340195,0.8251831,-0.9674927,-0.362146,77.0
1021,-3.1788402,0.26249695,3.2642899,0.8251831,-0.9674927,-0.362146,77.0
1022,-3.1788402,0.26249695,3.2642899,-0.32178956,-0.68287355,0.52038574,77.0
1023,-2.0686827,-1.8552094,2.2022629,-0.32178956,-0.68287355,0.52038574,77.0
1024,-2.0686827,-1.8552094,2.2022629,-0.081774905,-0.4343628,-0.060534667,77.0
1025,-0.9178853,-4.558182,0.65169144,-0.081774905,-0.4343628,-0.060534667,77.0
1026,-0.9178853,-4.558182,0.65169144,0.4800293,0.24744873,0.22089843,77.0
1027,0.47191715,-4.583458,-1.4587593,0.4800293,0.24744873,0.22089843,77.0
1028,0.47191715,-4.583458,-1.4587593,1.2478638,0.8209351,0.4619751,77.0
1029,1.1404243,-2.2851715,-3.029522,1.2478638,0.8209351,0.4619751,77.0
1030,1.1404243,-2.2851715,-3.029522,2.2089844,1.1182984,0.63614506,77.0
1031,0.6432357,-0.028297424,-3.2478485,2.2089844,1.1182984,0.63614506,77.0
1032,0.6432357,-0.028297424,-3.2478485,2.8823,1.5271729,0.8527954,77.0
1033,-0.095519066,1.521347,-2.5712128,2.8823,1.5271729,0.8527954,77.0
1034,-0.095519066,1.521347,-2.5712128,3.2848022,1.7767457,1.0577637,77.0
1035,-0.36437893,2.6225433,-1.6944351,3.2848022,1.7767457,1.0577637,77.0
1036,-0.36437893,2.6225433,-1.6944351,3.445166,2.0146363,1.3827393,77.0
1037,-0.12193537,3.4163055,-0.92401886,3.445166,2.0146363,1.3827393,77.0
1038,-0.12193537,3.4163055,-0.92401886,3.1626709,2.540332,1.6917847,77.0
1039,0.4006815,3.8098297,-0.20864868,3.1626709,2.540332,1.6917847,77.0
1040,0.4006815,3.8098297,-0.20864868,2.5679443,2.9205322,2.1951783,77.0
1041,0.5604625,3.8569794,0.7013054,2.5679443,2.9205322,2.1951783,77.0
1042,0.5604625,3.8569794,0.7013054,1.8627685,2.9715087,2.7718506,77.0
1043,-0.38152504,3.7881546,1.6138039,1.8627685,2.9715087,2.7718506,77.0
1044,-0.38152504,3.7881546,1.6138039,1.1607789,2.5998046,3.2890503,77.0
1045,-2.2156205,3.7299957,2.050991,1.1607789,2.5998046,3.2890503,77.0
1046,-2.2156205,3.7299957,2.050991,0.63933104,2.081543,3.7552736,77.0
1047,-3.608605,3.5670319,1.814228,0.63933104,2.081543,3.7552736,77.0
1048,-3.608605,3.5670319,1.814228,0.45347902,1.6907227,4.0367064,77.0
1049,-3.6661808,3.102745,1.0728188,0.45347902,1.6907227,4.0367064,77.0
1050,-3.6661808,3.102745,1.0728188,0.6085327,1.3668091,4.1184816,77.0
1051,-2.8611674,2.4080963,0.15029526,0.6085327,1.3668091,4.1184816,77.0
1052,-2.8611674,2.4080963,0.15029526,0.9122681,1.1459106,4.072815,77.0
1053,-1.9499325,1.786232,-0.79984665,0.9122681,1.1459106,4.072815,77.0
1054,-1.9499325,1.786232,-0.79984665,1.2935303,1.1299804,3.9496217,77.0
1055,-1.0160861,1.458992,-1.7890244,1.2935303,1.1299804,3.9496217,77.0
1056,-1.0160861,1.458992,-1.7890244,1.6609863,1.3296387,3.7042968,77.0
1057,0.11640358,1.4562302,-2.7904472,1.6609863,1.3296387,3.7042968,77.0
1058,0.11640358,1.4562302,-2.7904472,1.9137452,1.7109009,3.4154298,77.0
1059,1.3179032,1.740303,-3.6019745,1.9137452,1.7109009,3.4154298,77.0
1060,1.3179032,1.740303,-3.6019745,1.8606446,2.1526978,3.163733,77.0
1061,2.1966932,2.2412949,-3.9417114,1.8606446,2.1526978,3.163733,77.0
1062,2.1966932,2.2412949,-3.9417114,1.5717773,2.6093628,2.991687,77.0
1063,2.1544492,2.802925,-3.6048355,1.5717773,2.6093628,2.991687,77.0
1064,2.1544492,2.802925,-3.6048355,1.0524536,2.807959,3.0224855,77.0
1065,0.7465329,3.2726288,-2.7241135,1.0524536,2.807959,3.0224855,77.0
1066,0.7465329,3.2726288,-2.7241135,0.31966552,2.6465333,3.2954223,77.0
1067,-1.2665553,3.5950851,-1.6201019,0.31966552,2.6465333,3.2954223,77.0
1068,-1.2665553,3.5950851,-1.6201019,-0.31116945,2.255713,3.5779176,77.0
1069,-2.4105954,3.7812424,-0.6404152,-0.31116945,2.255713,3.5779176,77.0
1070,-2.4105954,3.7812424,-0.6404152,-0.6775635,1.8224121,3.8359864,77.0
1071,-2.398093,3.7157745,0.06612015,-0.6775635,1.8224121,3.8359864,77.0
1072,-2.398093,3.7157745,0.06612015,-0.8379273,1.2436157,3.792444,77.0
1073,-2.0512505,3.375229,0.58558655,-0.8379273,1.2436157,3.792444,77.0
1074,-2.0512505,3.375229,0.58558655,-0.8358032,0.5649902,3.3623292,77.0
1075,-2.0512505,3.375229,0.58558655,-0.8358032,0.5649902,3.3623292,81.0
1076,-1.7125213,3.1268768,0.8910179,-0.8358032,0.5649902,3.3623292,81.0
1077,-1.7125213,3.1268768,0.8910179,-0.5129517,0.14230958,2.89292,81.0
1078,-1.7195288,2.925331,0.806015,-0.5129517,0.14230958,2.89292,81.0
1079,-1.7195288,2.925331,0.806015,0.028674318,-0.16885987,2.1888063,81.0
1080,-2.7882938,2.181366,0.7914047,0.028674318,-0.16885987,2.1888063,81.0
1081,-2.7882938,2.181366,0.7914047,0.36002198,-0.45135498,1.6928467,81.0
1082,-3.1971757,1.5370026,0.934185,0.36002198,-0.45135498,1.6928467,81.0
1083,-3.1971757,1.5370026,0.934185,0.95581055,-1.4379638,0.7858887,81.0
1084,-3.1971757,1.5370026,0.934185,0.99935305,-1.6556762,0.57242435,81.0
1085,-4.9532485,0.63126373,2.1134872,0.99935305,-1.6556762,0.57242435,81.0
1086,-3.8575208,0.7405243,2.0209656,0.99935305,-1.6556762,0.57242435,81.0
1087,-3.8575208,0.7405243,2.0209656,1.1522827,-1.9084351,-0.3695801,81.0
1088,-1.9658995,1.5583649,1.6703262,1.1522827,-1.9084351,-0.3695801,81.0
1089,-1.9658995,1.5583649,1.6703262,1.1299804,-2.0305665,-0.6403931,81.0
1090,-1.2044458,1.6227531,1.2570724,1.1299804,-2.0305665,-0.6403931,81.0
1091,-1.2044458,1.6227531,1.2570724,0.42374268,-2.4097047,-1.4103516,81.0
1092,-0.7078686,1.816452,0.9639244,0.42374268,-2.4097047,-1.4103516,81.0
1093,-0.7078686,1.816452,0.9639244,0.095581055,-2.450061,-1.6493043,81.0
1094,-0.46867514,1.3078499,0.9240799,0.095581055,-2.450061,-1.6493043,81.0
1095,-0.46867514,1.3078499,0.9240799,-0.63614506,-2.4171388,-2.3311157,81.0
1096,-0.3591442,0.3392105,0.88576126,-0.63614506,-2.4171388,-2.3311157,81.0
1097,-0.3591442,0.3392105,0.88576126,-0.7890747,-2.4320068,-2.5573242,81.0
1098,-0.38439798,-0.07359314,0.92887115,-0.7890747,-2.4320068,-2.5573242,81.0
1099,-0.38439798,-0.07359314,0.92887115,-1.175647,-2.7389283,-3.1180665,81.0
1100,-0.56369543,-0.22792816,1.1034241,-1.175647,-2.7389283,-3.1180665,81.0
1101,-0.56369543,-0.22792816,1.1034241,-1.2298096,-2.8483155,-3.3177247,81.0
1102,-0.23639297,-0.5132637,1.2300682,-1.2298096,-2.8483155,-3.3177247,81.0
1103,-0.23639297,-0.5132637,1.2300682,-1.3232666,-2.9375246,-3.9305055,81.0
1104,1.4934664,-1.1582184,1.2863235,-1.3232666,-2.9375246,-3.9305055,81.0
1105,1.4934664,-1.1582184,1.2863235,-1.363623,-2.9481447,-4.1832643,81.0
1106,2.1015968,-1.6291122,1.2391663,-1.363623,-2.9481447,-4.1832643,81.0
1107,2.1015968,-1.6291122,1.2391663,-1.3699951,-2.980005,-5.0849123,81.0
1108,4.3252716,-2.6823883,0.9737778,-1.3699951,-2.980005,-5.0849123,81.0
1109,4.3252716,-2.6823883,0.9737778,-1.2754761,-3.0256715,-5.346167,81.0
1110,4.49104,-2.8896332,1.005024,-1.2754761,-3.0256715,-5.346167,81.0
1111,4.49104,-2.8896332,1.005024,-0.118945315,-3.2879884,-5.93877,81.0
1112,6.763645,-3.6959305,1.9220848,-0.118945315,-3.2879884,-5.93877,81.0
1113,6.763645,-3.6959305,1.9220848,0.6977417,-3.3219726,-6.051343,81.0
1114,6.779715,-3.7328568,2.5207977,0.6977417,-3.3219726,-6.051343,81.0
1115,6.779715,-3.7328568,2.5207977,4.2958374,-3.165857,-5.7476077,81.0
1116,7.707207,-5.381668,5.0939484,4.2958374,-3.165857,-5.7476077,81.0
1117,7.707207,-5.381668,5.0939484,5.085974,-2.7006958,-5.407764,81.0
1118,6.12403,-4.5180817,4.365162,5.085974,-2.7006958,-5.407764,81.0
1119,6.12403,-4.5180817,4.365162,4.4466434,-1.1586548,-4.248047,81.0
1120,2.886065,-2.8373413,2.0068512,4.4466434,-1.1586548,-4.248047,81.0
1121,2.886065,-2.8373413,2.0068512,2.6380372,-0.56817627,-2.4606812,81.0
1122,-1.222764,0.5310211,-0.6703148,2.6380372,-0.56817627,-2.4606812,81.0
1123,-1.222764,0.5310211,-0.6703148,0.9324463,-0.905896,-1.0004151,81.0
1124,-3.836012,5.651108,-1.4863396,0.9324463,-0.905896,-1.0004151,81.0
1125,-3.836012,5.651108,-1.4863396,0.022302246,-0.48215333,-0.38444826,81.0
1126,-2.4662707,5.852066,-1.491024,0.022302246,-0.48215333,-0.38444826,81.0
1127,-2.4662707,5.852066,-1.491024,-1.5303589,0.28461915,0.30267334,81.0
1128,-0.123016596,5.336632,-2.1171837,-1.5303589,0.28461915,0.30267334,81.0
1129,-0.123016596,5.336632,-2.1171837,-2.7622926,0.59047854,1.0174073,81.0
1130,1.0396483,2.4229584,-2.2201881,-2.7622926,0.59047854,1.0174073,81.0
1131,1.0396483,2.4229584,-2.2201881,-3.2359498,1.5006226,1.7618774,81.0
1132,1.0452194,-1.1400528,-1.9310951,-3.2359498,1.5006226,1.7618774,81.0
1133,1.0452194,-1.1400528,-1.9310951,-3.25719,2.5031617,2.2514648,81.0
1134,-0.26006484,-3.8173294,-1.7445946,-3.25719,2.5031617,2.2514648,81.0
1135,-0.26006484,-3.8173294,-1.7445946,-3.255066,2.714502,2.4288208,81.0
1136,-2.4239454,-4.4802322,-1.361702,-3.255066,2.714502,2.4288208,81.0
1137,-2.4239454,-4.4802322,-1.361702,-3.166919,2.427759,2.9534547,81.0
1138,-3.9467735,-3.6012955,-0.7299843,-3.166919,2.427759,2.9534547,81.0
1139,-3.9467735,-3.6012955,-0.7299843,-2.6529052,2.166504,3.2975464,81.0
1140,-4.048093,-2.7514954,-0.21134567,-2.6529052,2.166504,3.2975464,81.0
1141,-4.048093,-2.7514954,-0.21134567,-1.4156617,1.9424194,3.1945312,81.0
1142,-3.2825172,-2.6161346,0.12833405,-1.4156617,1.9424194,3.1945312,81.0
1143,-3.2825172,-2.6161346,0.12833405,0.9897949,1.273352,2.540332,81.0
1144,-2.6210577,-2.635353,0.44146347,0.9897949,1.273352,2.540332,81.0
1145,-2.6210577,-2.635353,0.44146347,1.6524903,1.0375855,2.3704102,81.0
1146,-2.3426957,-1.5515289,0.28892517,1.6524903,1.0375855,2.3704102,81.0
1147,-2.3426957,-1.5515289,0.28892517,2.6008668,0.5363159,2.1091554,81.0
1148,-2.4413443,0.28739166,0.019031525,2.6008668,0.5363159,2.1091554,81.0
1149,-2.4413443,0.28739166,0.019031525,3.1934693,0.10089111,2.0380006,81.0
1150,-2.3114493,2.1338806,-0.469738,3.1934693,0.10089111,2.0380006,81.0
1151,-2.3114493,2.1338806,-0.469738,3.62677,-0.18372802,2.0082643,81.0
1152,-1.592946,3.1115494,-1.0791969,3.62677,-0.18372802,2.0082643,81.0
1153,-1.592946,3.1115494,-1.0791969,3.9559937,-0.31329346,1.9126831,81.0
1154,-0.43769908,3.0432281,-1.6132011,3.9559937,-0.31329346,1.9126831,81.0
1155,-0.43769908,3.0432281,-1.6132011,4.190698,-0.3727661,1.7640015,81.0
1156,0.83032155,2.390541,-1.9340286,4.190698,-0.3727661,1.7640015,81.0
1157,0.83032155,2.390541,-1.9340286,4.2140627,-0.2623169,1.5282348,81.0
1158,2.127038,1.870842,-2.198494,4.2140627,-0.2623169,1.5282348,81.0
1159,2.127038,1.870842,-2.198494,3.9432495,0.028674318,1.3721192,81.0
1160,3.2558908,1.855217,-2.581562,3.9432495,0.028674318,1.3721192,81.0
1161,3.2558908,1.855217,-2.581562,3.4621582,0.4322388,1.3370727,81.0
1162,3.7880988,2.2200012,-3.0735855,3.4621582,0.4322388,1.3370727,81.0
1163,3.7880988,2.2200012,-3.0735855,2.9290283,0.87403566,1.360437,81.0
1164,3.427989,2.73555,-3.429329,2.9290283,0.87403566,1.360437,81.0
1165,3.427989,2.73555,-3.429329,2.434131,1.2191895,1.532483,81.0
1166,2.4295738,3.234192,-3.375885,2.434131,1.2191895,1.532483,81.0
1167,2.4295738,3.234192,-3.375885,1.9317993,1.4878784,1.8659546,81.0
1168,1.5464423,3.5390015,-3.0139503,1.9317993,1.4878784,1.8659546,81.0
1169,1.5464423,3.5390015,-3.0139503,1.358313,1.6036377,2.2227905,81.0
1170,1.520772,3.5092545,-2.6376495,1.358313,1.6036377,2.2227905,81.0
1171,1.520772,3.5092545,-2.6376495,0.66269535,1.9264892,2.5074098,81.0
1172,2.2907631,3.407196,-2.4660263,0.66269535,1.9264892,2.5074098,81.0
1173,2.2907631,3.407196,-2.4660263,-0.29311523,2.272705,2.5732543,81.0
1174,2.4448786,4.1883926,-2.4029846,-0.29311523,2.272705,2.5732543,81.0
1175,2.4448786,4.1883926,-2.4029846,-1.6854126,2.0741088,2.977881,81.0
1176,2.4448786,4.1883926,-2.4029846,-1.6854126,2.0741088,2.977881,83.0
1177,1.1983469,5.7063675,-1.89851,-1.6854126,2.0741088,2.977881,83.0
1178,1.1983469,5.7063675,-1.89851,-2.907788,1.4931885,3.0309815,83.0
1179,-0.39931822,5.109001,-0.76634216,-2.907788,1.4931885,3.0309815,83.0
1180,-0.39931822,5.109001,-0.76634216,-2.9555786,1.1650269,1.9615357,83.0
1181,-1.5004604,1.5638008,0.5866585,-2.9555786,1.1650269,1.9615357,83.0
1182,-1.5004604,1.5638008,0.5866585,-2.1580079,0.6446411,0.53737795,83.0
1183,-2.2815938,-1.5493736,1.9257202,-2.1580079,0.6446411,0.53737795,83.0
1184,-2.2815938,-1.5493736,1.9257202,-1.4135376,-0.057348635,-0.31010744,83.0
1185,-2.8103213,-2.0140114,2.9105225,-1.4135376,-0.057348635,-0.31010744,83.0
1186,-2.8103213,-2.0140114,2.9105225,-0.9388184,-0.8867798,-1.1161743,83.0
1187,-2.5399199,-0.8685341,3.1426888,-0.9388184,-0.8867798,-1.1161743,83.0
1188,-2.5399199,-0.8685341,3.1426888,-0.7614624,-1.3115845,-1.991272,83.0
1189,-1.4024192,0.31198502,2.6042519,-0.7614624,-1.3115845,-1.991272,83.0
1190,-1.4024192,0.31198502,2.6042519,-0.8591675,-1.7671875,-2.2259767,83.0
1191,-0.30781186,0.65398407,1.8270416,-0.8591675,-1.7671875,-2.2259767,83.0
1192,-0.30781186,0.65398407,1.8270416,-0.90058595,-2.1346436,-2.6040528,83.0
1193,0.13741755,-0.14619827,1.2703629,-0.90058595,-2.1346436,-2.6040528,83.0
1194,0.13741755,-0.14619827,1.2703629,-0.74659425,-2.1845582,-3.08833,83.0
1195,0.06557369,-1.2896881,1.0209045,-0.74659425,-2.1845582,-3.08833,83.0
1196,0.06557369,-1.2896881,1.0209045,-0.5543701,-2.1049073,-3.361267,83.0
1197,-0.41582716,-1.8185768,1.1883316,-0.5543701,-2.1049073,-3.361267,83.0
1198,-0.41582716,-1.8185768,1.1883316,-0.4439209,-2.1272094,-3.4154298,83.0
1199,-1.1249835,-1.7011986,1.5775299,-0.4439209,-2.1272094,-3.4154298,83.0
1200,-1.1249835,-1.7011986,1.5775299,-0.36639404,-2.1898682,-3.4175537,83.0
1201,-1.5220206,-1.4656601,1.6801605,-0.36639404,-2.1898682,-3.4175537,83.0
1202,-1.5220206,-1.4656601,1.6801605,-0.4248047,-2.1261475,-3.4526002,83.0
1203,-1.2287736,-1.3564911,1.2246475,-0.4248047,-2.1261475,-3.4526002,83.0
1204,-1.2287736,-1.3564911,1.2246475,-0.67437744,-1.9817139,-3.5131347,83.0
1205,-1.2287736,-1.3564911,1.2246475,-1.0875,-1.8362182,-3.5800416,83.0
1206,-0.47159314,-1.3125839,0.4571228,-1.0875,-1.8362182,-3.5800416,83.0
1207,2.0917807,-2.349701,0.2843132,-1.0875,-1.8362182,-3.5800416,83.0
1208,2.0917807,-2.349701,0.2843132,-1.4974365,-1.7289551,-3.6363282,83.0
1209,2.0917807,-2.349701,0.2843132,-1.7778076,-1.6248779,-3.6480103,83.0
1210,2.0917807,-2.349701,0.2843132,-1.7438233,-1.5282348,-3.612964,83.0
1211,2.9982293,-2.930603,1.3616333,-1.7438233,-1.5282348,-3.612964,83.0
1212,2.9982293,-2.930603,1.3616333,-1.084314,-1.3391968,-3.4876466,83.0
1213,3.7177608,-3.8809433,2.8429337,-1.084314,-1.3391968,-3.4876466,83.0
1214,3.7177608,-3.8809433,2.8429337,0.0031860352,-0.9409424,-3.258252,83.0
1215,3.2348044,-4.9265823,4.021744,0.0031860352,-0.9409424,-3.258252,83.0
1216,3.2348044,-4.9265823,4.021744,0.42055663,-0.5129517,-2.7261841,83.0
1217,1.054323,-5.097809,3.698864,0.42055663,-0.5129517,-2.7261841,83.0
1218,1.054323,-5.097809,3.698864,0.3727661,-0.4333008,-1.6843506,83.0
1219,-1.9668443,-4.0785675,2.6002655,0.3727661,-0.4333008,-1.6843506,83.0
1220,-1.9668443,-4.0785675,2.6002655,1.2574219,-0.8644776,-1.2829102,83.0
1221,-3.830177,-2.0026627,2.1719475,1.2574219,-0.8644776,-1.2829102,83.0
1222,-3.830177,-2.0026627,2.1719475,1.1841431,-0.8973999,-0.22939454,83.0
1223,-2.861334,0.8798523,1.6233749,1.1841431,-0.8973999,-0.22939454,83.0
1224,-2.861334,0.8798523,1.6233749,0.3175415,-0.29099122,0.7104859,83.0
1225,-0.18081534,2.7061005,0.23582077,0.3175415,-0.29099122,0.7104859,83.0
1226,-0.18081534,2.7061005,0.23582077,-0.63614506,0.38444826,1.2478638,83.0
1227,1.6512462,2.260231,-1.1743469,-0.63614506,0.38444826,1.2478638,83.0
1228,1.6512462,2.260231,-1.1743469,-1.2531738,0.8857178,1.6864747,83.0
1229,1.5947152,0.41986847,-1.9789314,-1.2531738,0.8857178,1.6864747,83.0
1230,1.5947152,0.41986847,-1.9789314,-1.2170655,1.1108643,1.8287842,83.0
1231,0.38772285,-1.4325027,-2.235588,-1.2170655,1.1108643,1.8287842,83.0
1232,0.38772285,-1.4325027,-2.235588,-0.60959476,1.2340577,1.9689697,83.0
1233,-0.5108911,-2.206047,-2.210186,-0.60959476,1.2340577,1.9689697,83.0
1234,-0.5108911,-2.206047,-2.210186,0.16673584,1.450708,2.1123414,83.0
1235,-0.4433198,-1.8060226,-2.1329803,0.16673584,1.450708,2.1123414,83.0
1236,-0.4433198,-1.8060226,-2.1329803,1.0375855,1.5823975,2.3024414,83.0
1237,0.22080803,-0.90447235,-2.0186996,1.0375855,1.5823975,2.3024414,83.0
1238,0.22080803,-0.90447235,-2.0186996,2.0528686,1.806482,2.4649293,83.0
1239,0.9428818,-0.034439087,-1.7060013,2.0528686,1.806482,2.4649293,83.0
1240,0.9428818,-0.034439087,-1.7060013,2.984253,2.0741088,2.6518433,83.0
1241,1.144784,0.8251114,-1.1379089,2.984253,2.0741088,2.6518433,83.0
1242,1.144784,0.8251114,-1.1379089,3.5991578,1.9944581,2.8217652,83.0
1243,0.3586738,1.8614578,-0.5207138,3.5991578,1.9944581,2.8217652,83.0
1244,0.3586738,1.8614578,-0.5207138,3.710669,1.6578003,3.1095703,83.0
1245,-0.87897897,2.969429,-0.2576828,3.710669,1.6578003,3.1095703,83.0
1246,-0.87897897,2.969429,-0.2576828,3.5747316,1.3922974,3.445166,83.0
1247,-1.4854708,3.8186493,-0.5867996,3.5747316,1.3922974,3.445166,83.0
1248,-1.4854708,3.8186493,-0.5867996,3.2720582,1.2542359,3.7319093,83.0
1249,-1.1861671,4.0951385,-1.3125687,3.2720582,1.2542359,3.7319093,83.0
1250,-1.1861671,4.0951385,-1.3125687,2.7601686,1.1852051,3.8784668,83.0
1251,-0.54563785,3.6856308,-2.0564766,2.7601686,1.1852051,3.8784668,83.0
1252,-0.54563785,3.6856308,-2.0564766,2.1303957,1.1108643,3.8519166,83.0
1253,0.0101572275,2.8155327,-2.4845886,2.1303957,1.1108643,3.8519166,83.0
1254,0.0101572275,2.8155327,-2.4845886,1.5940796,1.0577637,3.710669,83.0
1255,0.49147534,1.844944,-2.5738068,1.5940796,1.0577637,3.710669,83.0
1256,0.49147534,1.844944,-2.5738068,1.3147706,1.0205933,3.435608,83.0
1257,1.0577799,0.95389557,-2.5297508,1.3147706,1.0205933,3.435608,83.0
1258,1.0577799,0.95389557,-2.5297508,1.270166,1.089624,3.0564697,83.0
1259,1.6597614,0.35343552,-2.492382,1.270166,1.089624,3.0564697,83.0
1260,1.6597614,0.35343552,-2.492382,1.3317627,1.1862671,2.6847656,83.0
1261,2.098549,0.25897217,-2.4417458,1.3317627,1.1862671,2.6847656,83.0
1262,2.098549,0.25897217,-2.4417458,1.4114136,1.2574219,2.340674,83.0
1263,2.2731018,0.49782562,-2.2890549,1.4114136,1.2574219,2.340674,83.0
1264,2.2731018,0.49782562,-2.2890549,1.5027466,1.2829102,1.9764038,83.0
1265,2.3515868,0.7036209,-2.0305977,1.5027466,1.2829102,1.9764038,83.0
1266,2.3515868,0.7036209,-2.0305977,1.5728394,1.3445069,1.6015137,83.0
1267,2.4647655,0.70851135,-1.6993675,1.5728394,1.3445069,1.6015137,83.0
1268,2.4647655,0.70851135,-1.6993675,1.356189,1.4252198,1.2860962,83.0
1269,2.4541245,0.67972565,-1.3966255,1.356189,1.4252198,1.2860962,83.0
1270,2.4541245,0.67972565,-1.3966255,0.6637573,1.3317627,1.0333375,83.0
1271,2.3830385,0.8602829,-1.2797737,0.6637573,1.3317627,1.0333375,83.0
1272,2.3830385,0.8602829,-1.2797737,-0.30161133,1.3190186,0.8581055,83.0
1273,2.4975562,1.1711731,-1.3375168,-0.30161133,1.3190186,0.8581055,83.0
1274,2.4975562,1.1711731,-1.3375168,-1.3625611,1.3296387,0.6754395,83.0
1275,2.3860455,1.3738403,-1.3011055,-1.3625611,1.3296387,0.6754395,83.0
1276,2.3860455,1.3738403,-1.3011055,-2.529712,1.2372437,0.45560303,83.0
1277,1.3425155,1.3429413,-1.0311813,-2.529712,1.2372437,0.45560303,83.0
1278,1.3425155,1.3429413,-1.0311813,-3.6681886,0.98236084,0.22727051,83.0
1279,-0.55451536,0.86211014,-0.4355011,-3.6681886,0.98236084,0.22727051,83.0
1280,-0.55451536,0.86211014,-0.4355011,-4.286279,0.49277344,-0.17523193,83.0
1281,-2.3663783,-0.22840118,0.66012955,-4.286279,0.49277344,-0.17523193,83.0
1282,-2.3663783,-0.22840118,0.66012955,-4.094055,-0.04885254,-0.7423462,83.0
1283,-3.0509028,-1.5447083,2.0320473,-4.094055,-0.04885254,-0.7423462,83.0
1284,-3.0509028,-1.5447083,2.0320473,-3.358081,-0.4598511,-1.355127,83.0
1285,-2.448266,-2.3564224,3.0978394,-3.358081,-0.4598511,-1.355127,83.0
1286,-2.448266,-2.3564224,3.0978394,-2.4489992,-0.817749,-1.9987061,83.0
1287,-1.4338937,-2.265129,3.464573,-2.4489992,-0.817749,-1.9987061,83.0
1288,-1.4338937,-2.265129,3.464573,-1.5919555,-1.170337,-2.5764406,83.0
1289,-1.4338937,-2.265129,3.464573,-1.5919555,-1.170337,-2.5764406,80.0
1290,-0.74347734,-1.5927315,3.1618042,-1.5919555,-1.170337,-2.5764406,80.0
1291,-0.74347734,-1.5927315,3.1618042,-0.93563235,-1.4145997,-3.073462,80.0
1292,-0.44425678,-1.0022964,2.4297485,-0.93563235,-1.4145997,-3.073462,80.0
1293,-0.44425678,-1.0022964,2.4297485,-0.43967286,-1.5250489,-3.5651734,80.0
1294,-0.5019145,-0.8341484,1.4951286,-0.43967286,-1.5250489,-3.5651734,80.0
1295,-0.5019145,-0.8341484,1.4951286,-0.23895264,-1.5526612,-4.062195,80.0
1296,-0.94767404,-0.8320923,0.69024277,-0.23895264,-1.5526612,-4.062195,80.0
1297,-0.94767404,-0.8320923,0.69024277,-0.42799073,-1.6418701,-4.433899,80.0
1298,-1.52894,-0.57431793,0.4363861,-0.42799073,-1.6418701,-4.433899,80.0
1299,-1.52894,-0.57431793,0.4363861,-0.86553955,-1.7799317,-4.6643558,80.0
1300,-1.7118483,-0.12715149,0.7380829,-0.86553955,-1.7799317,-4.6643558,80.0
1301,-1.7118483,-0.12715149,0.7380829,-1.3126465,-1.7693115,-4.8194094,80.0
1302,-1.1580772,0.09120941,1.1036758,-1.3126465,-1.7693115,-4.8194094,80.0
1303,-1.1580772,0.09120941,1.1036758,-1.7353271,-1.5908936,-4.8926883,80.0
1304,-0.20871282,-0.10623169,1.1647301,-1.7353271,-1.5908936,-4.8926883,80.0
1305,-0.20871282,-0.10623169,1.1647301,-2.1526978,-1.4018555,-4.9033084,80.0
1306,0.5488379,-0.5976944,1.0009499,-2.1526978,-1.4018555,-4.9033084,80.0
1307,0.5488379,-0.5976944,1.0009499,-2.5010376,-1.268042,-4.809851,80.0
1308,1.0257525,-1.2550964,0.83265686,-2.5010376,-1.268042,-4.809851,80.0
1309,1.0257525,-1.2550964,0.83265686,-2.5764406,-1.0875,-4.579395,80.0
1310,1.4975674,-2.1087875,0.89517593,-2.5764406,-1.0875,-4.579395,80.0
1311,1.4975674,-2.1087875,0.89517593,-2.3385499,-0.84111327,-4.158838,80.0
1312,1.4975674,-2.1087875,0.89517593,-2.0061402,-0.58623046,-3.4653442,80.0
1313,1.8235059,-3.1530228,1.3996277,-2.0061402,-0.58623046,-3.4653442,80.0
1314,-1.3015714,-4.3941727,4.246792,-2.0061402,-0.58623046,-3.4653442,80.0
1315,-1.3015714,-4.3941727,4.246792,-1.716211,-0.38338622,-2.8302612,80.0
1316,-1.3015714,-4.3941727,4.246792,-1.3859253,-0.4163086,-2.2440307,80.0
1317,-1.3015714,-4.3941727,4.246792,-1.1480347,-0.48109132,-1.3848633,80.0
1318,-2.4483984,-1.9820175,3.8877907,-1.1480347,-0.48109132,-1.3848633,80.0
1319,-2.4483984,-1.9820175,3.8877907,-1.0057251,-0.3079834,-0.8496094,80.0
1320,-3.026895,-1.2637863,3.1477318,-1.0057251,-0.3079834,-0.8496094,80.0
1321,-3.026895,-1.2637863,3.1477318,-0.9133301,-0.31116945,-0.6000366,80.0
1322,-3.218452,-2.4911346,2.3100204,-0.9133301,-0.31116945,-0.6000366,80.0
1323,-3.218452,-2.4911346,2.3100204,-0.6117188,-0.5915405,-0.44816896,80.0
1324,-2.4578304,-4.3589096,1.3460503,-0.6117188,-0.5915405,-0.44816896,80.0
1325,-2.4578304,-4.3589096,1.3460503,0.13487549,-0.16461182,-0.21983643,80.0
1326,-0.45200664,-5.6269226,-0.021427155,0.13487549,-0.16461182,-0.21983643,80.0
1327,-0.45200664,-5.6269226,-0.021427155,1.3827393,0.6616333,0.004248047,80.0
1328,1.3195837,-5.2837067,-1.4021759,1.3827393,0.6616333,0.004248047,80.0
1329,1.3195837,-5.2837067,-1.4021759,2.4989135,1.3168945,0.44179687,80.0
1330,1.0640655,-2.9801407,-1.9467316,2.4989135,1.3168945,0.44179687,80.0
1331,1.0640655,-2.9801407,-1.9467316,2.9704468,1.2977784,1.0375855,80.0
1332,-0.5426686,0.47573853,-1.6066284,2.9704468,1.2977784,1.0375855,80.0
1333,-0.5426686,0.47573853,-1.6066284,2.89823,1.2213135,1.7608155,80.0
1334,-1.2598672,3.4534683,-1.2263412,2.89823,1.2213135,1.7608155,80.0
1335,-1.2598672,3.4534683,-1.2263412,2.6868896,1.4528321,2.177124,80.0
1336,-0.4476033,4.5936203,-1.3381157,2.6868896,1.4528321,2.177124,80.0
1337,-0.4476033,4.5936203,-1.3381157,2.4861696,1.6662964,2.535022,80.0
1338,0.92438805,4.0500565,-1.554245,2.4861696,1.6662964,2.535022,80.0
1339,0.92438805,4.0500565,-1.554245,2.3672242,1.9859619,2.9311523,80.0
1340,2.0435143,3.0492096,-1.469204,2.3672242,1.9859619,2.9311523,80.0
1341,2.0435143,3.0492096,-1.469204,2.345984,2.3098755,3.3060424,80.0
1342,2.1776705,2.51223,-1.1779175,2.345984,2.3098755,3.3060424,80.0
1343,2.1776705,2.51223,-1.1779175,2.263147,2.252527,3.622522,80.0
1344,1.0703225,2.636406,-0.88697815,2.263147,2.252527,3.622522,80.0
1345,1.0703225,2.636406,-0.88697815,2.0518067,1.996582,3.9485595,80.0
1346,1.0703225,2.636406,-0.88697815,1.9413575,1.7969239,4.2055664,80.0
1347,-0.24272871,3.0487213,-0.84054947,1.9413575,1.7969239,4.2055664,80.0
1348,0.14889574,3.7787552,-2.690155,1.9413575,1.7969239,4.2055664,80.0
1349,0.14889574,3.7787552,-2.690155,1.8744507,1.6747925,4.2915893,80.0
1350,0.14889574,3.7787552,-2.690155,1.7618774,1.4942505,4.2331786,80.0
1351,0.14889574,3.7787552,-2.690155,1.6705445,1.3434448,4.0388308,80.0
1352,0.7779057,2.9194565,-2.7189827,1.6705445,1.3434448,4.0388308,80.0
1353,0.7779057,2.9194565,-2.7189827,1.7119629,1.3370727,3.714917,80.0
1354,1.3769999,2.073223,-2.577736,1.7119629,1.3370727,3.714917,80.0
1355,1.3769999,2.073223,-2.577736,1.7841797,1.3530029,3.3315308,80.0
1356,1.6599128,1.413765,-2.31855,1.7841797,1.3530029,3.3315308,80.0
1357,1.6599128,1.413765,-2.31855,1.7735596,1.357251,2.9502685,80.0
1358,1.6537237,1.0664253,-2.0439758,1.7735596,1.357251,2.9502685,80.0
1359,1.6537237,1.0664253,-2.0439758,1.6450561,1.4103516,2.622107,80.0
1360,1.6439753,0.9873581,-1.915493,1.6450561,1.4103516,2.622107,80.0
1361,1.6439753,0.9873581,-1.915493,1.450708,1.4719483,2.355542,80.0
1362,1.7555246,1.1235504,-1.948494,1.450708,1.4719483,2.355542,80.0
1363,1.7555246,1.1235504,-1.948494,1.2053833,1.5590333,2.2057984,80.0
1364,1.8922253,1.320118,-1.9675255,1.2053833,1.5590333,2.2057984,80.0
1365,1.8922253,1.320118,-1.9675255,0.8527954,1.5600952,2.1027832,80.0
1366,2.060472,1.3698273,-1.8752403,0.8527954,1.5600952,2.1027832,80.0
1367,2.060472,1.3698273,-1.8752403,0.28780517,1.621692,1.988086,80.0
1368,2.2879648,1.3575706,-1.8337479,0.28780517,1.621692,1.988086,80.0
1369,2.2879648,1.3575706,-1.8337479,-0.43011475,1.6471802,1.8489624,80.0
1370,2.1987557,1.5615807,-1.8264961,-0.43011475,1.6471802,1.8489624,80.0
1371,2.1987557,1.5615807,-1.8264961,-1.2383057,1.4761963,1.6769165,80.0
1372,1.544136,1.8736153,-1.5487099,-1.2383057,1.4761963,1.6769165,80.0
1373,1.544136,1.8736153,-1.5487099,-2.0252564,1.1947632,1.3774292,80.0
1374,0.6512022,1.7066307,-0.86146545,-2.0252564,1.1947632,1.3774292,80.0
1375,0.6512022,1.7066307,-0.86146545,-2.5668824,0.8464233,0.8612915,80.0
1376,-0.37991714,0.5329933,0.15751648,-2.5668824,0.8464233,0.8612915,80.0
1377,-0.37991714,0.5329933,0.15751648,-2.6932619,0.2984253,0.12850343,80.0
1378,-1.5644808,-1.0999222,1.3720207,-2.6932619,0.2984253,0.12850343,80.0
1379,-1.5644808,-1.0999222,1.3720207,-2.4766114,-0.271875,-0.54375,80.0
1380,-2.2810278,-1.9610634,2.4038925,-2.4766114,-0.271875,-0.54375,80.0
1381,-2.2810278,-1.9610634,2.4038925,-2.1218994,-0.75721437,-1.1161743,80.0
1382,-2.141119,-1.6200371,2.8331108,-2.1218994,-0.75721437,-1.1161743,80.0
1383,-2.141119,-1.6200371,2.8331108,-1.6599244,-1.179895,-1.7480713,80.0
1384,-1.5239916,-0.73862076,2.6126938,-1.6599244,-1.179895,-1.7480713,80.0
1385,-1.5239916,-0.73862076,2.6126938,-1.6599244,-1.179895,-1.7480713,80.0
1386,-1.5239916,-0.73862076,2.6126938,-1.26698,-1.5717773,-2.337488,80.0
1387,-0.8265176,-0.21530151,2.020832,-1.26698,-1.5717773,-2.337488,80.0
1388,-0.8265176,-0.21530151,2.020832,-0.9866089,-1.8500245,-2.9661987,80.0
1389,-0.2752037,-0.41500473,1.4052391,-0.9866089,-1.8500245,-2.9661987,80.0
1390,-0.2752037,-0.41500473,1.4052391,-0.75509036,-2.0571167,-3.635266,80.0
1391,-0.16393757,-0.9780617,1.0139618,-0.75509036,-2.0571167,-3.635266,80.0
1392,-0.16393757,-0.9780617,1.0139618,-0.5363159,-2.2026124,-4.2119384,80.0
1393,-0.59450436,-1.2291069,0.9212265,-0.5363159,-2.2026124,-4.2119384,80.0
1394,-0.59450436,-1.2291069,0.9212265,-0.46834716,-2.337488,-4.595325,80.0
1395,-1.2481256,-0.8404999,1.0422516,-0.46834716,-2.337488,-4.595325,80.0
1396,-1.2481256,-0.8404999,1.0422516,-0.49383545,-2.4882934,-4.8087893,80.0
1397,-1.6357808,-0.15504074,1.154602,-0.49383545,-2.4882934,-4.8087893,80.0
1398,-1.6357808,-0.15504074,1.154602,-0.47471926,-2.5552003,-4.9319825,80.0
1399,-1.446552,0.26805878,1.0926132,-0.47471926,-2.5552003,-4.9319825,80.0
1400,-1.446552,0.26805878,1.0926132,-0.42905274,-2.4829834,-5.0254397,80.0
1401,-0.8089993,0.25149536,0.8523598,-0.42905274,-2.4829834,-5.0254397,80.0
1402,-0.8089993,0.25149536,0.8523598,-0.5012695,-2.4245727,-5.0732303,80.0
1403,-0.05246067,-0.011474609,0.5566673,-0.5012695,-2.4245727,-5.0732303,80.0
1404,-0.05246067,-0.011474609,0.5566673,-0.6531372,-2.3417358,-5.04668,80.0
1405,0.72963786,-0.35355377,0.39950943,-0.6531372,-2.3417358,-5.04668,80.0
1406,0.72963786,-0.35355377,0.39950943,-0.6053467,-2.1962402,-4.876758,80.0
1407,1.6034126,-0.8978348,0.6373787,-0.6053467,-2.1962402,-4.876758,80.0
1408,1.6034126,-0.8978348,0.6373787,0.10620117,-2.0188844,-4.500806,80.0
1409,2.2738557,-2.0750198,1.5614433,0.10620117,-2.0188844,-4.500806,80.0
1410,2.2738557,-2.0750198,1.5614433,0.56817627,-1.2383057,-3.7531495,80.0
1411,1.9668508,-3.5210648,2.1134262,0.56817627,-1.2383057,-3.7531495,80.0
1412,1.9668508,-3.5210648,2.1134262,0.032922365,-0.70198977,-2.701758,80.0
1413,0.04257202,-3.3667526,2.0867271,0.032922365,-0.70198977,-2.701758,80.0
1414,0.04257202,-3.3667526,2.0867271,-0.45772704,-0.6839356,-1.9594116,80.0
1415,-2.3147097,-0.3455429,2.5547218,-0.45772704,-0.6839356,-1.9594116,80.0
1416,-2.3147097,-0.3455429,2.5547218,-1.3498169,-0.6637573,-0.6180908,80.0
1417,-3.286863,3.1731262,2.8355484,-1.3498169,-0.6637573,-0.6180908,80.0
1418,-3.286863,3.1731262,2.8355484,-2.2971313,-0.23682861,0.07646485,80.0
1419,-3.1545517,3.651268,2.2807808,-2.2971313,-0.23682861,0.07646485,80.0
1420,-3.1545517,3.651268,2.2807808,-3.180725,0.0541626,0.5320679,80.0
1421,-2.905636,1.2394333,1.5554962,-3.180725,0.0541626,0.5320679,80.0
1422,-2.905636,1.2394333,1.5554962,-3.5025146,0.007434082,0.8294312,80.0
1423,-2.5411716,-1.9977837,0.8329239,-3.5025146,0.007434082,0.8294312,80.0
1424,-2.5411716,-1.9977837,0.8329239,-2.8706176,0.2347046,0.9260742,80.0
1425,-1.4124172,-4.783188,-0.26682663,-2.8706176,0.2347046,0.9260742,80.0
1426,-1.4124172,-4.783188,-0.26682663,-1.44646,0.9366943,0.9770508,80.0
1427,0.18005157,-5.944145,-1.5297928,-1.44646,0.9366943,0.9770508,80.0
1428,0.18005157,-5.944145,-1.5297928,0.12531738,1.635498,1.1374146,80.0
1429,0.862535,-4.981964,-2.3370552,0.12531738,1.635498,1.1374146,80.0
1430,0.862535,-4.981964,-2.3370552,1.1841431,1.8425903,1.3126465,80.0
1431,0.12778437,-2.6099625,-2.342434,1.1841431,1.8425903,1.3126465,80.0
1432,0.12778437,-2.6099625,-2.342434,1.721521,1.7491333,1.5781494,80.0
1433,-0.68295324,-0.015426636,-1.8716431,1.721521,1.7491333,1.5781494,80.0
1434,-0.68295324,-0.015426636,-1.8716431,1.9116211,2.081543,1.9275513,80.0
1435,-0.4240482,1.8238373,-1.4654922,1.9116211,2.081543,1.9275513,80.0
1436,-0.4240482,1.8238373,-1.4654922,1.6822265,2.3640382,2.2684572,80.0
1437,0.30440164,2.6682358,-1.1658745,1.6822265,2.3640382,2.2684572,80.0
1438,0.30440164,2.6682358,-1.1658745,1.175647,2.2312868,2.712378,80.0
1439,0.7165438,2.8367844,-0.7470665,1.175647,2.2312868,2.712378,80.0
1440,0.7165438,2.8367844,-0.7470665,0.8071289,1.9848999,3.164795,80.0
1441,0.9786794,2.54422,-0.35223007,0.8071289,1.9848999,3.164795,80.0
1442,0.9786794,2.54422,-0.35223007,0.6839356,1.7438233,3.4887085,80.0
1443,1.0215299,2.0099487,-0.17190933,0.6839356,1.7438233,3.4887085,80.0
1444,1.0215299,2.0099487,-0.17190933,0.65844727,1.3126465,3.722351,80.0
1445,1.0215299,2.0099487,-0.17190933,0.7455322,0.87615967,3.888025,80.0
1446,0.45695782,1.5690155,-0.19262695,0.7455322,0.87615967,3.888025,80.0
1447,-0.34615254,1.8018341,-1.9413452,0.7455322,0.87615967,3.888025,80.0
1448,-0.34615254,1.8018341,-1.9413452,1.0673218,0.56180423,3.9591796,80.0
1449,-0.34615254,1.8018341,-1.9413452,1.5154908,0.3419678,3.906079,80.0
1450,-0.34615254,1.8018341,-1.9413452,1.989148,0.2347046,3.7701416,80.0
1451,0.12180853,1.6398544,-2.343029,1.989148,0.2347046,3.7701416,80.0
1452,0.12180853,1.6398544,-2.343029,2.3895264,0.271875,3.5513673,80.0
1453,0.6127057,1.4076996,-2.510521,2.3895264,0.271875,3.5513673,80.0
1454,0.6127057,1.4076996,-2.510521,2.6093628,0.35577393,3.2295778,80.0
1455,1.0001988,1.1698761,-2.4952316,2.6093628,0.35577393,3.2295778,80.0
1456,1.0001988,1.1698761,-2.4952316,2.633789,0.452417,2.8759277,80.0
1457,1.1943974,0.9979477,-2.34898,2.633789,0.452417,2.8759277,80.0
1458,1.1943974,0.9979477,-2.34898,2.541394,0.52038574,2.531836,80.0
1459,1.2172244,0.9183655,-2.0856056,2.541394,0.52038574,2.531836,80.0
1460,1.2172244,0.9183655,-2.0856056,2.4107666,0.542688,2.2312868,80.0
1461,1.2081544,0.9189453,-1.7535324,2.4107666,0.542688,2.2312868,80.0
1462,1.2081544,0.9189453,-1.7535324,2.2026124,0.60109866,2.0199463,80.0
1463,1.3517652,1.0226593,-1.4911804,2.2026124,0.60109866,2.0199463,80.0
1464,1.3517652,1.0226593,-1.4911804,1.7544434,0.6956177,1.897815,80.0
1465,1.6216707,1.246254,-1.3800888,1.7544434,0.6956177,1.897815,80.0
1466,1.6216707,1.246254,-1.3800888,1.1140503,0.6966797,1.8425903,80.0
1467,1.8314795,1.3713303,-1.340313,1.1140503,0.6966797,1.8425903,80.0
1468,1.8314795,1.3713303,-1.340313,0.45135498,0.634021,1.7289551,80.0
1469,2.035533,1.2107124,-1.2897911,0.45135498,0.634021,1.7289551,80.0
1470,2.035533,1.2107124,-1.2897911,-0.26019287,0.63826907,1.4931885,80.0
1471,2.3690271,1.0122375,-1.2945175,-0.26019287,0.63826907,1.4931885,80.0
1472,2.3690271,1.0122375,-1.2945175,-1.0768799,0.6223389,1.176709,80.0
1473,2.5356393,1.0184937,-1.3133011,-1.0768799,0.6223389,1.176709,80.0
1474,2.5356393,1.0184937,-1.3133011,-1.8818848,0.4959595,0.71154785,80.0
1475,2.1775107,0.92832184,-1.0438423,-1.8818848,0.4959595,0.71154785,80.0
1476,2.1775107,0.92832184,-1.0438423,-2.5902467,0.2516968,0.08920898,80.0
1477,1.4279218,0.31743622,-0.36400223,-2.5902467,0.2516968,0.08920898,80.0
1478,1.4279218,0.31743622,-0.36400223,-3.177539,0.011682129,-0.632959,80.0
1479,0.52827454,-0.78795624,0.47449493,-3.177539,0.011682129,-0.632959,80.0
1480,0.52827454,-0.78795624,0.47449493,-3.4536622,-0.32285157,-1.4071655,80.0
1481,-0.5221071,-1.8129807,1.2582321,-3.4536622,-0.32285157,-1.4071655,80.0
1482,-0.5221071,-1.8129807,1.2582321,-3.3315308,-0.6924316,-2.076233,80.0
1483,-1.4742532,-2.1089554,1.8580513,-3.3315308,-0.6924316,-2.076233,80.0
1484,-1.4742532,-2.1089554,1.8580513,-2.9492066,-1.0163453,-2.5955567,80.0
1485,-1.8943682,-1.5515671,2.1980896,-2.9492066,-1.0163453,-2.5955567,80.0
1486,-1.8943682,-1.5515671,2.1980896,-2.4012086,-1.3859253,-3.0469117,80.0
1487,-1.6411047,-0.68925095,2.2615204,-2.4012086,-1.3859253,-3.0469117,80.0
1488,-1.6411047,-0.68925095,2.2615204,-1.6885986,-1.7066529,-3.525879,80.0
1489,-0.9444027,-0.18003845,2.0630264,-1.6885986,-1.7066529,-3.525879,80.0
1490,-0.9444027,-0.18003845,2.0630264,-1.6885986,-1.7066529,-3.525879,81.0
1491,-0.9444027,-0.18003845,2.0630264,-0.95581055,-2.0475585,-4.0250244,81.0
1492,-0.1457076,-0.26531982,1.6988945,-0.95581055,-2.0475585,-4.0250244,81.0
1493,-0.1457076,-0.26531982,1.6988945,-0.31223145,-2.2812011,-4.52948,81.0
1494,0.43871927,-0.7963867,1.3086624,-0.31223145,-2.2812011,-4.52948,81.0
1495,0.43871927,-0.7963867,1.3086624,0.24532472,-2.3693483,-4.9447265,81.0
1496,0.31834602,-1.220993,1.0730515,0.24532472,-2.3693483,-4.9447265,81.0
1497,0.31834602,-1.220993,1.0730515,0.6669434,-2.450061,-5.162439,81.0
1498,-0.554564,-1.0479851,1.0326233,0.6669434,-2.450061,-5.162439,81.0
1499,-0.554564,-1.0479851,1.0326233,0.8952759,-2.5127199,-5.1804934,81.0
1500,-1.447753,-0.33947372,0.9474335,0.8952759,-2.5127199,-5.1804934,81.0
1501,-1.447753,-0.33947372,0.9474335,0.93138427,-2.4606812,-5.0190673,81.0
1502,-1.6497188,0.42573547,0.6256714,0.93138427,-2.4606812,-5.0190673,81.0
1503,-1.6497188,0.42573547,0.6256714,0.73703617,-2.1994264,-4.7620606,81.0
1504,-1.2744746,0.8255615,0.18292236,0.73703617,-2.1994264,-4.7620606,81.0
1505,-1.2744746,0.8255615,0.18292236,0.2814331,-1.8224121,-4.422217,81.0
1506,-0.9103389,0.7655144,-0.13158035,0.2814331,-1.8224121,-4.422217,81.0
1507,-0.9103389,0.7655144,-0.13158035,-0.5171997,-1.3689331,-3.891211,81.0
1508,-0.8912959,0.3435402,-0.3014679,-0.5171997,-1.3689331,-3.891211,81.0
1509,-0.8912959,0.3435402,-0.3014679,-1.6620483,-0.94412845,-3.0203614,81.0
1510,-1.168005,-0.46972275,-0.34226227,-1.6620483,-0.94412845,-3.0203614,81.0
1511,-1.168005,-0.46972275,-0.34226227,-2.2397828,-0.8506714,-2.2875733,81.0
1512,-1.3132491,-1.3929405,0.35660934,-2.2397828,-0.8506714,-2.2875733,81.0
1513,-1.3132491,-1.3929405,0.35660934,-2.4723632,-0.29205322,-1.4124756,81.0
1514,-0.9368298,-1.4203835,1.5852356,-2.4723632,-0.29205322,-1.4124756,81.0
1515,-0.9368298,-1.4203835,1.5852356,-2.8557496,0.15823975,-0.5150757,81.0
1516,-0.8333993,-0.4778824,2.2748795,-2.8557496,0.15823975,-0.5150757,81.0
1517,-0.8333993,-0.4778824,2.2748795,-3.3910034,0.19647217,0.14868164,81.0
1518,-1.8745441,0.16946411,2.2691345,-3.3910034,0.19647217,0.14868164,81.0
1519,-1.8745441,0.16946411,2.2691345,-3.787134,0.04141846,0.62764895,81.0
1520,-3.1862807,-0.14237213,2.0549812,-3.787134,0.04141846,0.62764895,81.0
1521,-3.1862807,-0.14237213,2.0549812,-3.8168702,0.029736329,0.84323734,81.0
1522,-3.6852307,-1.2788658,1.9731102,-3.8168702,0.029736329,0.84323734,81.0
1523,-3.6852307,-1.2788658,1.9731102,-3.342151,0.17416993,0.72854006,81.0
1524,-3.514066,-2.7607422,2.033409,-3.342151,0.17416993,0.72854006,81.0
1525,-3.514066,-2.7607422,2.033409,-2.5020998,-0.090270996,0.38763428,81.0
1526,-3.0498393,-4.0232162,2.1440735,-2.5020998,-0.090270996,0.38763428,81.0
1527,-3.0498393,-4.0232162,2.1440735,-1.178833,-0.47790527,0.059472658,81.0
1528,-1.7306429,-4.820587,1.9976807,-1.178833,-0.47790527,0.059472658,81.0
1529,-1.7306429,-4.820587,1.9976807,0.41312256,-0.022302246,-0.11469727,81.0
1530,0.5740062,-5.034134,1.0679321,0.41312256,-0.022302246,-0.11469727,81.0
1531,0.5740062,-5.034134,1.0679321,1.8691406,0.6711914,-0.090270996,81.0
1532,2.0890145,-4.255104,-0.4825592,1.8691406,0.6711914,-0.090270996,81.0
1533,2.0890145,-4.255104,-0.4825592,2.7389283,0.7986328,0.21558838,81.0
1534,1.5426838,-2.3091812,-1.4442749,2.7389283,0.7986328,0.21558838,81.0
1535,1.5426838,-2.3091812,-1.4442749,3.530127,0.67650145,0.58304447,81.0
1536,0.3428629,0.3834381,-1.3161278,3.530127,0.67650145,0.58304447,81.0
1537,0.3428629,0.3834381,-1.3161278,4.084497,0.67225343,1.2011353,81.0
1538,0.4883772,2.9036102,-0.97647095,4.084497,0.67225343,1.2011353,81.0
1539,0.4883772,2.9036102,-0.97647095,4.218311,1.1023682,1.7024049,81.0
1540,1.8882238,4.133301,-1.1300888,4.218311,1.1023682,1.7024049,81.0
1541,1.8882238,4.133301,-1.1300888,4.1322875,1.4209718,2.0741088,81.0
1542,3.1850176,3.96521,-1.712265,4.1322875,1.4209718,2.0741088,81.0
1543,3.1850176,3.96521,-1.712265,4.059009,1.7555054,2.4097047,81.0
1544,3.924479,3.293724,-2.466713,4.059009,1.7555054,2.4097047,81.0
1545,3.924479,3.293724,-2.466713,4.1152954,2.35448,2.7368042,81.0
1546,4.1902056,2.8867874,-3.195366,4.1152954,2.35448,2.7368042,81.0
1547,4.1902056,2.8867874,-3.195366,4.1768923,2.7463624,3.0723999,81.0
1548,3.6494179,2.950386,-3.534443,4.1768923,2.7463624,3.0723999,81.0
1549,3.6494179,2.950386,-3.534443,4.0983033,3.0044312,3.3761353,81.0
1550,2.4532866,3.2726746,-3.448269,4.0983033,3.0044312,3.3761353,81.0
1551,2.4532866,3.2726746,-3.448269,3.8402345,3.258252,3.6278322,81.0
1552,1.297883,3.4880981,-3.3145218,3.8402345,3.258252,3.6278322,81.0
1553,1.297883,3.4880981,-3.3145218,3.1828492,3.4685304,3.79563,81.0
1554,0.43920946,3.4142227,-3.2405472,3.1828492,3.4685304,3.79563,81.0
1555,0.43920946,3.4142227,-3.2405472,2.0401247,3.4695923,3.8763428,81.0
1556,-0.09374952,3.1216621,-2.931282,2.0401247,3.4695923,3.8763428,81.0
1557,-0.09374952,3.1216621,-2.931282,0.8071289,3.3113525,3.9283814,81.0
1558,-0.18463087,2.5118942,-2.2796822,0.8071289,3.3113525,3.9283814,81.0
1559,-0.18463087,2.5118942,-2.2796822,-0.08602295,3.1201904,3.8487306,81.0
1560,0.106506824,1.4407425,-1.505825,-0.08602295,3.1201904,3.8487306,81.0
1561,0.106506824,1.4407425,-1.505825,-0.7083618,2.913098,3.6416383,81.0
1562,0.47335243,0.26195908,-0.8301239,-0.7083618,2.913098,3.6416383,81.0
1563,0.47335243,0.26195908,-0.8301239,-1.1395386,2.721936,3.4079957,81.0
1564,0.63562775,-0.56191635,-0.4009781,-1.1395386,2.721936,3.4079957,81.0
1565,0.63562775,-0.56191635,-0.4009781,-1.2935303,2.5222778,3.1393068,81.0
1566,0.49813843,-0.95137787,-0.29788208,-1.2935303,2.5222778,3.1393068,81.0
1567,0.49813843,-0.95137787,-0.29788208,-1.1639649,2.2939453,2.8780518,81.0
1568,0.23116446,-1.0372849,-0.3867302,-1.1639649,2.2939453,2.8780518,81.0
1569,0.23116446,-1.0372849,-0.3867302,-0.8050049,2.071985,2.6348512,81.0
1570,0.13030529,-0.9529228,-0.41228867,-0.8050049,2.071985,2.6348512,81.0
1571,0.13030529,-0.9529228,-0.41228867,-0.4258667,1.8723267,2.3884645,81.0
1572,0.2708578,-0.80784607,-0.24158478,-0.4258667,1.8723267,2.3884645,81.0
1573,0.2708578,-0.80784607,-0.24158478,-0.16779785,1.6046997,2.1548219,81.0
1574,0.5105462,-0.72756195,0.12496948,-0.16779785,1.6046997,2.1548219,81.0
1575,0.5105462,-0.72756195,0.12496948,-0.08602295,1.2914063,1.8553345,81.0
1576,0.91102505,-0.6704521,0.47447586,-0.08602295,1.2914063,1.8553345,81.0
1577,0.91102505,-0.6704521,0.47447586,-0.20496826,0.99510497,1.4942505,81.0
1578,1.4629507,-0.458992,0.58174133,-0.20496826,0.99510497,1.4942505,81.0
1579,1.4629507,-0.458992,0.58174133,-0.35683593,0.64782715,1.0163453,81.0
1580,1.7384272,-0.2135315,0.578331,-0.35683593,0.64782715,1.0163453,81.0
1581,1.7384272,-0.2135315,0.578331,-0.52888185,0.3079834,0.4078125,81.0
1582,1.379365,-0.20612717,0.6793518,-0.52888185,0.3079834,0.4078125,81.0
1583,1.379365,-0.20612717,0.6793518,-0.92713624,-0.04248047,-0.32285157,81.0
1584,0.38193464,-0.33993912,0.8446274,-0.92713624,-0.04248047,-0.32285157,81.0
1585,0.38193464,-0.33993912,0.8446274,-1.5972656,-0.45560303,-1.0747559,81.0
1586,-0.92948675,-0.4155426,0.9504318,-1.5972656,-0.45560303,-1.0747559,81.0
1587,-0.92948675,-0.4155426,0.9504318,-2.1813722,-0.87191164,-1.7703736,81.0
1588,-2.0477028,-0.47304535,0.9580269,-2.1813722,-0.87191164,-1.7703736,81.0
1589,-2.0477028,-0.47304535,0.9580269,-2.5105958,-1.3073364,-2.443689,81.0
1590,-2.557303,-0.46717834,0.99785614,-2.5105958,-1.3073364,-2.443689,81.0
1591,-2.557303,-0.46717834,0.99785614,-2.7707887,-1.7501954,-3.1223145,81.0
1592,-2.557303,-0.46717834,0.99785614,-2.7707887,-1.7501954,-3.1223145,82.0
1593,-2.1459274,-0.24377441,1.1173782,-2.7707887,-1.7501954,-3.1223145,82.0
1594,-2.1459274,-0.24377441,1.1173782,-2.879114,-1.99552,-3.7733276,82.0
1595,-0.88790894,-0.045204163,1.22155,-2.879114,-1.99552,-3.7733276,82.0
1596,-0.88790894,-0.045204163,1.22155,-2.6698976,-2.250403,-4.4646974,82.0
1597,0.5505252,-0.18500519,1.2469444,-2.6698976,-2.250403,-4.4646974,82.0
1598,0.5505252,-0.18500519,1.2469444,-2.5137818,-2.3831544,-4.816223,82.0
1599,0.8340845,-0.29205704,1.1881561,-2.5137818,-2.3831544,-4.816223,82.0
1600,0.8340845,-0.29205704,1.1881561,-1.8670167,-2.6709595,-5.781592,82.0
1601,2.5542302,-1.0710983,0.8955574,-1.8670167,-2.6709595,-5.781592,82.0
1602,2.5542302,-1.0710983,0.8955574,-1.5473511,-2.7251222,-6.0162964,82.0
1603,2.0127811,-1.0466385,0.76403046,-1.5473511,-2.7251222,-6.0162964,82.0
1604,2.0127811,-1.0466385,0.76403046,-0.40993652,-2.975757,-6.3943725,82.0
1605,1.5522289,-1.0774956,0.7853203,-0.40993652,-2.975757,-6.3943725,82.0
1606,1.5522289,-1.0774956,0.7853203,0.033984374,-3.0564697,-6.400745,82.0
1607,0.5529041,-0.74399185,0.7782326,0.033984374,-3.0564697,-6.400745,82.0
1608,0.5529041,-0.74399185,0.7782326,1.5133667,-2.9513307,-5.9982424,82.0
1609,0.250185,-0.12258911,1.0624924,1.5133667,-2.9513307,-5.9982424,82.0
1610,0.250185,-0.12258911,1.0624924,1.8192261,-2.8291993,-5.7507935,82.0
1611,-0.10431957,0.096092224,0.7303276,1.8192261,-2.8291993,-5.7507935,82.0
1612,-0.10431957,0.096092224,0.7303276,0.47471926,-2.0156982,-4.629309,82.0
1613,0.03409767,0.9175339,-0.27095032,0.47471926,-2.0156982,-4.629309,82.0
1614,0.03409767,0.9175339,-0.27095032,-0.9133301,-1.539917,-4.0579467,82.0
1615,-0.57374716,0.86458206,-0.6720123,-0.9133301,-1.539917,-4.0579467,82.0
1616,-0.57374716,0.86458206,-0.6720123,-4.189636,-1.2627319,-2.7336183,82.0
1617,-2.11244,0.8546181,-0.47789383,-4.189636,-1.2627319,-2.7336183,82.0
1618,-2.11244,0.8546181,-0.47789383,-4.5740848,-1.1384766,-2.272705,82.0
1619,-2.0554185,0.35442352,0.8452606,-4.5740848,-1.1384766,-2.272705,82.0
1620,-2.0554185,0.35442352,0.8452606,-5.628662,-0.10301514,-0.89846194,82.0
1621,-1.1240954,0.3055954,2.9194336,-5.628662,-0.10301514,-0.89846194,82.0
