,accx,accy,accz,gyrox,gyroy,gyroz,heart rate
0,walk,walk,walk,walk,walk,walk,walk
1,2.3747802,-60.62577,42.41333,0.0,0.0,0.0,0.0
2,2.3747802,-60.62577,42.41333,-0.081774905,0.0637207,-0.1359375,0.0
3,2.0096388,-48.282513,33.88147,-0.081774905,0.0637207,-0.1359375,0.0
4,2.0096388,-48.282513,33.88147,-0.0637207,0.019116212,-0.05628662,0.0
5,1.6966759,-38.461216,27.119068,-0.0637207,0.019116212,-0.05628662,0.0
6,1.6966759,-38.461216,27.119068,-0.083898924,0.011682129,-0.07965088,0.0
7,1.6966759,-38.461216,27.119068,-0.083898924,0.011682129,-0.07965088,87.0
8,1.3896894,-30.793167,21.711208,-0.083898924,0.011682129,-0.07965088,87.0
9,1.3896894,-30.793167,21.711208,0.0,-0.025488282,-0.04460449,87.0
10,1.1241295,-24.710484,17.391953,0.0,-0.025488282,-0.04460449,87.0
11,1.1241295,-24.710484,17.391953,-0.010620117,-0.0021240234,-0.059472658,87.0
12,0.91442823,-19.780594,13.920799,-0.010620117,-0.0021240234,-0.059472658,87.0
13,0.91442823,-19.780594,13.920799,0.023364259,-0.028674318,-0.0180542,87.0
14,0.91442823,-19.780594,13.920799,-0.008496094,-0.004248047,0.015930176,87.0
15,0.76047325,-15.825661,11.12569,-0.008496094,-0.004248047,0.015930176,87.0
16,0.594609,-12.681854,8.900551,-0.008496094,-0.004248047,0.015930176,87.0
17,0.594609,-12.681854,8.900551,-0.015930176,-0.008496094,0.0053100586,87.0
18,0.43757677,-10.181267,7.1073685,-0.015930176,-0.008496094,0.0053100586,87.0
19,0.43757677,-10.181267,7.1073685,-0.0063720704,-0.025488282,-0.050976563,87.0
20,0.35344267,-8.140457,5.65242,-0.0063720704,-0.025488282,-0.050976563,87.0
21,0.35344267,-8.140457,5.65242,-0.016992187,-0.035046387,-0.06265869,87.0
22,0.32533216,-6.495178,4.5041275,-0.016992187,-0.035046387,-0.06265869,87.0
23,0.32533216,-6.495178,4.5041275,0.014868164,-0.043542482,-0.05522461,87.0
24,0.31181622,-5.16774,3.6146774,0.014868164,-0.043542482,-0.05522461,87.0
25,0.31181622,-5.16774,3.6146774,0.007434082,-0.016992187,-0.004248047,87.0
26,0.24798822,-4.0936127,2.9223824,0.007434082,-0.016992187,-0.004248047,87.0
27,0.24798822,-4.0936127,2.9223824,0.0031860352,-0.019116212,-0.03717041,87.0
28,0.1668477,-3.250412,2.3517838,0.0031860352,-0.019116212,-0.03717041,87.0
29,0.1668477,-3.250412,2.3517838,-0.009558106,-0.0180542,-0.07540283,87.0
30,0.1372745,-2.5791855,1.8527527,-0.009558106,-0.0180542,-0.07540283,87.0
31,0.1372745,-2.5791855,1.8527527,-0.022302246,-0.015930176,-0.08071289,87.0
32,0.12990022,-2.0635452,1.4352188,-0.022302246,-0.015930176,-0.08071289,87.0
33,0.12990022,-2.0635452,1.4352188,0.008496094,-0.026550293,-0.081774905,87.0
34,0.13204527,-1.6724777,1.121685,0.008496094,-0.026550293,-0.081774905,87.0
35,0.13204527,-1.6724777,1.121685,0.021240234,-0.029736329,-0.08814698,87.0
36,0.13728905,-1.3261795,0.88911057,0.021240234,-0.029736329,-0.08814698,87.0
37,0.13728905,-1.3261795,0.88911057,0.020178223,-0.04141846,-0.052038576,87.0
38,0.09652543,-1.0312805,0.6926346,0.020178223,-0.04141846,-0.052038576,87.0
39,0.09652543,-1.0312805,0.6926346,-0.013806152,-0.0541626,-0.070092775,87.0
40,0.097984314,-0.7814331,0.5028,-0.013806152,-0.0541626,-0.070092775,87.0
41,0.097984314,-0.7814331,0.5028,-0.05628662,-0.07646485,-0.0063720704,87.0
42,0.06321406,-0.66015625,0.34617233,-0.05628662,-0.07646485,-0.0063720704,87.0
43,0.06321406,-0.66015625,0.34617233,-0.07434082,-0.03079834,-0.040356446,87.0
44,-0.0017726421,-0.59210205,0.22482681,-0.07434082,-0.03079834,-0.040356446,87.0
45,-0.0017726421,-0.59210205,0.22482681,-0.045666505,-0.1274414,-0.019116212,87.0
46,0.0057840347,-0.47399902,0.12713623,-0.045666505,-0.1274414,-0.019116212,87.0
47,0.0057840347,-0.47399902,0.12713623,-0.19647217,-0.032922365,-0.09770508,87.0
48,0.04101658,-0.34584045,0.045215607,-0.19647217,-0.032922365,-0.09770508,87.0
49,0.04101658,-0.34584045,0.045215607,-0.038232423,-0.17841797,-0.039294433,87.0
50,0.15286922,-0.31546783,-0.0152282715,-0.038232423,-0.17841797,-0.039294433,87.0
51,0.15286922,-0.31546783,-0.0152282715,-0.09451904,-0.12319336,0.0053100586,87.0
52,0.22137976,-0.3113327,-0.016746521,-0.09451904,-0.12319336,0.0053100586,87.0
53,0.22137976,-0.3113327,-0.016746521,-0.04460449,-0.18160401,-0.03079834,87.0
54,0.17776299,-0.22903442,0.0590744,-0.04460449,-0.18160401,-0.03079834,87.0
55,0.17776299,-0.22903442,0.0590744,-0.08602295,-0.17416993,-0.039294433,87.0
56,0.13635111,-0.2197876,0.15935898,-0.08602295,-0.17416993,-0.039294433,87.0
57,0.13635111,-0.2197876,0.15935898,-0.30479738,-0.12850343,-0.08496094,87.0
58,-6.8438244,-3.019661,-5.07769,-0.30479738,-0.12850343,-0.08496094,87.0
59,-6.8438244,-3.019661,-5.07769,0.32709962,-0.31329346,-0.25913087,87.0
60,-5.5418687,-2.3418121,-4.035652,0.32709962,-0.31329346,-0.25913087,87.0
61,-5.5418687,-2.3418121,-4.035652,0.040356446,-0.20603028,0.121069334,87.0
62,-8.358055,-0.5115204,-10.177704,0.040356446,-0.20603028,0.121069334,87.0
63,-8.358055,-0.5115204,-10.177704,-0.29736328,-0.07540283,0.090270996,87.0
64,-2.9262762,-1.4822998,-1.5906601,-0.29736328,-0.07540283,0.090270996,87.0
65,-2.9262762,-1.4822998,-1.5906601,-0.093457036,-0.18903808,0.06690674,87.0
66,-2.9262762,-1.4822998,-1.5906601,-0.015930176,-0.22302246,-0.0010620117,87.0
67,-2.432183,-1.3974075,-1.3038254,-0.015930176,-0.22302246,-0.0010620117,87.0
68,-2.0061102,-1.1273727,-1.0335503,-0.015930176,-0.22302246,-0.0010620117,87.0
69,-2.0061102,-1.1273727,-1.0335503,-0.14018555,-0.19116211,-0.027612304,87.0
70,-1.6230645,-0.7763901,-0.9231186,-0.14018555,-0.19116211,-0.027612304,87.0
71,-1.6230645,-0.7763901,-0.9231186,-0.20072022,-0.25806886,-0.07965088,87.0
72,-1.3374896,-0.46709442,-0.95474243,-0.20072022,-0.25806886,-0.07965088,87.0
73,-1.3374896,-0.46709442,-0.95474243,-0.38551027,-0.33878174,-0.13912354,87.0
74,-1.1260953,-0.11035919,-1.1087875,-0.38551027,-0.33878174,-0.13912354,87.0
75,-1.1260953,-0.11035919,-1.1087875,-0.8379273,-0.45666504,-0.2081543,87.0
76,-0.96792984,0.33415985,-1.406929,-0.8379273,-0.45666504,-0.2081543,87.0
77,-0.96792984,0.33415985,-1.406929,-1.6057618,-0.60959476,-0.31435546,87.0
78,-0.7216215,0.6757126,-1.830265,-1.6057618,-0.60959476,-0.31435546,87.0
79,-0.7216215,0.6757126,-1.830265,-2.4702394,-0.7306641,-0.4322388,87.0
80,-0.3348899,0.6639786,-2.2573166,-2.4702394,-0.7306641,-0.4322388,87.0
81,-0.3348899,0.6639786,-2.2573166,-3.163733,-0.9143921,-0.57242435,87.0
82,0.07217598,0.38874054,-2.6039963,-3.163733,-0.9143921,-0.57242435,87.0
83,0.07217598,0.38874054,-2.6039963,-3.7478395,-1.0726318,-0.7497803,87.0
84,0.07217598,0.38874054,-2.6039963,-4.229993,-1.1448487,-0.96643066,87.0
85,0.41046286,0.06491089,-2.9004822,-4.229993,-1.1448487,-0.96643066,87.0
86,0.66826296,-0.16667175,-3.1982307,-4.229993,-1.1448487,-0.96643066,87.0
87,0.66826296,-0.16667175,-3.1982307,-4.5475345,-1.1692749,-1.2223755,87.0
88,0.8863802,-0.2659073,-3.492569,-4.5475345,-1.1692749,-1.2223755,87.0
89,0.8863802,-0.2659073,-3.492569,-4.6622314,-1.1459106,-1.4623902,87.0
90,1.1734233,-0.29094696,-3.727806,-4.6622314,-1.1459106,-1.4623902,87.0
91,1.1734233,-0.29094696,-3.727806,-4.5783324,-1.0917481,-1.6885986,87.0
92,1.5988705,-0.31715393,-3.8454132,-4.5783324,-1.0917481,-1.6885986,87.0
93,1.5988705,-0.31715393,-3.8454132,-4.2767215,-1.0184692,-1.896753,87.0
94,2.1498482,-0.42423248,-3.802784,-4.2767215,-1.0184692,-1.896753,87.0
95,2.1498482,-0.42423248,-3.802784,-3.7552736,-0.998291,-2.069861,87.0
96,2.8159356,-0.6049118,-3.5101357,-3.7552736,-0.998291,-2.069861,87.0
97,2.8159356,-0.6049118,-3.5101357,-3.1339967,-0.9600586,-2.2482789,87.0
98,3.4160175,-0.7838669,-2.8908005,-3.1339967,-0.9600586,-2.2482789,87.0
99,3.4160175,-0.7838669,-2.8908005,-2.4266968,-0.79119873,-2.347046,87.0
100,3.4869277,-0.9801483,-1.9736862,-2.4266968,-0.79119873,-2.347046,87.0
101,3.4869277,-0.9801483,-1.9736862,-1.5866455,-0.60322267,-2.3640382,87.0
102,2.7365637,-0.993248,-0.9181442,-1.5866455,-0.60322267,-2.3640382,87.0
103,2.7365637,-0.993248,-0.9181442,-0.66269535,-0.5872925,-2.2801392,87.0
104,1.5559624,-0.5498123,0.025627136,-0.66269535,-0.5872925,-2.2801392,87.0
105,1.5559624,-0.5498123,0.025627136,0.09239502,-0.68924564,-2.0380006,87.0
106,0.58954537,0.11647034,0.68501663,0.09239502,-0.68924564,-2.0380006,87.0
107,0.58954537,0.11647034,0.68501663,0.6138428,-0.7625244,-1.7820557,87.0
108,0.12164849,0.6536865,0.96899796,0.6138428,-0.7625244,-1.7820557,87.0
109,0.12164849,0.6536865,0.96899796,0.7412842,-0.74871826,-1.5611572,87.0
110,-0.033308655,0.9798126,0.851017,0.7412842,-0.74871826,-1.5611572,87.0
111,-0.033308655,0.9798126,0.851017,0.48109132,-0.61278075,-1.4241577,87.0
112,-0.14904684,1.1288528,0.41276932,0.48109132,-0.61278075,-1.4241577,87.0
113,-0.14904684,1.1288528,0.41276932,-0.098767094,-0.4598511,-1.3816773,87.0
114,-0.21032634,1.1062088,-0.15383148,-0.098767094,-0.4598511,-1.3816773,87.0
115,-0.21032634,1.1062088,-0.15383148,-0.68074954,-0.24851075,-1.3168945,87.0
116,-0.22838071,0.9029007,-0.6579056,-0.68074954,-0.24851075,-1.3168945,87.0
117,-0.22838071,0.9029007,-0.6579056,-0.98129886,-0.11363526,-1.2276856,87.0
118,-0.2362202,0.61518097,-1.0155449,-0.98129886,-0.11363526,-1.2276856,87.0
119,-0.2362202,0.61518097,-1.0155449,-1.2117554,-0.033984374,-1.1278565,87.0
120,-0.2362202,0.61518097,-1.0155449,-1.2117554,-0.033984374,-1.1278565,87.0
121,-0.14131992,0.33751678,-1.2093735,-1.2117554,-0.033984374,-1.1278565,87.0
122,-0.14131992,0.33751678,-1.2093735,-1.4039795,0.070092775,-1.0280274,87.0
123,0.04652658,0.0548172,-1.2266426,-1.4039795,0.070092775,-1.0280274,87.0
124,0.04652658,0.0548172,-1.2266426,-1.4623902,0.12850343,-0.90270996,87.0
125,0.18596396,-0.17424011,-1.1092796,-1.4623902,0.12850343,-0.90270996,87.0
126,0.18596396,-0.17424011,-1.1092796,-1.3264526,0.14655761,-0.75296634,87.0
127,0.20434979,-0.13153076,-0.9903908,-1.3264526,0.14655761,-0.75296634,87.0
128,0.20434979,-0.13153076,-0.9903908,-1.2404298,0.1359375,-0.6244629,87.0
129,0.14614585,0.22719574,-1.0472565,-1.2404298,0.1359375,-0.6244629,87.0
130,0.14614585,0.22719574,-1.0472565,-1.3232666,0.14124756,-0.48109132,87.0
131,0.13772967,0.50849915,-1.232338,-1.3232666,0.14124756,-0.48109132,87.0
132,0.13772967,0.50849915,-1.232338,-1.3338867,0.07752686,-0.3727661,87.0
133,0.29282534,0.46709442,-1.297493,-1.3338867,0.07752686,-0.3727661,87.0
134,0.29282534,0.46709442,-1.297493,-1.1448487,-0.03079834,-0.2782471,87.0
135,0.5263135,0.31466675,-1.1788864,-1.1448487,-0.03079834,-0.2782471,87.0
136,0.5263135,0.31466675,-1.1788864,-0.9228882,-0.1274414,-0.19116211,87.0
137,0.6920591,0.26898193,-1.0449142,-0.9228882,-0.1274414,-0.19116211,87.0
138,0.6920591,0.26898193,-1.0449142,-0.77739257,-0.21558838,-0.13806152,87.0
139,0.7595067,0.26293945,-0.99713516,-0.77739257,-0.21558838,-0.13806152,87.0
140,0.7595067,0.26293945,-0.99713516,-0.62977296,-0.29523927,-0.08920898,87.0
141,0.7241459,0.15771484,-0.93288803,-0.62977296,-0.29523927,-0.08920898,87.0
142,0.7241459,0.15771484,-0.93288803,-0.3525879,-0.39506838,-0.038232423,87.0
143,0.5803788,0.012161255,-0.7434654,-0.3525879,-0.39506838,-0.038232423,87.0
144,0.5803788,0.012161255,-0.7434654,-0.0010620117,-0.542688,0.04141846,87.0
145,0.46073866,-0.06994629,-0.4720688,-0.0010620117,-0.542688,0.04141846,87.0
146,0.46073866,-0.06994629,-0.4720688,0.33771974,-0.7327881,0.13275146,87.0
147,0.6476314,-0.15711212,-0.20301056,0.33771974,-0.7327881,0.13275146,87.0
148,0.6476314,-0.15711212,-0.20301056,0.7476563,-0.93138427,0.23895264,87.0
149,1.1192648,-0.36091614,0.019794464,0.7476563,-0.93138427,0.23895264,87.0
150,1.1192648,-0.36091614,0.019794464,1.1905152,-1.0152832,0.35683593,87.0
151,1.4388447,-0.6524048,0.2136879,1.1905152,-1.0152832,0.35683593,87.0
152,1.4388447,-0.6524048,0.2136879,1.6471802,-1.0290893,0.50020754,87.0
153,1.2128677,-0.8944702,0.37589264,1.6471802,-1.0290893,0.50020754,87.0
154,1.2128677,-0.8944702,0.37589264,2.1303957,-0.9791748,0.69986576,87.0
155,0.32263803,-0.79958344,0.39921188,2.1303957,-0.9791748,0.69986576,87.0
156,0.32263803,-0.79958344,0.39921188,2.4553711,-0.8209351,0.9685547,87.0
157,-1.1146069,-0.27300262,0.3200035,2.4553711,-0.8209351,0.9685547,87.0
158,-1.1146069,-0.27300262,0.3200035,2.6444092,-0.62764895,1.3307008,87.0
159,-2.5139756,0.35729218,0.32465363,2.6444092,-0.62764895,1.3307008,87.0
160,-2.5139756,0.35729218,0.32465363,2.6433473,-0.5787964,1.6057618,87.0
161,-2.8541858,0.71650696,0.4371643,2.6433473,-0.5787964,1.6057618,87.0
162,-2.8541858,0.71650696,0.4371643,2.1919923,-0.44604492,1.7586914,87.0
163,-1.8486319,0.6030884,0.5371208,2.1919923,-0.44604492,1.7586914,87.0
164,-1.8486319,0.6030884,0.5371208,1.6960328,-0.13806152,1.808606,87.0
165,-0.5779046,0.20654297,0.6567116,1.6960328,-0.13806152,1.808606,87.0
166,-0.5779046,0.20654297,0.6567116,1.4071655,0.18797608,1.7767457,87.0
167,-0.07442084,-0.09727478,0.7560959,1.4071655,0.18797608,1.7767457,87.0
168,-0.07442084,-0.09727478,0.7560959,0.99085695,0.42905274,1.6843506,87.0
169,-0.21092829,-0.2700348,0.60575485,0.99085695,0.42905274,1.6843506,87.0
170,-0.21092829,-0.2700348,0.60575485,0.61278075,0.60959476,1.5834595,87.0
171,-0.37694576,-0.38523102,0.1823349,0.61278075,0.60959476,1.5834595,87.0
172,-0.37694576,-0.38523102,0.1823349,0.51082766,0.721106,1.5420411,87.0
173,-0.3374941,-0.33798218,-0.24241257,0.51082766,0.721106,1.5420411,87.0
174,-0.3374941,-0.33798218,-0.24241257,0.51082766,0.7827026,1.5133667,87.0
175,-0.2045778,-0.06174469,-0.4602623,0.51082766,0.7827026,1.5133667,87.0
176,-0.2045778,-0.06174469,-0.4602623,0.34090576,0.84536135,1.44115,87.0
177,-0.16520034,0.244133,-0.48090363,0.34090576,0.84536135,1.44115,87.0
178,-0.16520034,0.244133,-0.48090363,0.035046387,0.903772,1.3466309,87.0
179,-0.3793893,0.37865448,-0.44812775,0.035046387,0.903772,1.3466309,87.0
180,-0.3793893,0.37865448,-0.44812775,-0.25806886,0.9260742,1.265918,87.0
181,-0.8495197,0.33586884,-0.47927856,-0.25806886,0.9260742,1.265918,87.0
182,-0.8495197,0.33586884,-0.47927856,-0.41312256,0.8782837,1.1841431,87.0
183,-1.3796158,0.26527405,-0.5755997,-0.41312256,0.8782837,1.1841431,87.0
184,-1.3796158,0.26527405,-0.5755997,-0.47471926,0.7975708,1.1023682,87.0
185,-1.7576478,0.25618744,-0.66231155,-0.47471926,0.7975708,1.1023682,87.0
186,-1.7576478,0.25618744,-0.66231155,-0.40462646,0.67437744,1.0375855,87.0
187,-1.896023,0.231781,-0.64803696,-0.40462646,0.67437744,1.0375855,87.0
188,-1.896023,0.231781,-0.64803696,-0.15717773,0.52038574,0.9526245,87.0
189,-1.8087008,0.17142487,-0.52495956,-0.15717773,0.52038574,0.9526245,87.0
190,-1.8087008,0.17142487,-0.52495956,0.13062744,0.40250245,0.82730716,87.0
191,-1.5860598,0.14285278,-0.39456558,0.13062744,0.40250245,0.82730716,87.0
192,-1.5860598,0.14285278,-0.39456558,0.35152587,0.33665773,0.6680054,87.0
193,-1.3538332,0.18058014,-0.3190956,0.35152587,0.33665773,0.6680054,87.0
194,-1.3538332,0.18058014,-0.3190956,0.45878908,0.3090454,0.45454103,87.0
195,-1.1446877,0.27729797,-0.24847794,0.45878908,0.3090454,0.45454103,87.0
196,-1.1446877,0.27729797,-0.24847794,0.43117675,0.271875,0.20390625,87.0
197,-0.77737117,0.32731628,-0.14994049,0.43117675,0.271875,0.20390625,87.0
198,-0.77737117,0.32731628,-0.14994049,0.31435546,0.18691407,-0.10938721,87.0
199,-0.036142588,0.21655273,-0.06641388,0.31435546,0.18691407,-0.10938721,87.0
200,-0.036142588,0.21655273,-0.06641388,0.16142578,0.098767094,-0.46622315,87.0
201,0.9156294,-0.050231934,-0.024604797,0.16142578,0.098767094,-0.46622315,87.0
202,0.9156294,-0.050231934,-0.024604797,-0.020178223,0.10195313,-0.8379273,87.0
203,1.5165002,-0.32118225,0.009113312,-0.020178223,0.10195313,-0.8379273,87.0
204,1.5165002,-0.32118225,0.009113312,-0.22408448,0.13275146,-1.171399,87.0
205,1.5325849,-0.46390533,0.06307602,-0.22408448,0.13275146,-1.171399,87.0
206,1.5325849,-0.46390533,0.06307602,-0.36427003,0.03186035,-1.4315919,87.0
207,1.5604308,-0.50450134,0.1833458,-0.36427003,0.03186035,-1.4315919,87.0
208,1.5604308,-0.50450134,0.1833458,-0.3695801,-0.26337892,-1.6811646,87.0
209,2.3992114,-0.6070938,0.44361115,-0.3695801,-0.26337892,-1.6811646,87.0
210,2.3992114,-0.6070938,0.44361115,-0.26975098,-0.5097656,-1.9328613,87.0
211,3.768283,-0.81747437,0.7559509,-0.26975098,-0.5097656,-1.9328613,87.0
212,3.768283,-0.81747437,0.7559509,-0.20072022,-0.4428589,-2.1442018,87.0
213,3.768283,-0.81747437,0.7559509,-0.20072022,-0.4428589,-2.1442018,86.0
214,4.086684,-0.83903503,0.79057693,-0.20072022,-0.4428589,-2.1442018,86.0
215,4.086684,-0.83903503,0.79057693,-0.47578126,-0.010620117,-2.1994264,86.0
216,2.1528192,-0.4626007,0.57240295,-0.47578126,-0.010620117,-2.1994264,86.0
217,2.1528192,-0.4626007,0.57240295,-1.0014771,0.30161133,-2.081543,86.0
218,-1.0966899,0.115501404,0.52869797,-1.0014771,0.30161133,-2.081543,86.0
219,-1.0966899,0.115501404,0.52869797,-1.3338867,0.14868164,-1.8202881,86.0
220,-3.2221274,0.53712463,1.0269012,-1.3338867,0.14868164,-1.8202881,86.0
221,-3.2221274,0.53712463,1.0269012,-1.1374146,-0.3058594,-1.5080566,86.0
222,-2.8271282,0.46216583,1.7715683,-1.1374146,-0.3058594,-1.5080566,86.0
223,-2.8271282,0.46216583,1.7715683,-0.5161377,-0.50870365,-1.1862671,86.0
224,-1.0884849,-0.00617218,1.9524231,-0.5161377,-0.50870365,-1.1862671,86.0
225,-1.0884849,-0.00617218,1.9524231,0.05522461,-0.44923097,-0.88359374,86.0
226,0.13442451,-0.30493927,1.1127663,0.05522461,-0.44923097,-0.88359374,86.0
227,0.13442451,-0.30493927,1.1127663,0.24638672,-0.34833986,-0.6149048,86.0
228,0.4338702,-0.08696747,-0.3243637,0.24638672,-0.34833986,-0.6149048,86.0
229,0.4338702,-0.08696747,-0.3243637,0.045666505,-0.11257324,-0.41524658,86.0
230,0.27724755,0.48921204,-1.3733826,0.045666505,-0.11257324,-0.41524658,86.0
231,0.27724755,0.48921204,-1.3733826,-0.35152587,0.1263794,-0.30161133,86.0
232,0.010885,1.085434,-1.5385017,-0.35152587,0.1263794,-0.30161133,86.0
233,0.010885,1.085434,-1.5385017,-0.8623535,0.31010744,-0.21134034,86.0
234,-0.25568408,1.2620926,-1.0916061,-0.8623535,0.31010744,-0.21134034,86.0
235,-0.25568408,1.2620926,-1.0916061,-1.3349488,0.40356445,-0.1444336,86.0
236,-0.4723451,0.95988464,-0.6237984,-1.3349488,0.40356445,-0.1444336,86.0
237,-0.4723451,0.95988464,-0.6237984,-1.6567383,0.33665773,-0.0637207,86.0
238,-0.5337477,0.5878906,-0.49765778,-1.6567383,0.33665773,-0.0637207,86.0
239,-0.5337477,0.5878906,-0.49765778,-1.8563966,0.24213867,-0.05628662,86.0
240,-0.4409752,0.29100037,-0.6335144,-1.8563966,0.24213867,-0.05628662,86.0
241,-0.4409752,0.29100037,-0.6335144,-1.9689697,0.17523193,-0.16567384,86.0
242,-0.2803192,-0.14061737,-0.7109604,-1.9689697,0.17523193,-0.16567384,86.0
243,-0.2803192,-0.14061737,-0.7109604,-1.7363892,0.08920898,-0.24001466,86.0
244,-0.13189697,-0.65039825,-0.5248604,-1.7363892,0.08920898,-0.24001466,86.0
245,-0.13189697,-0.65039825,-0.5248604,-1.1607789,-0.026550293,-0.362146,86.0
246,0.037451148,-0.83019257,-0.13918686,-1.1607789,-0.026550293,-0.362146,86.0
247,0.037451148,-0.83019257,-0.13918686,-0.62340087,-0.095581055,-0.45666504,86.0
248,0.17678714,-0.60720825,0.10538483,-0.62340087,-0.095581055,-0.45666504,86.0
249,0.17678714,-0.60720825,0.10538483,-0.16779785,-0.1274414,-0.5703003,86.0
250,0.009081125,-0.21577454,0.0023498535,-0.16779785,-0.1274414,-0.5703003,86.0
251,0.009081125,-0.21577454,0.0023498535,0.21452637,-0.16354981,-0.5533081,86.0
252,-0.45854318,0.15769196,-0.22811127,0.21452637,-0.16354981,-0.5533081,86.0
253,-0.45854318,0.15769196,-0.22811127,0.52888185,-0.26337892,-0.46516114,86.0
254,-0.7217295,0.41304016,-0.30536652,0.52888185,-0.26337892,-0.46516114,86.0
255,-0.7217295,0.41304016,-0.30536652,0.7688965,-0.43117675,-0.36851808,86.0
256,-0.21522534,0.46203613,-0.16070175,0.7688965,-0.43117675,-0.36851808,86.0
257,-0.21522534,0.46203613,-0.16070175,0.90270996,-0.5766724,-0.29523927,86.0
258,1.1097412,0.16847992,0.059829712,0.90270996,-0.5766724,-0.29523927,86.0
259,1.1097412,0.16847992,0.059829712,0.9451904,-0.6531372,-0.26019287,86.0
260,2.6989014,-0.37186432,0.17358398,0.9451904,-0.6531372,-0.26019287,86.0
261,2.6989014,-0.37186432,0.17358398,0.9759888,-0.6605713,-0.23364258,86.0
262,3.869851,-0.8832474,0.13985443,0.9759888,-0.6605713,-0.23364258,86.0
263,3.869851,-0.8832474,0.13985443,1.0195312,-0.6265869,-0.18160401,86.0
264,4.302046,-1.1888504,0.13679886,1.0195312,-0.6265869,-0.18160401,86.0
265,4.302046,-1.1888504,0.13679886,1.1682129,-0.61278075,-0.023364259,86.0
266,3.8649154,-1.1830368,0.3886757,1.1682129,-0.61278075,-0.023364259,86.0
267,3.8649154,-1.1830368,0.3886757,1.3020264,-0.40993652,0.20178223,86.0
268,2.3539805,-0.7819977,0.83953094,1.3020264,-0.40993652,0.20178223,86.0
269,2.3539805,-0.7819977,0.83953094,1.1342286,-0.2442627,0.42905274,86.0
270,-0.059125185,-0.20156097,1.0600166,1.1342286,-0.2442627,0.42905274,86.0
271,-0.059125185,-0.20156097,1.0600166,0.8262451,-0.09133301,0.69986576,86.0
272,-2.6330912,0.21224976,0.75302887,0.8262451,-0.09133301,0.69986576,86.0
273,-2.6330912,0.21224976,0.75302887,0.81987303,-0.08920898,1.083252,86.0
274,-4.2838655,0.32756805,0.1985054,0.81987303,-0.08920898,1.083252,86.0
275,-4.2838655,0.32756805,0.1985054,1.1098022,-0.37489015,1.449646,86.0
276,-4.0198174,0.2484436,-0.22765732,1.1098022,-0.37489015,1.449646,86.0
277,-4.0198174,0.2484436,-0.22765732,1.4347779,-0.5097656,1.6609863,86.0
278,-2.2838714,0.103881836,-0.42089462,1.4347779,-0.5097656,1.6609863,86.0
279,-2.2838714,0.103881836,-0.42089462,1.629126,-0.23045655,1.7385132,86.0
280,-0.8190404,-0.081100464,-0.38594437,1.629126,-0.23045655,1.7385132,86.0
281,-0.8190404,-0.081100464,-0.38594437,1.6939087,0.035046387,1.7289551,86.0
282,-0.4127763,-0.27745056,-0.19683075,1.6939087,0.035046387,1.7289551,86.0
283,-0.4127763,-0.27745056,-0.19683075,1.63125,0.18479005,1.5781494,86.0
284,-0.4512049,-0.28985596,-0.0032539368,1.63125,0.18479005,1.5781494,86.0
285,-0.4512049,-0.28985596,-0.0032539368,1.4804443,0.30161133,1.3954834,86.0
286,-0.34947705,-0.053367615,0.12113953,1.4804443,0.30161133,1.3954834,86.0
287,-0.34947705,-0.053367615,0.12113953,1.2393677,0.4598511,1.2935303,86.0
288,-0.23465979,0.26054382,0.19594574,1.2393677,0.4598511,1.2935303,86.0
289,-0.23465979,0.26054382,0.19594574,0.811377,0.5851685,1.2043213,86.0
290,-0.3574056,0.4899063,0.21442413,0.811377,0.5851685,1.2043213,86.0
291,-0.3574056,0.4899063,0.21442413,0.22833252,0.6573853,1.1437867,86.0
292,-0.66725993,0.55054474,0.15380096,0.22833252,0.6573853,1.1437867,86.0
293,-0.66725993,0.55054474,0.15380096,-0.32178956,0.6956177,1.1129884,86.0
294,-1.022907,0.4775238,0.0037651062,-0.32178956,0.6956177,1.1129884,86.0
295,-1.022907,0.4775238,0.0037651062,-0.6881836,0.6754395,1.1193603,86.0
296,-1.3292632,0.38063812,-0.23534393,-0.6881836,0.6754395,1.1193603,86.0
297,-1.3292632,0.38063812,-0.23534393,-0.8517334,0.6064087,1.1225464,86.0
298,-1.505122,0.3085022,-0.49140167,-0.8517334,0.6064087,1.1225464,86.0
299,-1.505122,0.3085022,-0.49140167,-0.84323734,0.51932377,1.1066163,86.0
300,-1.5667806,0.24364471,-0.6934166,-0.84323734,0.51932377,1.1066163,86.0
301,-1.5667806,0.24364471,-0.6934166,-0.6669434,0.44923097,1.0683838,86.0
302,-1.5553899,0.20250702,-0.7547226,-0.6669434,0.44923097,1.0683838,86.0
303,-1.5553899,0.20250702,-0.7547226,-0.3971924,0.36639404,1.0046631,86.0
304,-1.4797978,0.23490906,-0.69672394,-0.3971924,0.36639404,1.0046631,86.0
305,-1.4797978,0.23490906,-0.69672394,-0.1178833,0.25063476,0.8889038,86.0
306,-1.1817999,0.31236267,-0.5793381,-0.1178833,0.25063476,0.8889038,86.0
307,-1.1817999,0.31236267,-0.5793381,0.10301514,0.08496094,0.6510132,86.0
308,-0.4502616,0.32035065,-0.41601944,0.10301514,0.08496094,0.6510132,86.0
309,-0.4502616,0.32035065,-0.41601944,0.24001466,-0.093457036,0.27612305,86.0
310,0.6128254,0.12451935,-0.20162582,0.24001466,-0.093457036,0.27612305,86.0
311,0.6128254,0.12451935,-0.20162582,0.30373535,-0.18903808,-0.18691407,86.0
312,1.5606828,-0.27334595,0.035575867,0.30373535,-0.18903808,-0.18691407,86.0
313,1.5606828,-0.27334595,0.035575867,0.26019287,-0.19434814,-0.65844727,86.0
314,1.9801502,-0.67601776,0.33552933,0.26019287,-0.19434814,-0.65844727,86.0
315,1.9801502,-0.67601776,0.33552933,0.16673584,-0.18903808,-1.0790039,86.0
316,2.114357,-0.877594,0.82320786,0.16673584,-0.18903808,-1.0790039,86.0
317,2.114357,-0.877594,0.82320786,0.26975098,-0.42374268,-1.4262818,86.0
318,2.6991396,-0.83719635,1.2059288,0.26975098,-0.42374268,-1.4262818,86.0
319,2.6991396,-0.83719635,1.2059288,0.41312256,-0.6085327,-1.6779785,86.0
320,3.6533668,-0.63383484,1.242466,0.41312256,-0.6085327,-1.6779785,86.0
321,3.6533668,-0.63383484,1.242466,0.32497558,-0.45029297,-1.8563966,86.0
322,3.6664557,-0.40496826,1.143547,0.32497558,-0.45029297,-1.8563966,86.0
323,3.6664557,-0.40496826,1.143547,-0.098767094,0.043542482,-1.905249,86.0
324,1.7578106,-0.17691803,1.1754684,-0.098767094,0.043542482,-1.905249,86.0
325,1.7578106,-0.17691803,1.1754684,-0.5915405,0.28461915,-1.7788696,86.0
326,1.7578106,-0.17691803,1.1754684,-0.5915405,0.28461915,-1.7788696,86.0
327,-0.98590237,0.16680145,1.4377747,-0.5915405,0.28461915,-1.7788696,86.0
328,-0.98590237,0.16680145,1.4377747,-0.8496094,0.11682129,-1.4995606,86.0
329,-2.530531,0.4951706,1.7777214,-0.8496094,0.11682129,-1.4995606,86.0
330,-2.530531,0.4951706,1.7777214,-0.76358646,-0.11257324,-1.1660889,86.0
331,-2.3553452,0.57616425,1.7310753,-0.76358646,-0.11257324,-1.1660889,86.0
332,-2.3553452,0.57616425,1.7310753,-0.44604492,-0.15186767,-0.77526855,86.0
333,-1.5694079,0.5000992,0.89761734,-0.44604492,-0.15186767,-0.77526855,86.0
334,-1.5694079,0.5000992,0.89761734,-0.21346436,-0.046728518,-0.45029297,86.0
335,-1.1548917,0.5908127,-0.43125916,-0.21346436,-0.046728518,-0.45029297,86.0
336,-1.1548917,0.5908127,-0.43125916,-0.39294434,0.20284425,-0.24957275,86.0
337,-1.1413084,0.86377716,-1.5124397,-0.39294434,0.20284425,-0.24957275,86.0
338,-1.1413084,0.86377716,-1.5124397,-0.8400513,0.36851808,-0.13912354,86.0
339,-1.0404027,0.98308563,-1.9710732,-0.8400513,0.36851808,-0.13912354,86.0
340,-1.0404027,0.98308563,-1.9710732,-1.2021973,0.4725952,-0.15823975,86.0
341,-0.63395786,0.92251587,-1.9192543,-1.2021973,0.4725952,-0.15823975,86.0
342,-0.63395786,0.92251587,-1.9192543,-1.6089478,0.5734863,-0.18054199,86.0
343,-0.18215406,0.7411957,-1.5774574,-1.6089478,0.5734863,-0.18054199,86.0
344,-0.18215406,0.7411957,-1.5774574,-1.9509156,0.5787964,-0.26125488,86.0
345,0.1315229,0.3131256,-1.1313515,-1.9509156,0.5787964,-0.26125488,86.0
346,0.1315229,0.3131256,-1.1313515,-2.0422485,0.50233155,-0.3971924,86.0
347,0.34319448,-0.22257996,-0.77310944,-2.0422485,0.50233155,-0.3971924,86.0
348,0.34319448,-0.22257996,-0.77310944,-2.090039,0.49489745,-0.5543701,86.0
349,0.38900876,-0.61932373,-0.57554245,-2.090039,0.49489745,-0.5543701,86.0
350,0.38900876,-0.61932373,-0.57554245,-2.0985353,0.48533937,-0.79969484,86.0
351,0.2540903,-0.8207321,-0.47869492,-2.0985353,0.48533937,-0.79969484,86.0
352,0.2540903,-0.8207321,-0.47869492,-1.8755127,0.4163086,-0.9366943,86.0
353,0.09002769,-0.8490906,-0.38726425,-1.8755127,0.4163086,-0.9366943,86.0
354,0.09002769,-0.8490906,-0.38726425,-1.4082276,0.27506104,-0.9759888,86.0
355,0.0025274754,-0.6441879,-0.2918167,-1.4082276,0.27506104,-0.9759888,86.0
356,0.0025274754,-0.6441879,-0.2918167,-0.77951664,0.11151123,-0.9611206,86.0
357,0.034858942,-0.22264099,-0.2680359,-0.77951664,0.11151123,-0.9611206,86.0
358,0.034858942,-0.22264099,-0.2680359,-0.25806886,-0.0541626,-0.8464233,86.0
359,0.14425683,0.112716675,-0.35229492,-0.25806886,-0.0541626,-0.8464233,86.0
360,0.14425683,0.112716675,-0.35229492,0.1178833,-0.115759276,-0.70305175,86.0
361,0.15627468,0.22276306,-0.4710312,0.1178833,-0.115759276,-0.70305175,86.0
362,0.15627468,0.22276306,-0.4710312,0.37595215,-0.21877442,-0.5097656,86.0
363,0.18953395,0.31443024,-0.525383,0.37595215,-0.21877442,-0.5097656,86.0
364,0.18953395,0.31443024,-0.525383,0.45878908,-0.3355957,-0.34940186,86.0
365,0.5815222,0.3662796,-0.4535942,0.45878908,-0.3355957,-0.34940186,86.0
366,0.5815222,0.3662796,-0.4535942,0.38232422,-0.4354248,-0.24001466,86.0
367,1.3699541,0.108306885,-0.213974,0.38232422,-0.4354248,-0.24001466,86.0
368,1.3699541,0.108306885,-0.213974,0.33240968,-0.48109132,-0.1996582,86.0
369,2.1913857,-0.38620758,0.07720947,0.33240968,-0.48109132,-0.1996582,86.0
370,2.1913857,-0.38620758,0.07720947,0.30373535,-0.4885254,-0.2177124,86.0
371,2.755965,-0.7711258,0.27511978,0.30373535,-0.4885254,-0.2177124,86.0
372,2.755965,-0.7711258,0.27511978,0.25700685,-0.6042847,-0.26868898,86.0
373,3.1730826,-1.0521088,0.38850403,0.25700685,-0.6042847,-0.26868898,86.0
374,3.1730826,-1.0521088,0.38850403,0.39294434,-0.6796875,-0.2516968,86.0
375,3.2849872,-1.3114395,0.54509354,0.39294434,-0.6796875,-0.2516968,86.0
376,3.2849872,-1.3114395,0.54509354,0.76677245,-0.53950197,-0.19541016,86.0
377,2.290722,-1.2552643,0.6990738,0.76677245,-0.53950197,-0.19541016,86.0
378,2.290722,-1.2552643,0.6990738,1.0397094,-0.3430298,-0.026550293,86.0
379,0.034201145,-0.8122101,0.60824585,1.0397094,-0.3430298,-0.026550293,86.0
380,0.034201145,-0.8122101,0.60824585,1.2414917,-0.35152587,0.26762697,86.0
381,-2.2266307,-0.30617523,0.31500244,1.2414917,-0.35152587,0.26762697,86.0
382,-2.2266307,-0.30617523,0.31500244,1.5983276,-0.56180423,0.6552612,86.0
383,-2.957208,0.03907776,0.09301758,1.5983276,-0.56180423,0.6552612,86.0
384,-2.957208,0.03907776,0.09301758,2.090039,-0.7688965,1.0067872,86.0
385,-2.1116405,0.15883636,0.04221344,2.090039,-0.7688965,1.0067872,86.0
386,-2.1116405,0.15883636,0.04221344,2.4861696,-0.6403931,1.2924683,86.0
387,-1.1708553,0.08942413,0.09902954,2.4861696,-0.6403931,1.2924683,86.0
388,-1.1708553,0.08942413,0.09902954,2.642285,-0.39188233,1.4379638,86.0
389,-1.060024,-0.006340027,0.20422363,2.642285,-0.39188233,1.4379638,86.0
390,-1.060024,-0.006340027,0.20422363,2.5562623,-0.27399904,1.5027466,86.0
391,-1.2091398,-0.012054443,0.33480072,2.5562623,-0.27399904,1.5027466,86.0
392,-1.2091398,-0.012054443,0.33480072,2.3651001,-0.1178833,1.5208008,86.0
393,-1.0710229,0.07324982,0.5356865,2.3651001,-0.1178833,1.5208008,86.0
394,-1.0710229,0.07324982,0.5356865,2.247217,0.1083252,1.5547851,86.0
395,-0.90371776,0.2484436,0.81022644,2.247217,0.1083252,1.5547851,86.0
396,-0.90371776,0.2484436,0.81022644,1.9848999,0.271875,1.5834595,86.0
397,-0.91582084,0.49145508,0.97104263,1.9848999,0.271875,1.5834595,86.0
398,-0.91582084,0.49145508,0.97104263,1.44646,0.4343628,1.5855836,86.0
399,-1.0535307,0.67152405,0.8562889,1.44646,0.4343628,1.5855836,86.0
400,-1.0535307,0.67152405,0.8562889,0.81668705,0.58304447,1.5877075,86.0
401,-1.197915,0.7274399,0.55381775,0.81668705,0.58304447,1.5877075,86.0
402,-1.197915,0.7274399,0.55381775,0.2623169,0.6701294,1.5675293,86.0
403,-1.2670722,0.68413544,0.20350266,0.2623169,0.6701294,1.5675293,86.0
404,-1.2670722,0.68413544,0.20350266,-0.16567384,0.7540283,1.5144287,86.0
405,-1.2769389,0.5681839,-0.09844208,-0.16567384,0.7540283,1.5144287,86.0
406,-1.2769389,0.5681839,-0.09844208,-0.50020754,0.79332274,1.4209718,86.0
407,-1.2342587,0.40761566,-0.29667282,-0.50020754,0.79332274,1.4209718,86.0
408,-1.2342587,0.40761566,-0.29667282,-0.68287355,0.7827026,1.263794,86.0
409,-1.0900435,0.22911072,-0.41164398,-0.68287355,0.7827026,1.263794,86.0
410,-1.0900435,0.22911072,-0.41164398,-0.7327881,0.7858887,1.088562,86.0
411,-1.008888,0.10424805,-0.5078316,-0.7327881,0.7858887,1.088562,86.0
412,-1.008888,0.10424805,-0.5078316,-0.68924564,0.79332274,0.90802,86.0
413,-1.109735,0.1295929,-0.59337616,-0.68924564,0.79332274,0.90802,86.0
414,-1.109735,0.1295929,-0.59337616,-0.6467652,0.6956177,0.7083618,86.0
415,-1.0326245,0.24263,-0.6543999,-0.6467652,0.6956177,0.7083618,86.0
416,-1.0326245,0.24263,-0.6543999,-0.5809204,0.48109132,0.42268068,86.0
417,-0.37868738,0.22783661,-0.63461685,-0.5809204,0.48109132,0.42268068,86.0
418,-0.37868738,0.22783661,-0.63461685,-0.42799073,0.2782471,0.07752686,86.0
419,0.6810589,-0.03427124,-0.42848206,-0.42799073,0.2782471,0.07752686,86.0
420,0.6810589,-0.03427124,-0.42848206,-0.20603028,0.121069334,-0.2803711,86.0
421,1.6205552,-0.34952545,-0.0725708,-0.20603028,0.121069334,-0.2803711,86.0
422,1.6205552,-0.34952545,-0.0725708,-0.1263794,0.11469727,-0.6180908,86.0
423,1.6205552,-0.34952545,-0.0725708,-0.1263794,0.11469727,-0.6180908,87.0
424,1.9112024,-0.416008,0.404274,-0.1263794,0.11469727,-0.6180908,87.0
425,1.9112024,-0.416008,0.404274,-0.17947999,0.16354981,-0.8889038,87.0
426,1.8291328,-0.2000351,0.7734566,-0.17947999,0.16354981,-0.8889038,87.0
427,1.8291328,-0.2000351,0.7734566,-0.24851075,-0.11469727,-1.1586548,87.0
428,2.3859868,0.050849915,0.732254,-0.24851075,-0.11469727,-1.1586548,87.0
429,2.3859868,0.050849915,0.732254,-0.3695801,-0.30054933,-1.44646,87.0
430,3.470533,0.03086853,0.5286255,-0.3695801,-0.30054933,-1.44646,87.0
431,3.470533,0.03086853,0.5286255,-0.4980835,-0.070092775,-1.6981567,87.0
432,3.324986,-0.15505219,0.5337906,-0.4980835,-0.070092775,-1.6981567,87.0
433,3.324986,-0.15505219,0.5337906,-0.7975708,0.45560303,-1.7746216,87.0
434,1.2199497,-0.13270569,0.8186226,-0.7975708,0.45560303,-1.7746216,87.0
435,1.2199497,-0.13270569,0.8186226,-1.0747559,0.35046387,-1.7735596,87.0
436,-0.9684617,0.17264557,1.1060829,-1.0747559,0.35046387,-1.7735596,87.0
437,-0.9684617,0.17264557,1.1060829,-1.1172364,0.10407715,-1.5951416,87.0
438,-1.6637098,0.46988678,1.2323761,-1.1172364,0.10407715,-1.5951416,87.0
439,-1.6637098,0.46988678,1.2323761,-0.9366943,0.07646485,-1.3307008,87.0
440,-1.4109117,0.4421234,1.1349869,-0.9366943,0.07646485,-1.3307008,87.0
441,-1.4109117,0.4421234,1.1349869,-0.5097656,0.007434082,-1.0779419,87.0
442,-1.1376039,0.2683487,0.5624466,-0.5097656,0.007434082,-1.0779419,87.0
443,-1.1376039,0.2683487,0.5624466,-0.19753419,-0.0180542,-0.88040775,87.0
444,-0.98325205,0.34992218,-0.41732788,-0.19753419,-0.0180542,-0.88040775,87.0
445,-0.98325205,0.34992218,-0.41732788,-0.24851075,0.1178833,-0.7625244,87.0
446,-0.86987805,0.6463165,-1.268116,-0.24851075,0.1178833,-0.7625244,87.0
447,-0.86987805,0.6463165,-1.268116,-0.52038574,0.2824951,-0.73597413,87.0
448,-0.6871866,0.7531128,-1.3856735,-0.52038574,0.2824951,-0.73597413,87.0
449,-0.6871866,0.7531128,-1.3856735,-0.72960204,0.35046387,-0.7593384,87.0
450,-0.58156085,0.8606186,-1.3681717,-0.72960204,0.35046387,-0.7593384,87.0
451,-0.58156085,0.8606186,-1.3681717,-1.4772583,0.5299439,-0.96643066,87.0
452,-0.32749224,0.73872375,-1.1507263,-1.4772583,0.5299439,-0.96643066,87.0
453,-0.32749224,0.73872375,-1.1507263,-1.6970948,0.5586182,-1.0567017,87.0
454,-0.0964787,0.14460754,-0.9334831,-1.6970948,0.5586182,-1.0567017,87.0
455,-0.0964787,0.14460754,-0.9334831,-2.2440307,0.544812,-1.265918,87.0
456,0.1373434,0.11769867,-0.910923,-2.2440307,0.544812,-1.265918,87.0
457,0.1373434,0.11769867,-0.910923,-2.3077514,0.5214478,-1.3498169,87.0
458,0.63878095,-0.6850052,-0.8228073,-2.3077514,0.5214478,-1.3498169,87.0
459,0.63878095,-0.6850052,-0.8228073,-2.0964112,0.47578126,-1.5685914,87.0
460,0.7985126,-0.67479706,-0.720562,-2.0964112,0.47578126,-1.5685914,87.0
461,0.7985126,-0.67479706,-0.720562,-1.8500245,0.4630371,-1.5749635,87.0
462,0.79068995,-1.0991364,-0.4826393,-1.8500245,0.4630371,-1.5749635,87.0
463,0.79068995,-1.0991364,-0.4826393,-0.8793457,0.30054933,-1.540979,87.0
464,0.6670612,-0.8424835,-0.37436676,-0.8793457,0.30054933,-1.540979,87.0
465,0.6670612,-0.8424835,-0.37436676,-0.56180423,0.21027832,-1.4868164,87.0
466,0.6359683,-0.3916397,-0.17387009,-0.56180423,0.21027832,-1.4868164,87.0
467,0.6359683,-0.3916397,-0.17387009,0.16036378,0.03079834,-1.2117554,87.0
468,0.63907254,-0.24235535,-0.099494934,0.16036378,0.03079834,-1.2117554,87.0
469,0.63907254,-0.24235535,-0.099494934,0.31435546,0.007434082,-1.0970582,87.0
470,0.6384553,0.10256195,-0.043159485,0.31435546,0.007434082,-1.0970582,87.0
471,0.6384553,0.10256195,-0.043159485,0.54587406,-0.18160401,-0.6903076,87.0
472,0.6080543,0.12975311,0.01845169,0.54587406,-0.18160401,-0.6903076,87.0
473,0.6080543,0.12975311,0.01845169,0.5809204,-0.26762697,-0.542688,87.0
474,1.6004449,0.297287,0.24411774,0.5809204,-0.26762697,-0.542688,87.0
475,1.6004449,0.297287,0.24411774,0.61915284,-0.33771974,-0.13062744,87.0
476,1.7782319,0.16173553,0.2961235,0.61915284,-0.33771974,-0.13062744,87.0
477,1.7782319,0.16173553,0.2961235,0.5649902,-0.31116945,0.007434082,87.0
478,2.2125025,0.036567688,0.2131195,0.5649902,-0.31116945,0.007434082,87.0
479,2.2125025,0.036567688,0.2131195,0.32816163,-0.2538208,0.26337892,87.0
480,2.2252145,-0.03768921,0.02935791,0.32816163,-0.2538208,0.26337892,87.0
481,2.2252145,-0.03768921,0.02935791,0.19541016,-0.37489015,0.50233155,87.0
482,2.353829,-0.15224457,0.076660156,0.19541016,-0.37489015,0.50233155,87.0
483,2.353829,-0.15224457,0.076660156,0.23045655,-0.362146,0.724292,87.0
484,2.3466618,-0.30358124,0.27293777,0.23045655,-0.362146,0.724292,87.0
485,2.3466618,-0.30358124,0.27293777,0.32285157,-0.26444092,0.86978763,87.0
486,0.79070854,-0.37641144,0.41312408,0.32285157,-0.26444092,0.86978763,87.0
487,0.79070854,-0.37641144,0.41312408,0.47578126,-0.14868164,1.0460815,87.0
488,-0.2870865,-0.36125946,0.3411064,0.47578126,-0.14868164,1.0460815,87.0
489,-0.2870865,-0.36125946,0.3411064,0.6265869,-0.27718505,1.1246704,87.0
490,-2.0586243,-0.49752808,0.010044098,0.6265869,-0.27718505,1.1246704,87.0
491,-2.0586243,-0.49752808,0.010044098,1.6673584,-0.60959476,1.3402588,87.0
492,-1.8551759,-0.6813812,0.02260971,1.6673584,-0.60959476,1.3402588,87.0
493,-1.8551759,-0.6813812,0.02260971,2.0741088,-0.5734863,1.3859253,87.0
494,-1.5170753,-0.77840424,0.025375366,2.0741088,-0.5734863,1.3859253,87.0
495,-1.5170753,-0.77840424,0.025375366,2.715564,-0.48746338,1.4645141,87.0
496,-1.6133673,-0.67111206,0.16805267,2.715564,-0.48746338,1.4645141,87.0
497,-1.6133673,-0.67111206,0.16805267,3.0458496,-0.44604492,1.5282348,87.0
498,-1.8688799,-0.42219543,0.30551147,3.0458496,-0.44604492,1.5282348,87.0
499,-1.8688799,-0.42219543,0.30551147,3.2476318,-0.35471192,1.6131958,87.0
500,-1.7544057,-0.12729645,0.49622726,3.2476318,-0.35471192,1.6131958,87.0
501,-1.7544057,-0.12729645,0.49622726,3.2901123,-0.16461182,1.6832886,87.0
502,-1.3718352,0.2539749,0.76010513,3.2901123,-0.16461182,1.6832886,87.0
503,-1.3718352,0.2539749,0.76010513,2.9502685,0.11363526,1.7119629,87.0
504,-1.1034251,0.6858368,0.90488815,2.9502685,0.11363526,1.7119629,87.0
505,-1.1034251,0.6858368,0.90488815,2.2153566,0.38869628,1.6896607,87.0
506,-1.0853403,0.88710785,0.87594986,2.2153566,0.38869628,1.6896607,87.0
507,-1.0853403,0.88710785,0.87594986,1.3338867,0.6085327,1.6110718,87.0
508,-1.1420271,0.8073273,0.6586952,1.3338867,0.6085327,1.6110718,87.0
509,-1.1420271,0.8073273,0.6586952,0.5320679,0.7327881,1.5186768,87.0
510,-1.1352403,0.52259827,0.37160873,0.5320679,0.7327881,1.5186768,87.0
511,-1.1352403,0.52259827,0.37160873,-0.029736329,0.7986328,1.4273437,87.0
512,-1.069972,0.20579529,0.08230972,-0.029736329,0.7986328,1.4273437,87.0
513,-1.069972,0.20579529,0.08230972,-0.40037844,0.8092529,1.3073364,87.0
514,-0.9705162,-0.05657959,-0.12697601,-0.40037844,0.8092529,1.3073364,87.0
515,-0.9705162,-0.05657959,-0.12697601,-0.6159668,0.7582764,1.1544068,87.0
516,-0.8091645,-0.27892303,-0.2799263,-0.6159668,0.7582764,1.1544068,87.0
517,-0.8091645,-0.27892303,-0.2799263,-0.62340087,0.70942384,0.9717407,87.0
518,-0.7180958,-0.44981384,-0.3871994,-0.62340087,0.70942384,0.9717407,87.0
519,-0.7180958,-0.44981384,-0.3871994,-0.48746338,0.70092773,0.8028809,87.0
520,-0.88084865,-0.42651367,-0.40821075,-0.48746338,0.70092773,0.8028809,87.0
521,-0.88084865,-0.42651367,-0.40821075,-0.3355957,0.64782715,0.635083,87.0
522,-1.1642492,-0.17802429,-0.36595917,-0.3355957,0.64782715,0.635083,87.0
523,-1.1642492,-0.17802429,-0.36595917,-0.23258057,0.5214478,0.4619751,87.0
524,-1.1642492,-0.17802429,-0.36595917,-0.23258057,0.5214478,0.4619751,87.0
525,-1.0955472,0.05290222,-0.23306274,-0.23258057,0.5214478,0.4619751,87.0
526,-1.0955472,0.05290222,-0.23306274,-0.081774905,0.3355957,0.26550293,87.0
527,-0.35844445,0.03678131,0.01921463,-0.081774905,0.3355957,0.26550293,87.0
528,-0.35844445,0.03678131,0.01921463,0.14655761,0.14655761,0.015930176,87.0
529,0.69490933,-0.17044067,0.2823143,0.14655761,0.14655761,0.015930176,87.0
530,0.69490933,-0.17044067,0.2823143,0.32285157,0.14230958,-0.24744873,87.0
531,1.3016918,-0.25382233,0.3921585,0.32285157,0.14230958,-0.24744873,87.0
532,1.3016918,-0.25382233,0.3921585,0.2623169,0.15611573,-0.5012695,87.0
533,1.4117758,-0.08875275,0.3086853,0.2623169,0.15611573,-0.5012695,87.0
534,1.4117758,-0.08875275,0.3086853,0.033984374,0.027612304,-0.7625244,87.0
535,1.8331804,-0.010848999,0.2599373,0.033984374,0.027612304,-0.7625244,87.0
536,1.8331804,-0.010848999,0.2599373,-0.06584473,-0.16567384,-1.0513916,87.0
537,2.8614173,-0.22859192,0.5195236,-0.06584473,-0.16567384,-1.0513916,87.0
538,2.8614173,-0.22859192,0.5195236,-0.04460449,-0.17416993,-1.3062744,87.0
539,3.6155622,-0.3154297,0.82408905,-0.04460449,-0.17416993,-1.3062744,87.0
540,3.6155622,-0.3154297,0.82408905,-0.41949463,0.07540283,-1.4443359,87.0
541,2.9868712,0.0052948,0.73654175,-0.41949463,0.07540283,-1.4443359,87.0
542,2.9868712,0.0052948,0.73654175,-1.176709,0.32178956,-1.5133667,87.0
543,1.1492627,0.35343933,0.5064354,-1.176709,0.32178956,-1.5133667,87.0
544,1.1492627,0.35343933,0.5064354,-1.6843506,0.34833986,-1.4284058,87.0
545,-0.73190826,0.47157288,0.5520859,-1.6843506,0.34833986,-1.4284058,87.0
546,-0.73190826,0.47157288,0.5520859,-1.7300171,0.3079834,-1.2138795,87.0
547,-2.0359416,0.52986145,0.8451233,-1.7300171,0.3079834,-1.2138795,87.0
548,-2.0359416,0.52986145,0.8451233,-1.4793824,0.1985962,-0.97386473,87.0
549,-2.6575742,0.6353226,0.9418831,-1.4793824,0.1985962,-0.97386473,87.0
550,-2.6575742,0.6353226,0.9418831,-1.2329956,0.0021240234,-0.8092529,87.0
551,-2.4497044,0.71720886,0.4199257,-1.2329956,0.0021240234,-0.8092529,87.0
552,-2.4497044,0.71720886,0.4199257,-1.0906861,-0.06159668,-0.7083618,87.0
553,-1.6259623,0.6629257,-0.57273865,-1.0906861,-0.06159668,-0.7083618,87.0
554,-1.6259623,0.6629257,-0.57273865,-0.96430665,0.050976563,-0.7041138,87.0
555,-0.802076,0.59308624,-1.3994751,-0.96430665,0.050976563,-0.7041138,87.0
556,-0.802076,0.59308624,-1.3994751,-0.9770508,0.17523193,-0.7688965,87.0
557,-0.24727607,0.69932556,-1.6603394,-0.9770508,0.17523193,-0.7688965,87.0
558,-0.24727607,0.69932556,-1.6603394,-1.2563599,0.270813,-0.9154541,87.0
559,0.23688376,0.7713852,-1.4298706,-1.2563599,0.270813,-0.9154541,87.0
560,0.23688376,0.7713852,-1.4298706,-1.6461182,0.4056885,-1.1129884,87.0
561,0.65298355,0.5489807,-1.048378,-1.6461182,0.4056885,-1.1129884,87.0
562,0.65298355,0.5489807,-1.048378,-1.9169312,0.4970215,-1.3413209,87.0
563,0.8102896,0.1620636,-0.7623215,-1.9169312,0.4970215,-1.3413209,87.0
564,0.8102896,0.1620636,-0.7623215,-2.0326905,0.48746338,-1.4836304,87.0
565,0.70029473,-0.12297058,-0.58805466,-2.0326905,0.48746338,-1.4836304,87.0
566,0.70029473,-0.12297058,-0.58805466,-1.9519776,0.43117675,-1.5866455,87.0
567,0.4925478,-0.28012848,-0.40384293,-1.9519776,0.43117675,-1.5866455,87.0
568,0.4925478,-0.28012848,-0.40384293,-1.6801026,0.33665773,-1.6981567,87.0
569,0.38424826,-0.42036438,-0.12550354,-1.6801026,0.33665773,-1.6981567,87.0
570,0.38424826,-0.42036438,-0.12550354,-1.2202514,0.22196046,-1.7640015,87.0
571,0.48963737,-0.5838394,0.19374847,-1.2202514,0.22196046,-1.7640015,87.0
572,0.48963737,-0.5838394,0.19374847,-0.59897465,0.09770508,-1.7671875,87.0
573,0.7069931,-0.6933975,0.36714554,-0.59897465,0.09770508,-1.7671875,87.0
574,0.7069931,-0.6933975,0.36714554,0.0021240234,-0.0021240234,-1.7109009,87.0
575,0.8326477,-0.5699005,0.24137497,0.0021240234,-0.0021240234,-1.7109009,87.0
576,0.8326477,-0.5699005,0.24137497,0.30479738,0.0,-1.5643433,87.0
577,0.6505054,-0.21382141,-0.07778549,0.30479738,0.0,-1.5643433,87.0
578,0.6505054,-0.21382141,-0.07778549,0.3982544,0.028674318,-1.360437,87.0
579,0.31195706,0.192482,-0.27690125,0.3982544,0.028674318,-1.360437,87.0
580,0.31195706,0.192482,-0.27690125,0.43754885,-0.08496094,-1.1342286,87.0
581,0.48240256,0.39993286,-0.23207855,0.43754885,-0.08496094,-1.1342286,87.0
582,0.48240256,0.39993286,-0.23207855,0.43967286,-0.22727051,-0.903772,87.0
583,1.392221,0.26039124,-0.19534302,0.43967286,-0.22727051,-0.903772,87.0
584,1.392221,0.26039124,-0.19534302,0.36533204,-0.2262085,-0.6945557,87.0
585,2.3721874,-0.16432953,-0.38630295,0.36533204,-0.2262085,-0.6945557,87.0
586,2.3721874,-0.16432953,-0.38630295,0.24213867,-0.1178833,-0.42692873,87.0
587,2.6925743,-0.5831833,-0.6781235,0.24213867,-0.1178833,-0.42692873,87.0
588,2.6925743,-0.5831833,-0.6781235,0.16354981,-0.10407715,-0.13487549,87.0
589,2.5266669,-0.7015686,-0.67788696,0.16354981,-0.10407715,-0.13487549,87.0
590,2.5266669,-0.7015686,-0.67788696,0.18054199,-0.20178223,0.1996582,87.0
591,2.3339067,-0.46429443,-0.3507805,0.18054199,-0.20178223,0.1996582,87.0
592,2.3339067,-0.46429443,-0.3507805,0.11044922,-0.19753419,0.4354248,87.0
593,1.9672475,-0.18245697,-0.039741516,0.11044922,-0.19753419,0.4354248,87.0
594,1.9672475,-0.18245697,-0.039741516,0.04248047,-0.20178223,0.634021,87.0
595,0.9829166,-0.17489624,0.028705597,0.04248047,-0.20178223,0.634021,87.0
596,0.9829166,-0.17489624,0.028705597,0.14974366,-0.14337158,0.7943848,87.0
597,-0.67838836,-0.3348236,-0.08325958,0.14974366,-0.14337158,0.7943848,87.0
598,-0.67838836,-0.3348236,-0.08325958,0.49171144,-0.35577393,0.994043,87.0
599,-2.068724,-0.4987793,-0.23707962,0.49171144,-0.35577393,0.994043,87.0
600,-2.068724,-0.4987793,-0.23707962,1.0970582,-0.6605713,1.170337,87.0
601,-2.298082,-0.7942505,-0.29423904,1.0970582,-0.6605713,1.170337,87.0
602,-2.298082,-0.7942505,-0.29423904,2.0220704,-0.83898926,1.3317627,87.0
603,-1.7415053,-1.1904526,-0.17967987,2.0220704,-0.83898926,1.3317627,87.0
604,-1.7415053,-1.1904526,-0.17967987,3.0426636,-0.8666016,1.4931885,87.0
605,-1.2930578,-1.3445358,0.033416748,3.0426636,-0.8666016,1.4931885,87.0
606,-1.2930578,-1.3445358,0.033416748,3.80625,-0.84748536,1.6705445,87.0
607,-1.087205,-1.1047897,0.37374115,3.80625,-0.84748536,1.6705445,87.0
608,-1.087205,-1.1047897,0.37374115,4.3276978,-0.7540283,1.8744507,87.0
609,-0.6634774,-0.6181488,0.7816467,4.3276978,-0.7540283,1.8744507,87.0
610,-0.6634774,-0.6181488,0.7816467,4.4880614,-0.53950197,2.0040162,87.0
611,0.010416746,0.053611755,1.03368,4.4880614,-0.53950197,2.0040162,87.0
612,0.010416746,0.053611755,1.03368,4.053699,-0.12319336,2.0528686,87.0
613,0.33885098,0.75442505,1.0816078,4.053699,-0.12319336,2.0528686,87.0
614,0.33885098,0.75442505,1.0816078,3.0139892,0.3536499,2.0188844,87.0
615,-0.050171733,1.1188354,1.0694122,3.0139892,0.3536499,2.0188844,87.0
616,-0.050171733,1.1188354,1.0694122,1.7926759,0.6945557,1.9636596,87.0
617,-0.8621467,1.0212402,1.0369987,1.7926759,0.6945557,1.9636596,87.0
618,-0.8621467,1.0212402,1.0369987,0.7720825,0.83898926,1.9541016,87.0
619,-1.584505,0.65828705,0.87470245,0.7720825,0.83898926,1.9541016,87.0
620,-1.584505,0.65828705,0.87470245,0.083898924,0.8931519,1.987024,87.0
621,-2.0120986,0.30728912,0.5811348,0.083898924,0.8931519,1.987024,87.0
622,-2.0120986,0.30728912,0.5811348,-0.3802002,0.89421386,1.996582,87.0
623,-2.1941028,0.08640289,0.25282288,-0.3802002,0.89421386,1.996582,87.0
624,-2.1941028,0.08640289,0.25282288,-0.66481936,0.817749,1.9764038,87.0
625,-2.1543422,-0.11300659,-0.07147217,-0.66481936,0.817749,1.9764038,87.0
626,-2.1543422,-0.11300659,-0.07147217,-0.71791995,0.71367186,1.9116211,87.0
627,-1.9424924,-0.32836914,-0.34998703,-0.71791995,0.71367186,1.9116211,87.0
628,-1.9424924,-0.32836914,-0.34998703,-0.50020754,0.60959476,1.808606,87.0
629,-1.9424924,-0.32836914,-0.34998703,-0.50020754,0.60959476,1.808606,88.0
630,-1.7129538,-0.38841248,-0.5309677,-0.50020754,0.60959476,1.808606,88.0
631,-1.7129538,-0.38841248,-0.5309677,-0.18266602,0.50870365,1.6673584,88.0
632,-1.5373309,-0.22110748,-0.5737114,-0.18266602,0.50870365,1.6673584,88.0
633,-1.5373309,-0.22110748,-0.5737114,0.11044922,0.40250245,1.4836304,88.0
634,-1.3219666,-0.012016296,-0.45505142,0.11044922,0.40250245,1.4836304,88.0
635,-1.3219666,-0.012016296,-0.45505142,0.37382814,0.271875,1.2287476,88.0
636,-0.83878684,0.0710907,-0.18535614,0.37382814,0.271875,1.2287476,88.0
637,-0.83878684,0.0710907,-0.18535614,0.58304447,0.09664307,0.8889038,88.0
638,0.11174631,0.015182495,0.15977097,0.58304447,0.09664307,0.8889038,88.0
639,0.11174631,0.015182495,0.15977097,0.7072998,-0.057348635,0.5033936,88.0
640,1.2343433,-0.12225342,0.42837906,0.7072998,-0.057348635,0.5033936,88.0
641,1.2343433,-0.12225342,0.42837906,0.69986576,0.010620117,0.15186767,88.0
642,1.6186635,-0.13596344,0.54758453,0.69986576,0.010620117,0.15186767,88.0
643,1.6186635,-0.13596344,0.54758453,0.45347902,0.18585205,-0.1529297,88.0
644,1.0615934,0.146698,0.5876541,0.45347902,0.18585205,-0.1529297,88.0
645,1.0615934,0.146698,0.5876541,0.07540283,-0.04460449,-0.4619751,88.0
646,0.7742748,0.39970398,0.6271286,0.07540283,-0.04460449,-0.4619751,88.0
647,0.7742748,0.39970398,0.6271286,-0.25913087,-0.23364258,-0.7306641,88.0
648,1.129918,0.29328918,0.85891724,-0.25913087,-0.23364258,-0.7306641,88.0
649,1.129918,0.29328918,0.85891724,-0.452417,-0.13699952,-0.96643066,88.0
650,0.88702774,0.14161682,1.2649307,-0.452417,-0.13699952,-0.96643066,88.0
651,0.88702774,0.14161682,1.2649307,-0.8209351,-0.053100586,-1.1140503,88.0
652,-0.33050227,0.22621918,1.4011536,-0.8209351,-0.053100586,-1.1140503,88.0
653,-0.33050227,0.22621918,1.4011536,-1.2489258,-0.21877442,-1.2000732,88.0
654,-1.4500341,0.207901,1.3302612,-1.2489258,-0.21877442,-1.2000732,88.0
655,-1.4500341,0.207901,1.3302612,-1.1278565,-0.3982544,-1.2457398,88.0
656,-1.8848565,-0.16304016,1.5203133,-1.1278565,-0.3982544,-1.2457398,88.0
657,-1.8848565,-0.16304016,1.5203133,-0.45666504,-0.55968016,-1.2202514,88.0
658,-1.9692743,-0.5415268,1.9084282,-0.45666504,-0.55968016,-1.2202514,88.0
659,-1.9692743,-0.5415268,1.9084282,0.23151855,-0.72216797,-1.1894531,88.0
660,-1.9121993,-0.612381,1.914402,0.23151855,-0.72216797,-1.1894531,88.0
661,-1.9121993,-0.612381,1.914402,0.635083,-0.7890747,-1.2043213,88.0
662,-1.5394883,-0.41965485,1.2359161,0.635083,-0.7890747,-1.2043213,88.0
663,-1.5394883,-0.41965485,1.2359161,0.76464844,-0.7625244,-1.2361816,88.0
664,-0.8434558,-0.095962524,0.20180511,0.76464844,-0.7625244,-1.2361816,88.0
665,-0.8434558,-0.095962524,0.20180511,0.634021,-0.6202149,-1.264856,88.0
666,-0.13699627,0.27490234,-0.66500854,0.634021,-0.6202149,-1.264856,88.0
667,-0.13699627,0.27490234,-0.66500854,0.2803711,-0.43117675,-1.355127,88.0
668,0.33057642,0.5130234,-1.066639,0.2803711,-0.43117675,-1.355127,88.0
669,0.33057642,0.5130234,-1.066639,-0.1901001,-0.30267334,-1.4666382,88.0
670,0.6847615,0.36811066,-1.0031509,-0.1901001,-0.30267334,-1.4666382,88.0
671,0.6847615,0.36811066,-1.0031509,-0.59472656,-0.17947999,-1.5346069,88.0
672,0.9854803,-0.11504364,-0.6588211,-0.59472656,-0.17947999,-1.5346069,88.0
673,0.9854803,-0.11504364,-0.6588211,-0.9281983,-0.08283692,-1.5537232,88.0
674,1.1395319,-0.6695175,-0.31480026,-0.9281983,-0.08283692,-1.5537232,88.0
675,1.1395319,-0.6695175,-0.31480026,-1.1575928,-0.050976563,-1.5707153,88.0
676,1.1587081,-1.1119308,-0.15315628,-1.1575928,-0.050976563,-1.5707153,88.0
677,1.1587081,-1.1119308,-0.15315628,-1.1841431,-0.013806152,-1.5823975,88.0
678,1.069984,-1.3828049,-0.06570053,-1.1841431,-0.013806152,-1.5823975,88.0
679,1.069984,-1.3828049,-0.06570053,-1.0471436,0.019116212,-1.5569092,88.0
680,0.8965757,-1.4731979,0.07762909,-1.0471436,0.019116212,-1.5569092,88.0
681,0.8965757,-1.4731979,0.07762909,-0.79226077,0.010620117,-1.4931885,88.0
682,0.7567991,-1.3476028,0.07046509,-0.79226077,0.010620117,-1.4931885,88.0
683,0.7567991,-1.3476028,0.07046509,-0.5649902,-0.012744141,-1.3986695,88.0
684,0.68255115,-1.085434,-0.20643234,-0.5649902,-0.012744141,-1.3986695,88.0
685,0.68255115,-1.085434,-0.20643234,-0.3525879,0.0,-1.2478638,88.0
686,0.5056968,-0.89865875,-0.4968109,-0.3525879,0.0,-1.2478638,88.0
687,0.5056968,-0.89865875,-0.4968109,-0.10195313,0.008496094,-1.0662597,88.0
688,0.30237234,-0.78974915,-0.6185684,-0.10195313,0.008496094,-1.0662597,88.0
689,0.30237234,-0.78974915,-0.6185684,0.16142578,-0.1083252,-0.85704345,88.0
690,0.5595126,-0.71595,-0.60914993,0.16142578,-0.1083252,-0.85704345,88.0
691,0.5595126,-0.71595,-0.60914993,0.4354248,-0.23364258,-0.62977296,88.0
692,1.4242215,-0.7396469,-0.5961685,0.4354248,-0.23364258,-0.62977296,88.0
693,1.4242215,-0.7396469,-0.5961685,0.6180908,-0.22939454,-0.4078125,88.0
694,2.3025975,-0.86457825,-0.6608963,0.6180908,-0.22939454,-0.4078125,88.0
695,2.3025975,-0.86457825,-0.6608963,0.7051758,-0.20390625,-0.15505372,88.0
696,2.6547732,-0.9256363,-0.78242874,0.7051758,-0.20390625,-0.15505372,88.0
697,2.6547732,-0.9256363,-0.78242874,0.7041138,-0.20178223,0.15186767,88.0
698,2.5724392,-0.7558899,-0.76587296,0.7041138,-0.20178223,0.15186767,88.0
699,2.5724392,-0.7558899,-0.76587296,0.7604004,-0.3451538,0.45666504,88.0
700,2.555803,-0.4393463,-0.49270248,0.7604004,-0.3451538,0.45666504,88.0
701,2.555803,-0.4393463,-0.49270248,0.8219971,-0.5097656,0.73703617,88.0
702,2.6066542,-0.23513794,-0.18460464,0.8219971,-0.5097656,0.73703617,88.0
703,2.6066542,-0.23513794,-0.18460464,0.80181885,-0.42374268,0.903772,88.0
704,1.7957847,-0.24357605,0.0033416748,0.80181885,-0.42374268,0.903772,88.0
705,1.7957847,-0.24357605,0.0033416748,0.83474123,-0.31223145,1.0407715,88.0
706,-0.25902653,-0.32167816,0.16701508,0.83474123,-0.31223145,1.0407715,88.0
707,-0.25902653,-0.32167816,0.16701508,1.1204224,-0.48533937,1.2329956,88.0
708,-2.4487863,-0.28079224,0.2671814,1.1204224,-0.48533937,1.2329956,88.0
709,-2.4487863,-0.28079224,0.2671814,1.6609863,-0.7986328,1.4294678,88.0
710,-3.3676596,-0.19766235,0.33467865,1.6609863,-0.7986328,1.4294678,88.0
711,-3.3676596,-0.19766235,0.33467865,2.3969605,-1.0503296,1.5494751,88.0
712,-2.946227,-0.32817078,0.5458183,2.3969605,-1.0503296,1.5494751,88.0
713,-2.946227,-0.32817078,0.5458183,3.2083375,-1.0524536,1.6068238,88.0
714,-2.2934198,-0.58023834,0.8973732,3.2083375,-1.0524536,1.6068238,88.0
715,-2.2934198,-0.58023834,0.8973732,3.9156373,-1.0120972,1.629126,88.0
716,-1.9241524,-0.58548737,1.1935959,3.9156373,-1.0120972,1.629126,88.0
717,-1.9241524,-0.58548737,1.1935959,4.308582,-0.9897949,1.6939087,88.0
718,-1.4100007,-0.22618866,1.3708305,4.308582,-0.9897949,1.6939087,88.0
719,-1.4100007,-0.22618866,1.3708305,4.5401,-0.8241211,1.7321411,88.0
720,-0.6540625,0.3132782,1.5774994,4.5401,-0.8241211,1.7321411,88.0
721,-0.6540625,0.3132782,1.5774994,4.6463013,-0.5320679,1.7427613,88.0
722,-0.11668265,0.93922424,1.8442612,4.6463013,-0.5320679,1.7427613,88.0
723,-0.11668265,0.93922424,1.8442612,4.37124,-0.15505372,1.7119629,88.0
724,-0.11063123,1.5619125,2.0596275,4.37124,-0.15505372,1.7119629,88.0
725,-0.11063123,1.5619125,2.0596275,3.6108398,0.21558838,1.63125,88.0
726,-0.46680093,1.9382324,2.1405106,3.6108398,0.21558838,1.63125,88.0
727,-0.46680093,1.9382324,2.1405106,2.6295412,0.5150757,1.536731,88.0
728,-0.8785554,1.9130783,2.081501,2.6295412,0.5150757,1.536731,88.0
729,-0.8785554,1.9130783,2.081501,1.7321411,0.74659425,1.4910644,88.0
730,-1.244983,1.5956268,1.8703537,1.7321411,0.74659425,1.4910644,88.0
731,-1.244983,1.5956268,1.8703537,0.9855469,0.8612915,1.454956,88.0
732,-1.5337915,1.1930771,1.4875908,0.9855469,0.8612915,1.454956,88.0
733,-1.5337915,1.1930771,1.4875908,0.36320803,0.91864014,1.4135376,88.0
734,-1.6798043,0.8126526,0.9668045,0.36320803,0.91864014,1.4135376,88.0
735,-1.6798043,0.8126526,0.9668045,-0.08814698,0.92501223,1.3891114,88.0
736,-1.676656,0.46639252,0.46128464,-0.08814698,0.92501223,1.3891114,88.0
737,-1.676656,0.46639252,0.46128464,-0.26125488,0.8623535,1.3668091,88.0
738,-1.5515542,0.19029236,0.09077835,-0.26125488,0.8623535,1.3668091,88.0
739,-1.5515542,0.19029236,0.09077835,-0.21027832,0.7720825,1.3179566,88.0
740,-1.3622642,0.068237305,-0.11862564,-0.21027832,0.7720825,1.3179566,88.0
741,-1.3622642,0.068237305,-0.11862564,-0.07965088,0.67331547,1.260608,88.0
742,-1.1027384,0.110069275,-0.19131088,-0.07965088,0.67331547,1.260608,88.0
743,-1.1027384,0.110069275,-0.19131088,0.08602295,0.5278198,1.1915772,88.0
744,-0.5896859,0.20655823,-0.08669281,0.08602295,0.5278198,1.1915772,88.0
745,-0.5896859,0.20655823,-0.08669281,0.3154175,0.31860352,1.0959961,88.0
746,-0.5896859,0.20655823,-0.08669281,0.3154175,0.31860352,1.0959961,89.0
747,0.29018974,0.2652588,0.19210815,0.3154175,0.31860352,1.0959961,89.0
748,0.29018974,0.2652588,0.19210815,0.5278198,0.18160401,1.0078491,89.0
749,1.0035508,0.3646164,0.44135666,0.5278198,0.18160401,1.0078491,89.0
750,1.0035508,0.3646164,0.44135666,0.6042847,0.27399904,0.94731444,89.0
751,0.7467005,0.6806793,0.5858116,0.6042847,0.27399904,0.94731444,89.0
752,0.7467005,0.6806793,0.5858116,0.44710693,0.33665773,0.93350834,89.0
753,-0.11633587,1.1268387,0.7107506,0.44710693,0.33665773,0.93350834,89.0
754,-0.11633587,1.1268387,0.7107506,0.14549561,0.06690674,0.91120607,89.0
755,-0.31142807,1.3388214,0.7248497,0.14549561,0.06690674,0.91120607,89.0
756,-0.31142807,1.3388214,0.7248497,-0.118945315,-0.083898924,0.8421753,89.0
757,0.13476872,1.4009781,0.6768532,-0.118945315,-0.083898924,0.8421753,89.0
758,0.13476872,1.4009781,0.6768532,-0.38975832,-0.0541626,0.6531372,89.0
759,-0.0021948814,1.7792282,0.7755661,-0.38975832,-0.0541626,0.6531372,89.0
760,-0.0021948814,1.7792282,0.7755661,-0.8973999,0.0180542,0.40462646,89.0
761,-1.2430401,2.3365173,1.0022163,-0.8973999,0.0180542,0.40462646,89.0
762,-1.2430401,2.3365173,1.0022163,-1.5760254,0.028674318,0.06265869,89.0
763,-2.8682966,2.3725739,1.2391968,-1.5760254,0.028674318,0.06265869,89.0
764,-2.8682966,2.3725739,1.2391968,-2.0273805,-0.08814698,-0.30267334,89.0
765,-3.7669396,1.4887085,1.3440933,-2.0273805,-0.08814698,-0.30267334,89.0
766,-3.7669396,1.4887085,1.3440933,-1.988086,-0.24638672,-0.66588134,89.0
767,-3.5213766,0.0021591187,1.26474,-1.988086,-0.24638672,-0.66588134,89.0
768,-3.5213766,0.0021591187,1.26474,-1.3933594,-0.3802002,-0.9653687,89.0
769,-2.523376,-1.3195877,1.0559196,-1.3933594,-0.3802002,-0.9653687,89.0
770,-2.523376,-1.3195877,1.0559196,-0.452417,-0.50445557,-1.2361816,89.0
771,-1.3447752,-1.9226913,0.8100662,-0.452417,-0.50445557,-1.2361816,89.0
772,-1.3447752,-1.9226913,0.8100662,0.4322388,-0.5766724,-1.4124756,89.0
773,-0.34037113,-1.7594376,0.5262146,0.4322388,-0.5766724,-1.4124756,89.0
774,-0.34037113,-1.7594376,0.5262146,1.0556396,-0.5787964,-1.5292969,89.0
775,0.45193386,-1.1084061,0.18037033,1.0556396,-0.5787964,-1.5292969,89.0
776,0.45193386,-1.1084061,0.18037033,1.2935303,-0.54375,-1.6418701,89.0
777,1.0526605,-0.3826599,-0.071704865,1.2935303,-0.54375,-1.6418701,89.0
778,1.0526605,-0.3826599,-0.071704865,1.1650269,-0.45560303,-1.7523193,89.0
779,1.3992939,0.072631836,-0.060684204,1.1650269,-0.45560303,-1.7523193,89.0
780,1.3992939,0.072631836,-0.060684204,0.68287355,-0.38444826,-1.8500245,89.0
781,1.4897599,0.103271484,0.16925049,0.68287355,-0.38444826,-1.8500245,89.0
782,1.4897599,0.103271484,0.16925049,-0.035046387,-0.31010744,-1.9254273,89.0
783,1.4206161,-0.27079773,0.4029808,-0.035046387,-0.31010744,-1.9254273,89.0
784,1.4206161,-0.27079773,0.4029808,-0.7880127,-0.22727051,-2.0337524,89.0
785,1.3200378,-0.8723068,0.4446602,-0.7880127,-0.22727051,-2.0337524,89.0
786,1.3200378,-0.8723068,0.4446602,-1.4145997,-0.18797608,-2.0879152,89.0
787,1.342102,-1.4872742,0.2618332,-1.4145997,-0.18797608,-2.0879152,89.0
788,1.342102,-1.4872742,0.2618332,-1.7778076,-0.14230958,-2.1049073,89.0
789,1.4593506,-1.9677887,-0.08612442,-1.7778076,-0.14230958,-2.1049073,89.0
790,1.4593506,-1.9677887,-0.08612442,-1.9158691,-0.09133301,-2.1112792,89.0
791,1.5274539,-2.318863,-0.5323639,-1.9158691,-0.09133301,-2.1112792,89.0
792,1.5274539,-2.318863,-0.5323639,-1.8011719,-0.045666505,-2.088977,89.0
793,1.5000639,-2.5441742,-0.9288826,-1.8011719,-0.045666505,-2.088977,89.0
794,1.5000639,-2.5441742,-0.9288826,-1.4570801,-0.02442627,-2.0316284,89.0
795,1.4389915,-2.623993,-1.08461,-1.4570801,-0.02442627,-2.0316284,89.0
796,1.4389915,-2.623993,-1.08461,-0.9281983,-0.016992187,-1.9190552,89.0
797,1.3193939,-2.5012817,-0.96284103,-0.9281983,-0.016992187,-1.9190552,89.0
798,1.3193939,-2.5012817,-0.96284103,-0.4088745,0.015930176,-1.7289551,89.0
799,1.0575781,-2.1210556,-0.75235367,-0.4088745,0.015930176,-1.7289551,89.0
800,1.0575781,-2.1210556,-0.75235367,-0.078588866,-0.027612304,-1.5091187,89.0
801,0.9841852,-1.6221161,-0.5891876,-0.078588866,-0.027612304,-1.5091187,89.0
802,0.9841852,-1.6221161,-0.5891876,0.121069334,-0.20178223,-1.260608,89.0
803,1.6213691,-1.2930527,-0.51475525,0.121069334,-0.20178223,-1.260608,89.0
804,1.6213691,-1.2930527,-0.51475525,0.26444092,-0.28461915,-0.99085695,89.0
805,2.7031379,-1.2294006,-0.5333023,0.26444092,-0.28461915,-0.99085695,89.0
806,2.7031379,-1.2294006,-0.5333023,0.33665773,-0.27399904,-0.67225343,89.0
807,3.3479962,-1.2037659,-0.61442566,0.33665773,-0.27399904,-0.67225343,89.0
808,3.3479962,-1.2037659,-0.61442566,0.28461915,-0.2166504,-0.3079834,89.0
809,3.1827915,-0.9046402,-0.6507225,0.28461915,-0.2166504,-0.3079834,89.0
810,3.1827915,-0.9046402,-0.6507225,0.121069334,-0.29417726,0.06584473,89.0
811,2.712493,-0.4413376,-0.4874878,0.121069334,-0.29417726,0.06584473,89.0
812,2.712493,-0.4413376,-0.4874878,0.07434082,-0.39506838,0.44073486,89.0
813,2.250329,-0.21186066,-0.28328705,0.07434082,-0.39506838,0.44073486,89.0
814,2.250329,-0.21186066,-0.28328705,0.11682129,-0.3982544,0.6711914,89.0
815,1.3982735,-0.3327179,-0.25743866,0.11682129,-0.3982544,0.6711914,89.0
816,1.3982735,-0.3327179,-0.25743866,0.270813,-0.41099855,0.8687256,89.0
817,-0.086264014,-0.6633911,-0.29796982,0.270813,-0.41099855,0.8687256,89.0
818,-0.086264014,-0.6633911,-0.29796982,0.79119873,-0.5320679,1.0450195,89.0
819,-1.606792,-0.8840637,-0.19655609,0.79119873,-0.5320679,1.0450195,89.0
820,-1.606792,-0.8840637,-0.19655609,1.8043579,-0.8336792,1.3009644,89.0
821,-2.20892,-0.75268555,0.12054062,1.8043579,-0.8336792,1.3009644,89.0
822,-2.20892,-0.75268555,0.12054062,2.991687,-1.0524536,1.5484132,89.0
823,-1.7999973,-0.24668884,0.5785599,2.991687,-1.0524536,1.5484132,89.0
824,-1.7999973,-0.24668884,0.5785599,3.9687378,-1.0736939,1.8011719,89.0
825,-1.2194779,0.5740738,1.0483208,3.9687378,-1.0736939,1.8011719,89.0
826,-1.2194779,0.5740738,1.0483208,4.629309,-0.9770508,2.071985,89.0
827,-0.97503304,1.5524826,1.4346771,4.629309,-0.9770508,2.071985,89.0
828,-0.97503304,1.5524826,1.4346771,5.0073853,-0.83686525,2.3279297,89.0
829,-0.84493124,2.5302582,1.7004776,5.0073853,-0.83686525,2.3279297,89.0
830,-0.84493124,2.5302582,1.7004776,5.0509276,-0.5872925,2.524402,89.0
831,-0.64264417,3.4231339,1.8939857,5.0509276,-0.5872925,2.524402,89.0
832,-0.64264417,3.4231339,1.8939857,4.68241,-0.20284425,2.6359131,89.0
833,-0.5580485,4.0766068,2.0049934,4.68241,-0.20284425,2.6359131,89.0
834,-0.5580485,4.0766068,2.0049934,3.9145753,0.2166504,2.6507814,89.0
835,-0.7583406,4.317314,1.9834976,3.9145753,0.2166504,2.6507814,89.0
836,-0.7583406,4.317314,1.9834976,2.890796,0.5671143,2.6029909,89.0
837,-1.1309402,4.115593,1.7901688,2.890796,0.5671143,2.6029909,89.0
838,-1.1309402,4.115593,1.7901688,1.811792,0.8294312,2.5052857,89.0
839,-1.1309402,4.115593,1.7901688,1.811792,0.8294312,2.5052857,90.0
840,-1.5084264,3.5989075,1.4765587,1.811792,0.8294312,2.5052857,90.0
841,-1.5084264,3.5989075,1.4765587,0.91864014,0.9770508,2.3927124,90.0
842,-1.8155546,2.902977,1.1101532,0.91864014,0.9770508,2.3927124,90.0
843,-1.8155546,2.902977,1.1101532,0.29099122,1.0407715,2.2801392,90.0
844,-2.0568748,2.1818771,0.7186661,0.29099122,1.0407715,2.2801392,90.0
845,-2.0568748,2.1818771,0.7186661,-0.1178833,1.0524536,2.16969,90.0
846,-2.2017865,1.5775604,0.33335876,-0.1178833,1.0524536,2.16969,90.0
847,-2.2017865,1.5775604,0.33335876,-0.33028564,0.9855469,2.0305665,90.0
848,-2.1638098,1.1466446,-0.021900177,-0.33028564,0.9855469,2.0305665,90.0
849,-2.1638098,1.1466446,-0.021900177,-0.30373535,0.8952759,1.8776368,90.0
850,-1.9865408,0.93421173,-0.31407928,-0.30373535,0.8952759,1.8776368,90.0
851,-1.9865408,0.93421173,-0.31407928,-0.1274414,0.82836914,1.7109009,90.0
852,-1.8319206,0.92733765,-0.4842987,-0.1274414,0.82836914,1.7109009,90.0
853,-1.8319206,0.92733765,-0.4842987,0.046728518,0.73703617,1.5165528,90.0
854,-1.7305145,1.019043,-0.5118141,0.046728518,0.73703617,1.5165528,90.0
855,-1.7305145,1.019043,-0.5118141,0.15717773,0.63614506,1.3147706,90.0
856,-1.4868164,1.090622,-0.37932587,0.15717773,0.63614506,1.3147706,90.0
857,-1.4868164,1.090622,-0.37932587,0.23364258,0.48215333,1.0864381,90.0
858,-0.88117695,1.1134186,-0.215168,0.23364258,0.48215333,1.0864381,90.0
859,-0.88117695,1.1134186,-0.215168,0.24744873,0.34090576,0.8262451,90.0
860,-0.049533844,1.0531998,-0.14381409,0.24744873,0.34090576,0.8262451,90.0
861,-0.049533844,1.0531998,-0.14381409,0.16248779,0.27506104,0.5628662,90.0
862,0.5107269,0.905838,-0.015125275,0.16248779,0.27506104,0.5628662,90.0
863,0.5107269,0.905838,-0.015125275,0.07540283,0.2793091,0.34727785,90.0
864,0.3161621,0.84228516,0.24279404,0.07540283,0.2793091,0.34727785,90.0
865,0.3161621,0.84228516,0.24279404,-0.08814698,0.2527588,0.1985962,90.0
866,-0.12674522,0.90535736,0.42845154,-0.08814698,0.2527588,0.1985962,90.0
867,-0.12674522,0.90535736,0.42845154,-0.36639404,-0.10938721,-0.025488282,90.0
868,0.23107433,0.78447723,0.5275383,-0.36639404,-0.10938721,-0.025488282,90.0
869,0.23107433,0.78447723,0.5275383,-0.58410645,-0.31116945,-0.3419678,90.0
870,1.1228967,0.30223846,0.8036003,-0.58410645,-0.31116945,-0.3419678,90.0
871,1.1228967,0.30223846,0.8036003,-0.5957886,-0.31329346,-0.65207523,90.0
872,1.1088638,-0.15338898,1.1728821,-0.5957886,-0.31329346,-0.65207523,90.0
873,1.1088638,-0.15338898,1.1728821,-0.7890747,-0.21983643,-0.8952759,90.0
874,-0.12643433,-0.27454376,1.3572273,-0.7890747,-0.21983643,-0.8952759,90.0
875,-0.12643433,-0.27454376,1.3572273,-1.0365235,-0.3419678,-1.1002442,90.0
876,-1.3755856,-0.37917328,1.3852539,-1.0365235,-0.3419678,-1.1002442,90.0
877,-1.3755856,-0.37917328,1.3852539,-0.8612915,-0.45029297,-1.2000732,90.0
878,-1.3755856,-0.37917328,1.3852539,-0.33771974,-0.51826173,-1.2287476,90.0
879,-1.9070482,-0.6189499,1.4998169,-0.33771974,-0.51826173,-1.2287476,90.0
880,-1.938932,-0.6872635,1.7492676,-0.33771974,-0.51826173,-1.2287476,90.0
881,-1.938932,-0.6872635,1.7492676,0.13487549,-0.64995116,-1.2446778,90.0
882,-1.5645733,-0.53456116,1.828186,0.13487549,-0.64995116,-1.2446778,90.0
883,-1.5645733,-0.53456116,1.828186,0.42799073,-0.7126099,-1.2829102,90.0
884,-0.7579942,-0.2952881,1.4522934,0.42799073,-0.7126099,-1.2829102,90.0
885,-0.7579942,-0.2952881,1.4522934,0.4619751,-0.65207523,-1.3285767,90.0
886,0.1947155,0.03868103,0.68434525,0.4619751,-0.65207523,-1.3285767,90.0
887,0.1947155,0.03868103,0.68434525,0.16142578,-0.4895874,-1.3869873,90.0
888,0.87317944,0.34069824,-0.13978195,0.16142578,-0.4895874,-1.3869873,90.0
889,0.87317944,0.34069824,-0.13978195,-0.45135498,-0.26868898,-1.5303589,90.0
890,1.0959678,0.34344482,-0.6443939,-0.45135498,-0.26868898,-1.5303589,90.0
891,1.0959678,0.34344482,-0.6443939,-1.1926392,-0.045666505,-1.720459,90.0
892,0.980937,-0.18952942,-0.70739746,-1.1926392,-0.045666505,-1.720459,90.0
893,0.980937,-0.18952942,-0.70739746,-1.81073,0.12213135,-1.8861328,90.0
894,0.7880211,-1.087265,-0.48973465,-1.81073,0.12213135,-1.8861328,90.0
895,0.7880211,-1.087265,-0.48973465,-2.2780151,0.20496826,-2.0263183,90.0
896,0.70191336,-1.9923553,-0.29322815,-2.2780151,0.20496826,-2.0263183,90.0
897,0.70191336,-1.9923553,-0.29322815,-2.614673,0.29205322,-2.1431396,90.0
898,0.6977124,-2.7248535,-0.38491058,-2.614673,0.29205322,-2.1431396,90.0
899,0.6977124,-2.7248535,-0.38491058,-2.6762695,0.36745605,-2.2259767,90.0
900,0.645731,-3.1776733,-0.75091934,-2.6762695,0.36745605,-2.2259767,90.0
901,0.645731,-3.1776733,-0.75091934,-2.5010376,0.3812622,-2.2886353,90.0
902,0.59827423,-3.31604,-1.0931168,-2.5010376,0.3812622,-2.2886353,90.0
903,0.59827423,-3.31604,-1.0931168,-2.1580079,0.36427003,-2.3311157,90.0
904,0.7053528,-3.232521,-1.2297058,-2.1580079,0.36427003,-2.3311157,90.0
905,0.7053528,-3.232521,-1.2297058,-1.7342652,0.3525879,-2.3289917,90.0
906,0.89642334,-3.0236359,-1.2554207,-1.7342652,0.3525879,-2.3289917,90.0
907,0.89642334,-3.0236359,-1.2554207,-1.2914063,0.32178956,-2.269519,90.0
908,1.0588379,-2.6940308,-1.303154,-1.2914063,0.32178956,-2.269519,90.0
909,1.0588379,-2.6940308,-1.303154,-0.89846194,0.24957275,-2.165442,90.0
910,1.2321658,-2.3027496,-1.3600159,-0.89846194,0.24957275,-2.165442,90.0
911,1.2321658,-2.3027496,-1.3600159,-0.6042847,0.1709839,-2.0167603,90.0
912,1.4959989,-1.9623337,-1.283287,-0.6042847,0.1709839,-2.0167603,90.0
913,1.4959989,-1.9623337,-1.283287,-0.39188233,0.052038576,-1.8415283,90.0
914,2.008347,-1.7848663,-1.0350304,-0.39188233,0.052038576,-1.8415283,90.0
915,2.008347,-1.7848663,-1.0350304,-0.27612305,-0.047790527,-1.622754,90.0
916,2.677576,-1.8395386,-0.76733017,-0.27612305,-0.047790527,-1.622754,90.0
917,2.677576,-1.8395386,-0.76733017,-0.2166504,-0.059472658,-1.3466309,90.0
918,3.0114944,-1.9714355,-0.7015381,-0.2166504,-0.059472658,-1.3466309,90.0
919,3.0114944,-1.9714355,-0.7015381,-0.17841797,-0.057348635,-0.97280276,90.0
920,2.8253212,-1.76371,-0.8222313,-0.17841797,-0.057348635,-0.97280276,90.0
921,2.8253212,-1.76371,-0.8222313,-0.10513916,-0.22939454,-0.5894165,90.0
922,2.7270539,-1.2025452,-0.79999924,-0.10513916,-0.22939454,-0.5894165,90.0
923,2.7270539,-1.2025452,-0.79999924,0.043542482,-0.39400634,-0.1731079,90.0
924,2.7801538,-0.7365341,-0.53546906,0.043542482,-0.39400634,-0.1731079,90.0
925,2.7801538,-0.7365341,-0.53546906,0.14018555,-0.29523927,0.1083252,90.0
926,2.0973043,-0.65289307,-0.20982361,0.14018555,-0.29523927,0.1083252,90.0
927,2.0973043,-0.65289307,-0.20982361,0.23258057,-0.2803711,0.38869628,90.0
928,0.2908439,-0.7767792,-0.03170395,0.23258057,-0.2803711,0.38869628,90.0
929,0.2908439,-0.7767792,-0.03170395,0.55755615,-0.31966552,0.65844727,90.0
930,-1.7234894,-0.6709595,0.048221588,0.55755615,-0.31966552,0.65844727,90.0
931,-1.7234894,-0.6709595,0.048221588,1.2956543,-0.68924564,1.0248413,90.0
932,-2.3494825,-0.37034607,0.23823547,1.2956543,-0.68924564,1.0248413,90.0
933,-2.3494825,-0.37034607,0.23823547,2.3810303,-0.9632446,1.357251,90.0
934,-1.4440635,-0.08341217,0.56149673,2.3810303,-0.9632446,1.357251,90.0
935,-1.4440635,-0.08341217,0.56149673,3.5035768,-0.8878418,1.6376221,90.0
936,-0.3784808,0.43632507,0.9277954,3.5035768,-0.8878418,1.6376221,90.0
937,-0.3784808,0.43632507,0.9277954,4.3043337,-0.81243896,1.9328613,90.0
938,-0.3784808,0.43632507,0.9277954,4.3043337,-0.81243896,1.9328613,90.0
939,0.13444686,1.3373642,1.1480942,4.3043337,-0.81243896,1.9328613,90.0
940,0.13444686,1.3373642,1.1480942,4.711084,-0.63933104,2.2089844,90.0
941,0.33429098,2.500328,1.2381439,4.711084,-0.63933104,2.2089844,90.0
942,0.33429098,2.500328,1.2381439,4.821533,-0.33028564,2.436255,90.0
943,0.38952756,3.7628403,1.35952,4.821533,-0.33028564,2.436255,90.0
944,0.38952756,3.7628403,1.35952,4.5379763,0.06159668,2.625293,90.0
945,0.19775486,4.80011,1.5100403,4.5379763,0.06159668,2.625293,90.0
946,0.19775486,4.80011,1.5100403,3.7850099,0.48109132,2.7569826,90.0
947,-0.29914474,5.266823,1.5961914,3.7850099,0.48109132,2.7569826,90.0
948,-0.29914474,5.266823,1.5961914,2.717688,0.8230591,2.8440673,90.0
949,-0.9555756,5.0766754,1.4974136,2.717688,0.8230591,2.8440673,90.0
950,-0.9555756,5.0766754,1.4974136,1.5420411,1.0630738,2.8684938,90.0
951,-1.5843947,4.4164886,1.1743813,1.5420411,1.0630738,2.8684938,90.0
952,-1.5843947,4.4164886,1.1743813,0.4609131,1.2064453,2.8525636,90.0
953,-1.8095691,3.7109146,0.7739754,0.4609131,1.2064453,2.8525636,90.0
954,-1.8095691,3.7109146,0.7739754,0.014868164,1.2287476,2.8345094,90.0
955,-2.4218497,2.5109558,0.23020172,0.014868164,1.2287476,2.8345094,90.0
956,-2.4218497,2.5109558,0.23020172,-0.8442993,1.1618408,2.7314942,90.0
957,-2.3499799,1.9657364,-0.07433319,-0.8442993,1.1618408,2.7314942,90.0
958,-2.3499799,1.9657364,-0.07433319,-0.9717407,1.1214844,2.6667116,90.0
959,-2.5691442,1.077095,-0.42855835,-0.9717407,1.1214844,2.6667116,90.0
960,-2.5691442,1.077095,-0.42855835,-0.9366943,0.91757816,2.4139526,90.0
961,-2.3340144,0.8810196,-0.527565,-0.9366943,0.91757816,2.4139526,90.0
962,-2.3340144,0.8810196,-0.527565,-0.7848267,0.8485474,2.3066895,90.0
963,-2.346716,0.5711441,-0.71944046,-0.7848267,0.8485474,2.3066895,90.0
964,-2.346716,0.5711441,-0.71944046,-0.13062744,0.67650145,1.9551636,90.0
965,-2.1219158,0.71637726,-0.7434616,-0.13062744,0.67650145,1.9551636,90.0
966,-2.1219158,0.71637726,-0.7434616,0.059472658,0.6287109,1.8425903,90.0
967,-2.2830305,1.2372513,-0.9045601,0.059472658,0.6287109,1.8425903,90.0
968,-2.2830305,1.2372513,-0.9045601,0.38232422,0.40037844,1.4188477,90.0
969,-1.9607263,1.3760071,-0.80857086,0.38232422,0.40037844,1.4188477,90.0
970,-1.9607263,1.3760071,-0.80857086,0.41737062,0.29736328,1.2510499,90.0
971,-1.1040916,1.4975204,-0.43595886,0.41737062,0.29736328,1.2510499,90.0
972,-1.1040916,1.4975204,-0.43595886,0.5246338,-0.03717041,0.60109866,90.0
973,-0.43716717,1.2382889,-0.12697983,0.5246338,-0.03717041,0.60109866,90.0
974,-0.43716717,1.2382889,-0.12697983,0.56605226,-0.12850343,0.3525879,90.0
975,1.0700417,0.7078171,0.4657364,0.56605226,-0.12850343,0.3525879,90.0
976,1.0700417,0.7078171,0.4657364,0.41206056,-0.07752686,-0.3058594,90.0
977,1.0088167,0.5031204,0.47200394,0.41206056,-0.07752686,-0.3058594,90.0
978,1.0088167,0.5031204,0.47200394,0.22196046,-0.025488282,-0.4725952,90.0
979,0.3676858,0.53793335,0.643631,0.22196046,-0.025488282,-0.4725952,90.0
980,0.3676858,0.53793335,0.643631,-0.21346436,-0.4088745,-1.0004151,90.0
981,0.36652374,0.34810638,0.69675446,-0.21346436,-0.4088745,-1.0004151,90.0
982,0.36652374,0.34810638,0.69675446,-0.22302246,-0.50233155,-1.1490967,90.0
983,0.9777527,0.06487274,0.9972,-0.22302246,-0.50233155,-1.1490967,90.0
984,0.9777527,0.06487274,0.9972,-0.18372802,-0.4895874,-1.4315919,90.0
985,1.4449339,-0.30355835,1.3953667,-0.18372802,-0.4895874,-1.4315919,90.0
986,1.4449339,-0.30355835,1.3953667,-0.270813,-0.42692873,-1.6832886,90.0
987,0.9863186,-0.5586395,1.5106277,-0.270813,-0.42692873,-1.6832886,90.0
988,0.9863186,-0.5586395,1.5106277,-0.631897,-0.31860352,-1.8510865,90.0
989,0.03099823,-0.6680832,1.1169243,-0.631897,-0.31860352,-1.8510865,90.0
990,0.03099823,-0.6680832,1.1169243,-0.9897949,-0.37595215,-1.9848999,90.0
991,-0.30099487,-0.6819,0.5591278,-0.9897949,-0.37595215,-1.9848999,90.0
992,-0.30099487,-0.6819,0.5591278,-0.93563235,-0.55543214,-2.1176515,90.0
993,0.101867676,-0.8932648,0.5152931,-0.93563235,-0.55543214,-2.1176515,90.0
994,0.101867676,-0.8932648,0.5152931,-0.81987303,-0.52888185,-2.1229615,90.0
995,0.63950205,-1.216896,0.7451477,-0.81987303,-0.52888185,-2.1229615,90.0
996,0.63950205,-1.216896,0.7451477,-0.6531372,-0.45135498,-2.1303957,90.0
997,0.6450119,-1.5683289,0.87747574,-0.6531372,-0.45135498,-2.1303957,90.0
998,0.6450119,-1.5683289,0.87747574,-0.6467652,-0.38551027,-2.182434,90.0
999,0.4437437,-1.7493134,0.55901337,-0.6467652,-0.38551027,-2.182434,90.0
1000,0.4437437,-1.7493134,0.55901337,-0.72004396,-0.3058594,-2.1919923,90.0
1001,0.41208744,-1.6381683,-0.049591064,-0.72004396,-0.3058594,-2.1919923,90.0
1002,0.41208744,-1.6381683,-0.049591064,-0.84323734,-0.13381349,-2.1420777,90.0
1003,0.40894222,-1.3513947,-0.47950363,-0.84323734,-0.13381349,-2.1420777,90.0
1004,0.40894222,-1.3513947,-0.47950363,-1.1044922,0.012744141,-2.0879152,90.0
1005,0.29189968,-1.1945648,-0.59887314,-1.1044922,0.012744141,-2.0879152,90.0
1006,0.29189968,-1.1945648,-0.59887314,-1.540979,0.09770508,-2.061365,90.0
1007,0.23748684,-1.3237686,-0.60617447,-1.540979,0.09770508,-2.061365,90.0
1008,0.23748684,-1.3237686,-0.60617447,-2.1006591,0.19434814,-2.0581787,90.0
1009,0.31562424,-1.7055359,-0.81427383,-2.1006591,0.19434814,-2.0581787,90.0
1010,0.31562424,-1.7055359,-0.81427383,-2.6698976,0.3079834,-2.0316284,90.0
1011,0.4068818,-2.3216171,-1.3263817,-2.6698976,0.3079834,-2.0316284,90.0
1012,0.4068818,-2.3216171,-1.3263817,-3.254004,0.44179687,-1.9732178,90.0
1013,0.4884081,-2.4575348,-1.5544662,-3.254004,0.44179687,-1.9732178,90.0
1014,0.4884081,-2.4575348,-1.5544662,-3.2996705,0.46516114,-1.9487915,90.0
1015,0.5239539,-2.7249756,-1.7803192,-3.2996705,0.46516114,-1.9487915,90.0
1016,0.5239539,-2.7249756,-1.7803192,-3.2497559,0.48109132,-1.8861328,90.0
1017,0.56396294,-2.8414078,-1.9501495,-3.2497559,0.48109132,-1.8861328,90.0
1018,0.56396294,-2.8414078,-1.9501495,-3.1403687,0.48427734,-1.8340943,90.0
1019,0.61695385,-2.9193573,-2.053135,-3.1403687,0.48427734,-1.8340943,90.0
1020,0.61695385,-2.9193573,-2.053135,-2.8536255,0.49064943,-1.7831177,90.0
1021,0.5951624,-3.0178986,-1.9787254,-2.8536255,0.49064943,-1.7831177,90.0
1022,0.5951624,-3.0178986,-1.9787254,-2.3247437,0.45029297,-1.7151489,90.0
1023,0.47340775,-2.9496918,-1.8279648,-2.3247437,0.45029297,-1.7151489,90.0
1024,0.47340775,-2.9496918,-1.8279648,-1.7236451,0.3154175,-1.6046997,90.0
1025,0.46723938,-2.668541,-1.690445,-1.7236451,0.3154175,-1.6046997,90.0
1026,0.46723938,-2.668541,-1.690445,-1.1087402,0.12531738,-1.4698242,90.0
1027,0.92733145,-2.439743,-1.3926659,-1.1087402,0.12531738,-1.4698242,90.0
1028,0.92733145,-2.439743,-1.3926659,-0.3175415,-0.1444336,-1.2924683,90.0
1029,1.8750074,-2.402176,-0.8818321,-0.3175415,-0.1444336,-1.2924683,90.0
1030,1.8750074,-2.402176,-0.8818321,0.55968016,-0.31860352,-1.0949341,90.0
1031,2.7819395,-2.14122,-0.45503998,0.55968016,-0.31860352,-1.0949341,90.0
1032,2.7819395,-2.14122,-0.45503998,0.90695804,-0.3706421,-0.7880127,90.0
1033,3.0001,-1.500061,-0.31012726,0.90695804,-0.3706421,-0.7880127,90.0
1034,3.0001,-1.500061,-0.31012726,0.85491943,-0.3802002,-0.4970215,90.0
1035,2.712299,-0.80174255,-0.1125679,0.85491943,-0.3802002,-0.4970215,90.0
1036,2.712299,-0.80174255,-0.1125679,0.80394286,-0.5564942,-0.07540283,90.0
1037,2.5426786,-0.21147156,0.34460068,0.80394286,-0.5564942,-0.07540283,90.0
1038,2.5426786,-0.21147156,0.34460068,0.85385746,-0.6085327,0.3058594,90.0
1039,2.425171,0.24907684,0.7011833,0.85385746,-0.6085327,0.3058594,90.0
1040,2.425171,0.24907684,0.7011833,0.727478,-0.5607422,0.59472656,90.0
1041,1.6300414,0.3267517,0.66036224,0.727478,-0.5607422,0.59472656,90.0
1042,1.6300414,0.3267517,0.66036224,0.59897465,-0.36533204,0.8857178,90.0
1043,1.6300414,0.3267517,0.66036224,0.59897465,-0.36533204,0.8857178,90.0
1044,-0.18201423,0.061035156,0.4372368,0.59897465,-0.36533204,0.8857178,90.0
1045,-0.18201423,0.061035156,0.4372368,0.9526245,-0.42374268,1.2043213,90.0
1046,-1.9566466,-0.045166016,0.41498566,0.9526245,-0.42374268,1.2043213,90.0
1047,-1.9566466,-0.045166016,0.41498566,1.7778076,-0.7519043,1.5707153,90.0
1048,-2.1847265,0.123550415,0.6568527,1.7778076,-0.7519043,1.5707153,90.0
1049,-2.1847265,0.123550415,0.6568527,2.803711,-0.8442993,1.8574585,90.0
1050,-1.2267852,0.51322174,0.9582062,2.803711,-0.8442993,1.8574585,90.0
1051,-1.2267852,0.51322174,0.9582062,3.7350953,-0.6775635,2.084729,90.0
1052,-0.49589348,1.2359314,1.117981,3.7350953,-0.6775635,2.084729,90.0
1053,-0.49589348,1.2359314,1.117981,4.3011475,-0.5246338,2.2854493,90.0
1054,-0.3943466,2.2131577,1.1286011,4.3011475,-0.5246338,2.2854493,90.0
1055,-0.3943466,2.2131577,1.1286011,4.5029297,-0.2793091,2.4288208,90.0
1056,-0.47060418,3.2400818,1.1931496,4.5029297,-0.2793091,2.4288208,90.0
1057,-0.47060418,3.2400818,1.1931496,4.4646974,0.028674318,2.51803,90.0
1058,-0.5131899,4.170738,1.4021606,4.4646974,0.028674318,2.51803,90.0
1059,-0.5131899,4.170738,1.4021606,4.0282106,0.40144044,2.5605104,90.0
1060,-0.6536672,4.7648315,1.5601692,4.0282106,0.40144044,2.5605104,90.0
1061,-0.6536672,4.7648315,1.5601692,3.1159425,0.7720825,2.5594482,90.0
1062,-0.98540926,4.8183517,1.4341927,3.1159425,0.7720825,2.5594482,90.0
1063,-0.98540926,4.8183517,1.4341927,1.9594116,1.0567017,2.52334,90.0
1064,-1.379636,4.3765945,1.0217056,1.9594116,1.0567017,2.52334,90.0
1065,-1.379636,4.3765945,1.0217056,0.8092529,1.2574219,2.4628053,90.0
1066,-1.7245708,3.6278,0.48553085,0.8092529,1.2574219,2.4628053,90.0
1067,-1.7245708,3.6278,0.48553085,-0.0998291,1.355127,2.3735962,90.0
1068,-1.979022,2.7412567,0.006500244,-0.0998291,1.355127,2.3735962,90.0
1069,-1.979022,2.7412567,0.006500244,-0.75296634,1.3678712,2.263147,90.0
1070,-2.1668236,1.8929825,-0.33006668,-0.75296634,1.3678712,2.263147,90.0
1071,-2.1668236,1.8929825,-0.33006668,-1.1629028,1.3413209,2.1303957,90.0
1072,-2.2979121,1.1599426,-0.58028793,-1.1629028,1.3413209,2.1303957,90.0
1073,-2.2979121,1.1599426,-0.58028793,-1.3317627,1.2149414,1.9657837,90.0
1074,-2.2874994,0.5738754,-0.7972717,-1.3317627,1.2149414,1.9657837,90.0
1075,-2.2874994,0.5738754,-0.7972717,-1.1618408,1.0513916,1.7724975,90.0
1076,-2.179841,0.2646637,-0.945034,-1.1618408,1.0513916,1.7724975,90.0
1077,-2.179841,0.2646637,-0.945034,-0.7625244,0.9165161,1.6036377,90.0
1078,-2.168726,0.30698395,-0.9737892,-0.7625244,0.9165161,1.6036377,90.0
1079,-2.168726,0.30698395,-0.9737892,-0.33028564,0.76677245,1.4315919,90.0
1080,-2.2697096,0.59573364,-0.92222214,-0.33028564,0.76677245,1.4315919,90.0
1081,-2.2697096,0.59573364,-0.92222214,0.0180542,0.5501221,1.2393677,90.0
1082,-2.166854,0.91973877,-0.8415222,0.0180542,0.5501221,1.2393677,90.0
1083,-2.166854,0.91973877,-0.8415222,0.270813,0.29205322,1.0290893,90.0
1084,-1.5803461,1.109787,-0.65262604,0.270813,0.29205322,1.0290893,90.0
1085,-1.5803461,1.109787,-0.65262604,0.44498292,0.053100586,0.74022216,90.0
1086,-0.59513664,1.0528107,-0.19159698,0.44498292,0.053100586,0.74022216,90.0
1087,-0.59513664,1.0528107,-0.19159698,0.6085327,-0.15611573,0.3791382,90.0
1088,0.453969,0.77614594,0.36241913,0.6085327,-0.15611573,0.3791382,90.0
1089,0.453969,0.77614594,0.36241913,0.6775635,-0.25913087,-0.014868164,90.0
1090,1.0954628,0.5522156,0.65540314,0.6775635,-0.25913087,-0.014868164,90.0
1091,1.0954628,0.5522156,0.65540314,0.4715332,-0.23682861,-0.38763428,90.0
1092,1.2711945,0.49967194,0.6683426,0.4715332,-0.23682861,-0.38763428,90.0
1093,1.2711945,0.49967194,0.6683426,0.11363526,-0.42799073,-0.8315552,90.0
1094,1.5863895,0.3347702,0.6368103,0.11363526,-0.42799073,-0.8315552,90.0
1095,1.5863895,0.3347702,0.6368103,-0.10195313,-0.6244629,-1.2871583,90.0
1096,2.1783772,-0.12904358,0.8392334,-0.10195313,-0.6244629,-1.2871583,90.0
1097,2.1783772,-0.12904358,0.8392334,-0.12213135,-0.5883545,-1.7002808,90.0
1098,2.14507,-0.603035,1.2738533,-0.12213135,-0.5883545,-1.7002808,90.0
1099,2.14507,-0.603035,1.2738533,-0.2527588,-0.35046387,-1.9562256,90.0
1100,0.8911662,-0.72985077,1.5348396,-0.2527588,-0.35046387,-1.9562256,90.0
1101,0.8911662,-0.72985077,1.5348396,-0.6595093,-0.24744873,-2.0687988,90.0
1102,-0.71797514,-0.59508514,1.4165688,-0.6595093,-0.24744873,-2.0687988,90.0
1103,-0.71797514,-0.59508514,1.4165688,-0.93775636,-0.32178956,-2.1102173,90.0
1104,-1.4829006,-0.53990936,1.2912979,-0.93775636,-0.32178956,-2.1102173,90.0
1105,-1.4829006,-0.53990936,1.2912979,-0.8358032,-0.4343628,-2.092163,90.0
1106,-1.2606006,-0.6860428,1.4222374,-0.8358032,-0.4343628,-2.092163,90.0
1107,-1.2606006,-0.6860428,1.4222374,-0.52250975,-0.5384399,-2.0072021,90.0
1108,-0.6104336,-0.9079132,1.4748497,-0.52250975,-0.5384399,-2.0072021,90.0
1109,-0.6104336,-0.9079132,1.4748497,-0.29205322,-0.55968016,-1.9594116,90.0
1110,0.047443867,-1.0483017,1.0282898,-0.29205322,-0.55968016,-1.9594116,90.0
1111,0.047443867,-1.0483017,1.0282898,-0.33878174,-0.41418457,-1.9530395,90.0
1112,0.5058627,-0.96819305,0.07691574,-0.33878174,-0.41418457,-1.9530395,90.0
1113,0.5058627,-0.96819305,0.07691574,-0.69136965,-0.1709839,-1.9487915,90.0
1114,0.63536644,-0.7795563,-0.87577057,-0.69136965,-0.1709839,-1.9487915,90.0
1115,0.63536644,-0.7795563,-0.87577057,-1.2266235,0.081774905,-1.9753418,90.0
1116,0.5243454,-0.8245468,-1.3428879,-1.2266235,0.081774905,-1.9753418,90.0
1117,0.5243454,-0.8245468,-1.3428879,-1.7799317,0.21558838,-2.0464966,90.0
1118,0.45611,-1.2948532,-1.315155,-1.7799317,0.21558838,-2.0464966,90.0
1119,0.45611,-1.2948532,-1.315155,-2.2812011,0.28568116,-2.0826051,90.0
1120,0.57469034,-2.007393,-1.1129875,-2.2812011,0.28568116,-2.0826051,90.0
1121,0.57469034,-2.007393,-1.1129875,-2.624231,0.32603762,-2.0974731,90.0
1122,0.7971306,-2.6601028,-1.0191383,-2.624231,0.32603762,-2.0974731,90.0
1123,0.7971306,-2.6601028,-1.0191383,-2.7516725,0.35577393,-2.0995972,90.0
1124,0.9634981,-3.103897,-1.0971832,-2.7516725,0.35577393,-2.0995972,90.0
1125,0.9634981,-3.103897,-1.0971832,-2.6720216,0.39082032,-2.088977,90.0
1126,0.98271275,-3.3484955,-1.2101669,-2.6720216,0.39082032,-2.088977,90.0
1127,0.98271275,-3.3484955,-1.2101669,-2.3449218,0.37701416,-2.0411866,90.0
1128,0.85521317,-3.3405457,-1.2377014,-2.3449218,0.37701416,-2.0411866,90.0
1129,0.85521317,-3.3405457,-1.2377014,-1.8457764,0.33984375,-1.9562256,90.0
1130,0.61821604,-3.0128555,-1.1704597,-1.8457764,0.33984375,-1.9562256,90.0
1131,0.61821604,-3.0128555,-1.1704597,-1.3190186,0.2516968,-1.8277222,90.0
1132,0.39038563,-2.457344,-1.0802612,-1.3190186,0.2516968,-1.8277222,90.0
1133,0.39038563,-2.457344,-1.0802612,-0.9165161,0.14230958,-1.6641724,90.0
1134,0.26312637,-1.8874588,-1.0279808,-0.9165161,0.14230958,-1.6641724,90.0
1135,0.26312637,-1.8874588,-1.0279808,-0.6988037,0.078588866,-1.4602661,90.0
1136,0.16854572,-1.4727631,-0.9862671,-0.6988037,0.078588866,-1.4602661,90.0
1137,0.16854572,-1.4727631,-0.9862671,-0.52250975,0.010620117,-1.2436157,90.0
1138,0.19554234,-1.2126694,-0.8812027,-0.52250975,0.010620117,-1.2436157,90.0
1139,0.19554234,-1.2126694,-0.8812027,-0.26550293,-0.18691407,-1.0046631,90.0
1140,0.77213216,-1.1672287,-0.6902313,-0.26550293,-0.18691407,-1.0046631,90.0
1141,0.77213216,-1.1672287,-0.6902313,0.15186767,-0.38975832,-0.73809814,90.0
1142,1.8837214,-1.3295288,-0.46076584,0.15186767,-0.38975832,-0.73809814,90.0
1143,1.8837214,-1.3295288,-0.46076584,0.6669434,-0.46516114,-0.5140137,90.0
1144,1.8837214,-1.3295288,-0.46076584,0.6669434,-0.46516114,-0.5140137,90.0
1145,2.8126047,-1.2597885,-0.30508804,0.6669434,-0.46516114,-0.5140137,90.0
1146,2.8126047,-1.2597885,-0.30508804,0.74871826,-0.3993164,-0.22196046,90.0
1147,3.004527,-0.78523254,-0.18547821,0.74871826,-0.3993164,-0.22196046,90.0
1148,3.004527,-0.78523254,-0.18547821,0.53100586,-0.3971924,-0.025488282,90.0
1149,2.8823204,-0.44618988,0.15530396,0.53100586,-0.3971924,-0.025488282,90.0
1150,2.8823204,-0.44618988,0.15530396,0.45347902,-0.5607422,0.26975098,90.0
1151,2.8892672,-0.50172424,0.62551117,0.45347902,-0.5607422,0.26975098,90.0
1152,2.8892672,-0.50172424,0.62551117,0.6488892,-0.48109132,0.51188964,90.0
1153,2.4768069,-0.5655899,0.8676224,0.6488892,-0.48109132,0.51188964,90.0
1154,2.4768069,-0.5655899,0.8676224,0.8963379,-0.4354248,0.73809814,90.0
1155,1.1252809,-0.4011612,0.77249146,0.8963379,-0.4354248,0.73809814,90.0
1156,1.1252809,-0.4011612,0.77249146,1.2414917,-0.38232422,1.0142212,90.0
1157,-0.59042466,-0.012748718,0.5985832,1.2414917,-0.38232422,1.0142212,90.0
1158,-0.59042466,-0.012748718,0.5985832,1.8861328,-0.60109866,1.3848633,90.0
1159,-1.4602914,0.45323944,0.57645035,1.8861328,-0.60109866,1.3848633,90.0
1160,-1.4602914,0.45323944,0.57645035,2.6921997,-0.7072998,1.6822265,90.0
1161,-1.2600422,0.8819504,0.7131729,2.6921997,-0.7072998,1.6822265,90.0
1162,-1.2600422,0.8819504,0.7131729,3.4908326,-0.630835,1.9307374,90.0
1163,-0.67083895,1.3616943,0.9484062,3.4908326,-0.630835,1.9307374,90.0
1164,-0.67083895,1.3616943,0.9484062,4.174768,-0.56817627,2.1431396,90.0
1165,-0.24303102,2.0198517,1.0852623,4.174768,-0.56817627,2.1431396,90.0
1166,-0.24303102,2.0198517,1.0852623,4.608069,-0.27399904,2.3194337,90.0
1167,-0.25903666,2.9733582,1.1139259,4.608069,-0.27399904,2.3194337,90.0
1168,-0.25903666,2.9733582,1.1139259,4.6452394,0.0722168,2.4734254,90.0
1169,-0.63807654,4.0330353,1.1418228,4.6452394,0.0722168,2.4734254,90.0
1170,-0.63807654,4.0330353,1.1418228,4.269287,0.42799073,2.5732543,90.0
1171,-1.0772337,4.8262253,1.132698,4.269287,0.42799073,2.5732543,90.0
1172,-1.0772337,4.8262253,1.132698,3.516321,0.79119873,2.6412232,90.0
1173,-1.4282542,5.134659,1.0049858,3.516321,0.79119873,2.6412232,90.0
1174,-1.4282542,5.134659,1.0049858,2.4872315,1.081128,2.6582153,90.0
1175,-1.6568246,4.91597,0.75936127,2.4872315,1.081128,2.6582153,90.0
1176,-1.6568246,4.91597,0.75936127,1.355127,1.2903442,2.608301,90.0
1177,-1.8301227,4.2458725,0.4450264,1.355127,1.2903442,2.608301,90.0
1178,-1.8301227,4.2458725,0.4450264,0.34727785,1.44646,2.5137818,90.0
1179,-2.072924,3.2989044,0.12256241,0.34727785,1.44646,2.5137818,90.0
1180,-2.072924,3.2989044,0.12256241,-0.4354248,1.5292969,2.3757203,90.0
1181,-2.3787615,2.3085327,-0.17539978,-0.4354248,1.5292969,2.3757203,90.0
1182,-2.3787615,2.3085327,-0.17539978,-0.9876709,1.5505371,2.2079225,90.0
1183,-2.5800843,1.4511261,-0.45624924,-0.9876709,1.5505371,2.2079225,90.0
1184,-2.5800843,1.4511261,-0.45624924,-1.3211426,1.4868164,2.0178223,90.0
1185,-2.489214,0.7526398,-0.7292099,-1.3211426,1.4868164,2.0178223,90.0
1186,-2.489214,0.7526398,-0.7292099,-1.3190186,1.356189,1.808606,90.0
1187,-2.1718645,0.32403564,-0.9634819,-1.3190186,1.356189,1.808606,90.0
1188,-2.1718645,0.32403564,-0.9634819,-1.0535157,1.263794,1.621692,90.0
1189,-1.9491248,0.2782135,-1.0987549,-1.0535157,1.263794,1.621692,90.0
1190,-1.9491248,0.2782135,-1.0987549,-0.75721437,1.1682129,1.4326538,90.0
1191,-1.9363871,0.52453613,-1.1486931,-0.75721437,1.1682129,1.4326538,90.0
1192,-1.9363871,0.52453613,-1.1486931,-0.5511841,1.0142212,1.2457398,90.0
1193,-1.8450079,0.8115692,-1.182064,-0.5511841,1.0142212,1.2457398,90.0
1194,-1.8450079,0.8115692,-1.182064,-0.45454103,0.7625244,1.0131592,90.0
1195,-1.2497611,0.90431976,-1.1503906,-0.45454103,0.7625244,1.0131592,90.0
1196,-1.2497611,0.90431976,-1.1503906,-0.39294434,0.46516114,0.6711914,90.0
1197,-0.1961708,0.6970749,-0.9113159,-0.39294434,0.46516114,0.6711914,90.0
1198,-0.1961708,0.6970749,-0.9113159,-0.32072756,0.22833252,0.27506104,90.0
1199,0.7517185,0.2938385,-0.44585037,-0.32072756,0.22833252,0.27506104,90.0
1200,0.7517185,0.2938385,-0.44585037,-0.3154175,0.10195313,-0.11682129,90.0
1201,1.1059527,-0.12186432,0.10734558,-0.3154175,0.10195313,-0.11682129,90.0
1202,1.1059527,-0.12186432,0.10734558,-0.39613038,-0.098767094,-0.5649902,90.0
1203,1.1357756,-0.43663788,0.63261414,-0.39613038,-0.098767094,-0.5649902,90.0
1204,1.1357756,-0.43663788,0.63261414,-0.4088745,-0.38657227,-0.92076415,90.0
1205,1.4853296,-0.5558243,1.0222168,-0.4088745,-0.38657227,-0.92076415,90.0
1206,1.4853296,-0.5558243,1.0222168,-0.22408448,-0.6467652,-1.3073364,90.0
1207,2.2076607,-0.53048706,1.4732056,-0.22408448,-0.6467652,-1.3073364,90.0
1208,2.2076607,-0.53048706,1.4732056,0.016992187,-0.71579593,-1.6875366,90.0
1209,2.5170078,-0.6003418,1.99403,0.016992187,-0.71579593,-1.6875366,90.0
1210,2.5170078,-0.6003418,1.99403,0.15717773,-0.4609131,-1.9710938,90.0
1211,1.4746537,-0.62483215,2.160778,0.15717773,-0.4609131,-1.9710938,90.0
1212,1.4746537,-0.62483215,2.160778,-0.078588866,-0.1709839,-2.0645509,90.0
1213,-0.67863894,-0.3090744,1.8806343,-0.078588866,-0.1709839,-2.0645509,90.0
1214,-0.67863894,-0.3090744,1.8806343,-0.55543214,-0.06159668,-2.088977,90.0
1215,-2.56536,0.08647156,1.5542755,-0.55543214,-0.06159668,-2.088977,90.0
1216,-2.56536,0.08647156,1.5542755,-0.86553955,-0.2357666,-2.1495118,90.0
1217,-2.9833546,0.21730042,1.5063705,-0.86553955,-0.2357666,-2.1495118,90.0
1218,-2.9833546,0.21730042,1.5063705,-0.79119873,-0.45347902,-2.0942872,90.0
1219,-1.8931293,0.07762146,1.4449272,-0.79119873,-0.45347902,-2.0942872,90.0
1220,-1.8931293,0.07762146,1.4449272,-0.73597413,-0.51932377,-2.1027832,90.0
1221,-0.25871754,-0.27446747,0.8003006,-0.73597413,-0.51932377,-2.1027832,90.0
1222,-0.25871754,-0.27446747,0.8003006,-0.92926025,-0.36427003,-2.1728761,90.0
1223,0.9232874,-0.82390594,-0.4558754,-0.92926025,-0.36427003,-2.1728761,90.0
1224,0.9232874,-0.82390594,-0.4558754,-1.4570801,-0.07434082,-2.348108,90.0
1225,1.3078561,-1.4970169,-1.6977692,-1.4570801,-0.07434082,-2.348108,90.0
1226,1.3078561,-1.4970169,-1.6977692,-2.1038454,0.27718505,-2.53396,90.0
1227,1.128377,-2.2493744,-2.340332,-2.1038454,0.27718505,-2.53396,90.0
1228,1.128377,-2.2493744,-2.340332,-2.537146,0.48427734,-2.7357423,90.0
1229,0.9330239,-2.982582,-2.3185425,-2.537146,0.48427734,-2.7357423,90.0
1230,0.9330239,-2.982582,-2.3185425,-2.8706176,0.53100586,-2.904602,90.0
1231,1.2714195,-3.6559143,-1.8186035,-2.8706176,0.53100586,-2.904602,90.0
1232,1.2714195,-3.6559143,-1.8186035,-2.9407105,0.63933104,-2.9396484,90.0
1233,1.8589449,-4.26194,-1.1375465,-2.9407105,0.63933104,-2.9396484,90.0
1234,1.8589449,-4.26194,-1.1375465,-2.701758,0.83474123,-2.9067261,90.0
1235,1.8451028,-4.337433,-1.0121613,-2.701758,0.83474123,-2.9067261,90.0
1236,1.8451028,-4.337433,-1.0121613,-2.8515015,0.9409424,-2.8536255,90.0
1237,1.0587971,-3.8256989,-1.6383057,-2.8515015,0.9409424,-2.8536255,90.0
1238,1.0587971,-3.8256989,-1.6383057,-3.1159425,0.93775636,-2.6380372,90.0
1239,0.25045586,-3.4148407,-2.2021027,-3.1159425,0.93775636,-2.6380372,90.0
1240,0.25045586,-3.4148407,-2.2021027,-2.812207,0.74022216,-2.3884645,90.0
1241,0.04760599,-3.2208862,-2.1840935,-2.812207,0.74022216,-2.3884645,90.0
1242,0.04760599,-3.2208862,-2.1840935,-2.0167603,0.45347902,-2.0348146,90.0
1243,0.39671516,-2.8954163,-1.8302574,-2.0167603,0.45347902,-2.0348146,90.0
1244,0.39671516,-2.8954163,-1.8302574,-1.1437867,0.24638672,-1.6779785,90.0
1245,0.75726485,-2.3772812,-1.5842628,-1.1437867,0.24638672,-1.6779785,90.0
1246,0.75726485,-2.3772812,-1.5842628,-0.58304447,0.10195313,-1.3699951,90.0
1247,0.7647352,-1.9432068,-1.4858932,-0.58304447,0.10195313,-1.3699951,90.0
1248,0.7647352,-1.9432068,-1.4858932,-0.24107666,-0.03079834,-1.0365235,90.0
1249,0.6610558,-1.8239288,-1.2011414,-0.24107666,-0.03079834,-1.0365235,90.0
1250,0.6610558,-1.8239288,-1.2011414,0.02442627,-0.19222413,-0.7104859,90.0
1251,0.96939635,-1.9219131,-0.7256737,0.02442627,-0.19222413,-0.7104859,90.0
1252,0.96939635,-1.9219131,-0.7256737,0.18479005,-0.36639404,-0.3727661,90.0
1253,1.8643234,-2.079277,-0.44149017,0.18479005,-0.36639404,-0.3727661,90.0
1254,1.8643234,-2.079277,-0.44149017,0.2347046,-0.42161867,0.040356446,90.0
1255,2.5739906,-1.9772873,-0.49878693,0.2347046,-0.42161867,0.040356446,90.0
1256,2.5739906,-1.9772873,-0.49878693,0.3727661,-0.3069214,0.42799073,90.0
1257,2.5739906,-1.9772873,-0.49878693,0.67331547,-0.60322267,0.991919,90.0
1258,2.5196538,-1.2772446,-0.47637177,0.67331547,-0.60322267,0.991919,90.0
1259,2.379688,-0.28871155,-0.19512177,0.67331547,-0.60322267,0.991919,90.0
1260,2.379688,-0.28871155,-0.19512177,0.94731444,-0.69986576,1.4294678,90.0
1261,2.2779326,0.44657135,0.14602661,0.94731444,-0.69986576,1.4294678,90.0
1262,2.2779326,0.44657135,0.14602661,1.1650269,-0.64782715,1.720459,90.0
1263,1.4782543,0.7149658,0.51514816,1.1650269,-0.64782715,1.720459,90.0
1264,1.4782543,0.7149658,0.51514816,1.3944215,-0.6064087,1.9785279,90.0
1265,1.4782543,0.7149658,0.51514816,1.3944215,-0.6064087,1.9785279,90.0
1266,0.052952558,0.67759705,0.9182701,1.3944215,-0.6064087,1.9785279,90.0
1267,0.052952558,0.67759705,0.9182701,1.910559,-0.811377,2.2440307,90.0
1268,-0.77334845,0.6986542,1.1340904,1.910559,-0.811377,2.2440307,90.0
1269,-0.77334845,0.6986542,1.1340904,2.6868896,-1.0790039,2.5127199,90.0
1270,-0.3380513,1.0349426,0.989521,2.6868896,-1.0790039,2.5127199,90.0
1271,-0.3380513,1.0349426,0.989521,3.4812744,-1.0322754,2.717688,90.0
1272,0.40033534,1.8095322,0.69701004,3.4812744,-1.0322754,2.717688,90.0
1273,0.40033534,1.8095322,0.69701004,3.978296,-0.81668705,2.909912,90.0
1274,0.42096406,2.8131256,0.6386719,3.978296,-0.81668705,2.909912,90.0
1275,0.42096406,2.8131256,0.6386719,4.1938844,-0.53950197,3.09364,90.0
1276,-0.3314905,3.7703247,0.89964676,4.1938844,-0.53950197,3.09364,90.0
1277,-0.3314905,3.7703247,0.89964676,4.1991944,-0.27293703,3.3156006,90.0
1278,-1.2417672,4.633911,1.2683105,4.1991944,-0.27293703,3.3156006,90.0
1279,-1.2417672,4.633911,1.2683105,3.7627075,0.0010620117,3.454724,90.0
1280,-1.8305719,5.251587,1.505043,3.7627075,0.0010620117,3.454724,90.0
1281,-1.8305719,5.251587,1.505043,2.909912,0.3069214,3.618274,90.0
1282,-2.091545,5.383278,1.4702187,2.909912,0.3069214,3.618274,90.0
1283,-2.091545,5.383278,1.4702187,1.8648926,0.541626,3.707483,90.0
1284,-2.2329283,5.0276413,1.1755524,1.8648926,0.541626,3.707483,90.0
1285,-2.2329283,5.0276413,1.1755524,0.8666016,0.6690674,3.7414672,90.0
1286,-2.3474634,4.398529,0.76068115,0.8666016,0.6690674,3.7414672,90.0
1287,-2.3474634,4.398529,0.76068115,0.05628662,0.7189819,3.6873047,90.0
1288,-2.475285,3.6756592,0.4001236,0.05628662,0.7189819,3.6873047,90.0
1289,-2.475285,3.6756592,0.4001236,-0.45772704,0.6966797,3.5503051,90.0
1290,-2.6767735,2.9394913,0.15132523,-0.45772704,0.6966797,3.5503051,90.0
1291,-2.6767735,2.9394913,0.15132523,-0.64782715,0.61278075,3.3060424,90.0
1292,-2.919837,2.2896194,-0.008457184,-0.64782715,0.61278075,3.3060424,90.0
1293,-2.919837,2.2896194,-0.008457184,-0.65207523,0.4980835,2.996997,90.0
1294,-3.1171808,1.8694992,-0.10604477,-0.65207523,0.4980835,2.996997,90.0
1295,-3.1171808,1.8694992,-0.10604477,-0.47365722,0.3812622,2.6040528,90.0
1296,-3.224421,1.8070831,-0.187397,-0.47365722,0.3812622,2.6040528,90.0
1297,-3.224421,1.8070831,-0.187397,-0.27506104,0.270813,2.1367676,90.0
1298,-3.2545004,2.1560516,-0.29408264,-0.27506104,0.270813,2.1367676,90.0
1299,-3.2545004,2.1560516,-0.29408264,-0.17735596,0.14868164,1.6153198,90.0
1300,-3.2102776,2.653885,-0.26706314,-0.17735596,0.14868164,1.6153198,90.0
1301,-3.2102776,2.653885,-0.26706314,-0.1359375,0.008496094,1.0205933,90.0
1302,-2.8648405,2.6322021,0.10926056,-0.1359375,0.008496094,1.0205933,90.0
1303,-2.8648405,2.6322021,0.10926056,-0.13062744,-0.20072022,0.40037844,90.0
1304,-1.8250275,1.7194748,0.66735077,-0.13062744,-0.20072022,0.40037844,90.0
1305,-1.8250275,1.7194748,0.66735077,0.059472658,-0.38869628,-0.2803711,90.0
1306,-0.16647911,0.41360474,0.94895554,0.059472658,-0.38869628,-0.2803711,90.0
1307,-0.16647911,0.41360474,0.94895554,0.24213867,-0.38869628,-0.98129886,90.0
1308,1.367281,-0.47574615,0.91607666,0.24213867,-0.38869628,-0.98129886,90.0
1309,1.367281,-0.47574615,0.91607666,0.3695801,-0.31435546,-1.6195679,90.0
1310,2.0484028,-0.62716675,0.9313507,0.3695801,-0.31435546,-1.6195679,90.0
1311,2.0484028,-0.62716675,0.9313507,0.5798584,-0.1359375,-2.1197755,90.0
1312,2.0407853,-0.38570404,1.2371712,0.5798584,-0.1359375,-2.1197755,90.0
1313,2.0407853,-0.38570404,1.2371712,0.7943848,-0.30373535,-2.6614015,90.0
1314,2.5649648,-0.25650024,1.5471954,0.7943848,-0.30373535,-2.6614015,90.0
1315,2.5649648,-0.25650024,1.5471954,0.79119873,-0.80394286,-3.2699342,90.0
1316,4.267072,-0.43943024,1.4164047,0.79119873,-0.80394286,-3.2699342,90.0
1317,4.267072,-0.43943024,1.4164047,0.55543214,-0.97280276,-3.8296144,90.0
1318,5.7350326,-0.7813797,0.9877968,0.55543214,-0.97280276,-3.8296144,90.0
1319,5.7350326,-0.7813797,0.9877968,-0.083898924,-0.2888672,-4.0239625,90.0
1320,4.9785776,-1.240242,0.9287758,-0.083898924,-0.2888672,-4.0239625,90.0
1321,4.9785776,-1.240242,0.9287758,-1.2053833,0.24001466,-4.2098145,90.0
1322,2.4109385,-1.8206253,1.3496475,-1.2053833,0.24001466,-4.2098145,90.0
1323,2.4109385,-1.8206253,1.3496475,-2.2227905,0.17947999,-4.231055,90.0
1324,0.33978605,-2.3545609,1.4690704,-2.2227905,0.17947999,-4.231055,90.0
1325,0.33978605,-2.3545609,1.4690704,-2.6773317,0.13487549,-4.004846,90.0
1326,-0.102743864,-2.7696,0.9419327,-2.6773317,0.13487549,-4.004846,90.0
1327,-0.102743864,-2.7696,0.9419327,-2.6019287,0.13699952,-3.796692,90.0
1328,0.50137424,-3.0659714,-0.0957222,-2.6019287,0.13699952,-3.796692,90.0
1329,0.50137424,-3.0659714,-0.0957222,-2.3958986,0.29417726,-3.533313,90.0
1330,1.00951,-3.247284,-1.4735031,-2.3958986,0.29417726,-3.533313,90.0
1331,1.00951,-3.247284,-1.4735031,-2.4266968,0.67225343,-3.1987793,90.0
1332,0.76582336,-3.1781693,-2.802864,-2.4266968,0.67225343,-3.1987793,90.0
1333,0.76582336,-3.1781693,-2.802864,-2.9109743,1.0036011,-2.8865478,90.0
1334,0.051001072,-3.0369797,-3.4043427,-2.9109743,1.0036011,-2.8865478,90.0
1335,0.051001072,-3.0369797,-3.4043427,-3.4090576,1.2627319,-2.5934327,90.0
1336,-0.46301985,-3.0802155,-3.2205963,-3.4090576,1.2627319,-2.5934327,90.0
1337,-0.46301985,-3.0802155,-3.2205963,-3.8221803,1.3041505,-2.3895264,90.0
1338,-0.519598,-3.1185532,-2.8681908,-3.8221803,1.3041505,-2.3895264,90.0
1339,-0.519598,-3.1185532,-2.8681908,-4.174768,1.4103516,-2.1112792,90.0
1340,-0.37064672,-3.0779495,-2.7268028,-4.174768,1.4103516,-2.1112792,90.0
1341,-0.37064672,-3.0779495,-2.7268028,-4.35,1.5558472,-1.902063,90.0
1342,-0.4699428,-3.0534515,-2.9767418,-4.35,1.5558472,-1.902063,90.0
1343,-0.4699428,-3.0534515,-2.9767418,-4.314954,1.5643433,-1.8043579,90.0
1344,-0.77910376,-3.0826569,-3.3973846,-4.314954,1.5643433,-1.8043579,90.0
1345,-0.77910376,-3.0826569,-3.3973846,-3.9220092,1.5154908,-1.6153198,90.0
1346,-0.9003582,-3.251915,-3.5865479,-3.9220092,1.5154908,-1.6153198,90.0
1347,-0.9003582,-3.251915,-3.5865479,-3.0097413,1.3137085,-1.5770874,90.0
1348,-0.9003582,-3.251915,-3.5865479,-3.0097413,1.3137085,-1.5770874,90.0
1349,-0.69702005,-3.2645264,-3.525734,-3.0097413,1.3137085,-1.5770874,90.0
1350,-0.69702005,-3.2645264,-3.525734,-1.806482,1.075818,-1.4878784,90.0
1351,-0.32989383,-2.7611694,-2.9361038,-1.806482,1.075818,-1.4878784,90.0
1352,-0.32989383,-2.7611694,-2.9361038,-0.903772,0.92926025,-1.3657471,90.0
1353,-0.09925437,-2.0555496,-1.6299629,-0.903772,0.92926025,-1.3657471,90.0
1354,-0.09925437,-2.0555496,-1.6299629,-0.45666504,0.7423462,-1.3307008,90.0
1355,-0.25458646,-1.3979568,-0.46398926,-0.45666504,0.7423462,-1.3307008,90.0
1356,-0.25458646,-1.3979568,-0.46398926,-0.42799073,0.5777344,-1.171399,90.0
1357,-0.4516182,-0.68652344,0.11702728,-0.42799073,0.5777344,-1.171399,90.0
1358,-0.4516182,-0.68652344,0.11702728,-0.51082766,0.38657227,-0.90802,90.0
1359,0.17115164,-0.31954193,0.75979614,-0.51082766,0.38657227,-0.90802,90.0
1360,0.17115164,-0.31954193,0.75979614,-0.59260255,0.19647217,-0.6425171,90.0
1361,1.5789015,-0.6911087,1.5331802,-0.59260255,0.19647217,-0.6425171,90.0
1362,1.5789015,-0.6911087,1.5331802,-0.90695804,0.31223145,-0.33665773,90.0
1363,2.4420643,-1.5766144,1.9458923,-0.90695804,0.31223145,-0.33665773,90.0
1364,2.4420643,-1.5766144,1.9458923,-1.5048707,0.635083,0.007434082,90.0
1365,1.8123184,-2.4431305,1.9030266,-1.5048707,0.635083,0.007434082,90.0
1366,1.8123184,-2.4431305,1.9030266,-2.0156982,0.7986328,0.32391357,90.0
1367,0.7913953,-3.2281342,1.614891,-2.0156982,0.7986328,0.32391357,90.0
1368,0.7913953,-3.2281342,1.614891,-2.2397828,0.6085327,0.76464844,90.0
1369,1.3102647,-4.6976776,1.1945496,-2.2397828,0.6085327,0.76464844,90.0
1370,1.3102647,-4.6976776,1.1945496,-1.7289551,0.4715332,1.3838013,90.0
1371,2.7676086,-6.0173187,0.2243805,-1.7289551,0.4715332,1.3838013,90.0
1372,2.7676086,-6.0173187,0.2243805,-0.90270996,0.61915284,1.8436524,90.0
1373,2.740723,-4.81295,-1.1329117,-0.90270996,0.61915284,1.8436524,90.0
1374,2.740723,-4.81295,-1.1329117,-0.71154785,0.72323,2.5562623,90.0
1375,1.2018312,-1.5315857,-1.9793167,-0.71154785,0.72323,2.5562623,90.0
1376,1.2018312,-1.5315857,-1.9793167,-0.4354248,0.35577393,3.2890503,90.0
1377,0.2358424,1.1647034,-2.4421577,-0.4354248,0.35577393,3.2890503,90.0
1378,0.2358424,1.1647034,-2.4421577,-0.07540283,0.15505372,3.7690797,90.0
1379,0.2795797,2.0815353,-3.2109184,-0.07540283,0.15505372,3.7690797,90.0
1380,0.2795797,2.0815353,-3.2109184,0.5511841,0.011682129,4.010156,90.0
1381,0.2374577,1.8256302,-4.0044403,0.5511841,0.011682129,4.010156,90.0
1382,0.2374577,1.8256302,-4.0044403,1.6471802,-0.3355957,4.2607913,90.0
1383,-0.12239957,1.5384445,-4.0995483,1.6471802,-0.3355957,4.2607913,90.0
1384,-0.12239957,1.5384445,-4.0995483,2.732556,-0.6202149,4.4753175,90.0
1385,-0.35020238,2.04908,-3.4134293,2.732556,-0.6202149,4.4753175,90.0
1386,-0.35020238,2.04908,-3.4134293,3.3028564,-0.70942384,4.699402,90.0
1387,-0.3763045,3.2391205,-2.394085,3.3028564,-0.70942384,4.699402,90.0
1388,-0.3763045,3.2391205,-2.394085,3.345337,-0.7062378,4.9319825,90.0
1389,-0.5291442,4.4391785,-1.5004234,3.345337,-0.7062378,4.9319825,90.0
1390,-0.5291442,4.4391785,-1.5004234,3.1987793,-0.62127686,5.1996093,90.0
1391,-0.96257323,5.1495132,-0.93872833,3.1987793,-0.62127686,5.1996093,90.0
1392,-0.96257323,5.1495132,-0.93872833,2.977881,-0.6467652,5.493787,90.0
1393,-1.3655176,5.2520065,-0.67360306,2.977881,-0.6467652,5.493787,90.0
1394,-1.3655176,5.2520065,-0.67360306,2.983191,-0.6488892,5.758228,90.0
1395,-1.528437,5.1036224,-0.53739166,2.983191,-0.6488892,5.758228,90.0
1396,-1.528437,5.1036224,-0.53739166,3.1286867,-0.64570314,5.9525757,90.0
1397,-1.4860675,5.2196045,-0.34752655,3.1286867,-0.64570314,5.9525757,90.0
1398,-1.4860675,5.2196045,-0.34752655,3.0893922,-0.64782715,6.060901,90.0
1399,-1.4320548,5.3843765,-0.095905304,3.0893922,-0.64782715,6.060901,90.0
1400,-1.4320548,5.3843765,-0.095905304,3.165857,-0.5968506,6.085327,90.0
1401,-1.6604998,5.45916,0.13290787,3.165857,-0.5968506,6.085327,90.0
1402,-1.6604998,5.45916,0.13290787,3.3315308,-0.60109866,6.057715,90.0
1403,-2.103351,5.7479324,0.4311905,3.3315308,-0.60109866,6.057715,90.0
1404,-2.103351,5.7479324,0.4311905,3.172229,-0.72641605,5.962134,90.0
1405,-2.4089384,6.0571976,0.7530937,3.172229,-0.72641605,5.962134,90.0
1406,-2.4089384,6.0571976,0.7530937,2.9938111,-0.80181885,5.8113284,90.0
1407,-2.4523582,5.966194,0.9286232,2.9938111,-0.80181885,5.8113284,90.0
1408,-2.4523582,5.966194,0.9286232,3.0076172,-1.0790039,5.6637087,90.0
1409,-2.2686005,5.6569366,1.1621628,3.0076172,-1.0790039,5.6637087,90.0
1410,-2.2686005,5.6569366,1.1621628,3.1212525,-1.3498169,5.6329103,90.0
1411,-1.8064208,5.6778946,1.5951729,3.1212525,-1.3498169,5.6329103,90.0
1412,-1.8064208,5.6778946,1.5951729,2.9364624,-1.6025757,5.589368,90.0
1413,-1.0729566,6.060135,1.8795815,2.9364624,-1.6025757,5.589368,90.0
1414,-1.0729566,6.060135,1.8795815,2.4925416,-1.7300171,5.602112,90.0
1415,-0.29344845,6.2437363,1.891777,2.4925416,-1.7300171,5.602112,90.0
1416,-0.29344845,6.2437363,1.891777,2.2780151,-2.0528686,5.539453,90.0
1417,0.5406928,5.912956,1.8635788,2.2780151,-2.0528686,5.539453,90.0
1418,0.5406928,5.912956,1.8635788,2.4829834,-2.461743,5.418384,90.0
1419,1.6318831,5.1426315,1.9637642,2.4829834,-2.461743,5.418384,90.0
1420,1.6318831,5.1426315,1.9637642,2.5074098,-2.6900756,5.45343,90.0
1421,2.6389294,4.5507965,2.3813248,2.5074098,-2.6900756,5.45343,90.0
1422,2.6389294,4.5507965,2.3813248,2.4213867,-2.6847656,5.431128,90.0
1423,3.074364,5.129822,3.4610176,2.4213867,-2.6847656,5.431128,90.0
1424,3.074364,5.129822,3.4610176,2.4776733,-2.7803466,4.985083,90.0
1425,2.9753237,6.5554657,4.802723,2.4776733,-2.7803466,4.985083,90.0
1426,2.9753237,6.5554657,4.802723,2.3980224,-2.8865478,4.338318,90.0
1427,2.7925515,7.658642,5.6823883,2.3980224,-2.8865478,4.338318,90.0
1428,2.7925515,7.658642,5.6823883,2.1049073,-2.8260133,3.6724365,90.0
1429,3.221175,7.470543,6.1237564,2.1049073,-2.8260133,3.6724365,90.0
1430,3.221175,7.470543,6.1237564,2.1282716,-2.5488281,2.7984009,90.0
1431,4.6038446,6.817501,6.5875053,2.1282716,-2.5488281,2.7984009,90.0
1432,4.6038446,6.817501,6.5875053,0.81243896,-2.0029542,0.13062744,90.0
1433,6.2186956,7.411438,5.987667,0.81243896,-2.0029542,0.13062744,90.0
1434,6.2186956,7.411438,5.987667,-1.4974365,-0.7391602,-0.13275146,90.0
1435,5.690057,7.991043,3.3082504,-1.4974365,-0.7391602,-0.13275146,90.0
1436,5.690057,7.991043,3.3082504,-3.1244385,-0.040356446,-1.5547851,90.0
1437,3.2054267,6.5611725,0.59558487,-3.1244385,-0.040356446,-1.5547851,90.0
1438,3.2054267,6.5611725,0.59558487,-4.88313,0.34090576,-2.819641,90.0
1439,0.6942606,2.952942,-0.5240097,-4.88313,0.34090576,-2.819641,90.0
1440,0.6942606,2.952942,-0.5240097,-6.050281,0.9781128,-3.8497925,90.0
1441,-1.1874018,-1.6290054,-0.1443901,-6.050281,0.9781128,-3.8497925,90.0
1442,-1.1874018,-1.6290054,-0.1443901,-6.3072877,1.5622193,-4.810913,90.0
1443,-2.3331614,-5.7021446,0.50626373,-6.3072877,1.5622193,-4.810913,90.0
1444,-2.3331614,-5.7021446,0.50626373,-5.8973513,2.2004883,-5.607422,90.0
1445,-2.939393,-8.368103,0.29683304,-5.8973513,2.2004883,-5.607422,90.0
1446,-2.939393,-8.368103,0.29683304,-5.158191,2.8440673,-6.2286987,90.0
1447,-3.3651865,-9.466602,-0.8665619,-5.158191,2.8440673,-6.2286987,90.0
1448,-3.3651865,-9.466602,-0.8665619,-4.4763794,3.3750732,-6.617395,90.0
1449,-3.5961165,-9.059509,-1.5613289,-4.4763794,3.3750732,-6.617395,90.0
1450,-3.5961165,-9.059509,-1.5613289,-4.2214966,3.5906618,-6.7575808,90.0
1451,-3.754481,-8.235424,-4.152748,-4.2214966,3.5906618,-6.7575808,90.0
1452,-3.754481,-8.235424,-4.152748,-4.2735353,4.1152954,-6.9200683,90.0
1453,-3.754481,-8.235424,-4.152748,-4.2735353,4.1152954,-6.9200683,88.0
1454,-3.497054,-7.3546753,-4.377922,-4.2735353,4.1152954,-6.9200683,88.0
1455,-3.497054,-7.3546753,-4.377922,-4.5082397,4.213001,-6.8276734,88.0
1456,-2.3362665,-6.7156982,-4.9585266,-4.5082397,4.213001,-6.8276734,88.0
1457,-2.3362665,-6.7156982,-4.9585266,-5.4459963,4.3754883,-6.164978,88.0
1458,-1.5172187,-6.880661,-4.6870613,-5.4459963,4.3754883,-6.164978,88.0
1459,-1.5172187,-6.880661,-4.6870613,-5.7454834,4.5379763,-5.9185915,88.0
1460,-0.13372123,-8.4420395,-4.9986496,-5.7454834,4.5379763,-5.9185915,88.0
1461,-0.13372123,-8.4420395,-4.9986496,-6.5908446,5.1231446,-5.178369,88.0
1462,0.022295475,-7.9200516,-5.297344,-6.5908446,5.1231446,-5.178369,88.0
1463,0.022295475,-7.9200516,-5.297344,-6.897766,5.2027955,-4.9341063,88.0
1464,-0.7482647,-6.9985886,-6.8064575,-6.897766,5.2027955,-4.9341063,88.0
1465,-0.7482647,-6.9985886,-6.8064575,-7.593384,5.312183,-4.0313964,88.0
1466,-0.6652987,-5.5765305,-7.0275497,-7.593384,5.312183,-4.0313964,88.0
1467,-0.6652987,-5.5765305,-7.0275497,-7.6294923,5.2813845,-3.7361572,88.0
1468,-1.942261,-4.0276947,-7.17873,-7.6294923,5.2813845,-3.7361572,88.0
1469,-1.942261,-4.0276947,-7.17873,-6.8616576,4.705774,-3.0564697,88.0
1470,-1.6904542,-2.97583,-6.3293,-6.8616576,4.705774,-3.0564697,88.0
1471,-1.6904542,-2.97583,-6.3293,-6.2892337,4.420093,-2.9194703,88.0
1472,-1.9948316,-2.596939,-4.341381,-6.2892337,4.420093,-2.9194703,88.0
1473,-1.9948316,-2.596939,-4.341381,-3.886963,3.4143677,-2.792029,88.0
1474,-1.0195227,-2.300026,-3.4368858,-3.886963,3.4143677,-2.792029,88.0
1475,-1.0195227,-2.300026,-3.4368858,-2.9396484,3.1116943,-2.8663697,88.0
1476,1.2779732,-3.0855637,-2.5951138,-2.9396484,3.1116943,-2.8663697,88.0
1477,1.2779732,-3.0855637,-2.5951138,-0.36639404,2.4171388,-3.259314,88.0
1478,2.0737092,-3.1367645,-2.477995,-0.36639404,2.4171388,-3.259314,88.0
1479,2.0737092,-3.1367645,-2.477995,0.18585205,2.2822633,-3.3803833,88.0
1480,2.8011916,-3.6753922,-3.1742554,0.18585205,2.2822633,-3.3803833,88.0
1481,2.8011916,-3.6753922,-3.1742554,0.98448485,1.8670167,-3.6087158,88.0
1482,2.5615344,-3.2903595,-3.0412598,0.98448485,1.8670167,-3.6087158,88.0
1483,2.5615344,-3.2903595,-3.0412598,1.0556396,1.6673584,-3.6936767,88.0
1484,2.437057,-2.286026,-3.383068,1.0556396,1.6673584,-3.6936767,88.0
1485,2.437057,-2.286026,-3.383068,0.96430665,1.1724609,-3.8816528,88.0
1486,2.9584713,-1.4470215,-2.8145485,0.96430665,1.1724609,-3.8816528,88.0
1487,2.9584713,-1.4470215,-2.8145485,0.7104859,1.0917481,-3.9984741,88.0
1488,3.2599413,-1.8755264,-0.9464512,0.7104859,1.0917481,-3.9984741,88.0
1489,3.2599413,-1.8755264,-0.9464512,0.74659425,0.9398804,-4.049451,88.0
1490,2.7580628,-2.5556107,0.54551315,0.74659425,0.9398804,-4.049451,88.0
1491,2.7580628,-2.5556107,0.54551315,0.904834,0.7338501,-4.1216674,88.0
1492,1.8387134,-2.1751175,0.6180382,0.904834,0.7338501,-4.1216674,88.0
1493,1.8387134,-2.1751175,0.6180382,0.45454103,0.52038574,-4.145032,88.0
1494,1.1797965,-1.7688446,0.4296112,0.45454103,0.52038574,-4.145032,88.0
1495,1.1797965,-1.7688446,0.4296112,0.32178956,0.07646485,-4.010156,88.0
1496,1.3029191,-2.9922638,1.1089363,0.32178956,0.07646485,-4.010156,88.0
1497,1.3029191,-2.9922638,1.1089363,1.5760254,-0.5076416,-3.807312,88.0
1498,1.3123426,-3.1835938,1.3675804,1.5760254,-0.5076416,-3.807312,88.0
1499,1.3123426,-3.1835938,1.3675804,2.0103881,-0.69986576,-3.6936767,88.0
1500,0.5201254,-3.6954117,1.9834919,2.0103881,-0.69986576,-3.6936767,88.0
1501,0.5201254,-3.6954117,1.9834919,2.6815796,-1.0715698,-3.183911,88.0
1502,-1.3839607,-4.12072,2.7333279,2.6815796,-1.0715698,-3.183911,88.0
1503,-1.3839607,-4.12072,2.7333279,3.615088,-1.6524903,-2.3226197,88.0
1504,-2.874991,-3.7808914,3.424614,3.615088,-1.6524903,-2.3226197,88.0
1505,-2.874991,-3.7808914,3.424614,4.68772,-2.2833252,-1.1671509,88.0
1506,-2.6357837,-2.6607819,4.364826,4.68772,-2.2833252,-1.1671509,88.0
1507,-2.6357837,-2.6607819,4.364826,5.3833375,-2.5690064,-0.06159668,88.0
1508,-1.5995572,-2.0727386,6.4576187,5.3833375,-2.5690064,-0.06159668,88.0
1509,-1.5995572,-2.0727386,6.4576187,6.3996825,-2.3927124,0.96430665,88.0
1510,-1.5012034,-1.7725372,9.136177,6.3996825,-2.3927124,0.96430665,88.0
1511,-1.5012034,-1.7725372,9.136177,7.6454225,-2.2493408,1.808606,88.0
1512,-2.102745,-0.5070038,10.522675,7.6454225,-2.2493408,1.808606,88.0
1513,-2.102745,-0.5070038,10.522675,7.8588867,-1.81604,2.805835,88.0
1514,-2.2952209,1.2005615,9.839355,7.8588867,-1.81604,2.805835,88.0
1515,-2.2952209,1.2005615,9.839355,7.044324,-1.3530029,3.0500977,88.0
1516,-0.8458203,2.6607895,5.4918823,7.044324,-1.3530029,3.0500977,88.0
1517,-0.8458203,2.6607895,5.4918823,4.434961,-0.63933104,3.25188,88.0
1518,-0.29965425,2.571495,3.34861,4.434961,-0.63933104,3.25188,88.0
1519,-0.29965425,2.571495,3.34861,3.7489014,-0.46516114,3.1817873,88.0
1520,1.0056746,2.488594,0.124565125,3.7489014,-0.46516114,3.1817873,88.0
1521,1.0056746,2.488594,0.124565125,3.059656,0.015930176,2.9587648,88.0
1522,1.5130236,2.4590836,-1.1718674,3.059656,0.015930176,2.9587648,88.0
1523,1.5130236,2.4590836,-1.1718674,3.071338,0.52675784,2.636975,88.0
1524,1.1336366,2.642311,-0.59669495,3.071338,0.52675784,2.636975,88.0
1525,1.1336366,2.642311,-0.59669495,3.3718872,0.8729736,2.3183715,88.0
1526,0.27155775,2.9476852,0.6921234,3.3718872,0.8729736,2.3183715,88.0
1527,0.27155775,2.9476852,0.6921234,3.5800416,1.1214844,2.086853,88.0
1528,-0.52345204,3.2757492,1.6107407,3.5800416,1.1214844,2.086853,88.0
1529,-0.52345204,3.2757492,1.6107407,3.5726075,1.2510499,1.906311,88.0
1530,-0.78228706,3.5037308,1.7511063,3.5726075,1.2510499,1.906311,88.0
1531,-0.78228706,3.5037308,1.7511063,3.2943604,1.2850342,1.6726685,88.0
1532,-0.2551509,3.4096603,1.2539978,3.2943604,1.2850342,1.6726685,88.0
1533,-0.2551509,3.4096603,1.2539978,2.532898,1.3115845,1.447522,88.0
1534,-0.2551509,3.4096603,1.2539978,1.268042,1.539917,1.270166,88.0
1535,0.8124564,3.0038147,0.3209839,1.268042,1.539917,1.270166,88.0
1536,-1.3377423,3.147911,-3.06958,1.268042,1.539917,1.270166,88.0
1537,-1.3377423,3.147911,-3.06958,-0.27506104,2.1272094,1.3158325,88.0
1538,-1.3377423,3.147911,-3.06958,-1.7427613,2.357666,1.5197388,88.0
1539,-1.3377423,3.147911,-3.06958,-2.5796266,1.724707,1.7916138,88.0
1540,-1.930753,2.3389206,-2.3922348,-2.5796266,1.724707,1.7916138,88.0
1541,-1.930753,2.3389206,-2.3922348,-2.7389283,1.179895,2.0826051,88.0
1542,-1.2084574,1.6356659,-1.7085533,-2.7389283,1.179895,2.0826051,88.0
1543,-1.2084574,1.6356659,-1.7085533,-2.6104248,1.0567017,2.3077514,88.0
1544,-1.2084574,1.6356659,-1.7085533,-2.6104248,1.0567017,2.3077514,88.0
1545,-1.2670833,1.3352051,-1.2753639,-2.6104248,1.0567017,2.3077514,88.0
1546,-1.2670833,1.3352051,-1.2753639,-2.350232,0.83686525,2.5732543,88.0
1547,-2.921052,1.3346176,-0.83709717,-2.350232,0.83686525,2.5732543,88.0
1548,-2.921052,1.3346176,-0.83709717,-1.906311,0.2262085,2.732556,88.0
1549,-4.5695076,1.6050491,-0.29092026,-1.906311,0.2262085,2.732556,88.0
1550,-4.5695076,1.6050491,-0.29092026,-1.1321045,-0.56392825,2.7760987,88.0
1551,-4.5013456,2.1126785,0.19337463,-1.1321045,-0.56392825,2.7760987,88.0
1552,-4.5013456,2.1126785,0.19337463,-0.20496826,-1.0492676,2.6614015,88.0
1553,-3.2417016,2.5744324,0.6151352,-0.20496826,-1.0492676,2.6614015,88.0
1554,-3.2417016,2.5744324,0.6151352,0.5787964,-1.1182984,2.439441,88.0
1555,-2.4340591,2.6061478,1.117878,0.5787964,-1.1182984,2.439441,88.0
1556,-2.4340591,2.6061478,1.117878,1.1968873,-1.1979493,2.1325195,88.0
1557,-2.4882994,2.1857986,1.466835,1.1968873,-1.1979493,2.1325195,88.0
1558,-2.4882994,2.1857986,1.466835,1.4326538,-1.2584839,1.7650635,88.0
1559,-2.7700949,1.8472519,1.4249802,1.4326538,-1.2584839,1.7650635,88.0
1560,-2.7700949,1.8472519,1.4249802,1.350879,-1.1501588,1.3115845,88.0
1561,-2.8113394,1.9496078,1.2955246,1.350879,-1.1501588,1.3115845,88.0
1562,-2.8113394,1.9496078,1.2955246,1.0163453,-1.0418335,0.8591675,88.0
1563,-2.664465,2.3474274,1.2878609,1.0163453,-1.0418335,0.8591675,88.0
1564,-2.664465,2.3474274,1.2878609,0.721106,-0.8527954,0.3536499,88.0
1565,-2.621111,2.7860107,1.2630539,0.721106,-0.8527954,0.3536499,88.0
1566,-2.621111,2.7860107,1.2630539,0.083898924,-0.69136965,-0.19434814,88.0
1567,-2.626381,2.8014603,1.3892746,0.083898924,-0.69136965,-0.19434814,88.0
1568,-2.626381,2.8014603,1.3892746,-0.71791995,-0.7062378,-0.7189819,88.0
1569,-2.187006,1.8644104,1.7546806,-0.71791995,-0.7062378,-0.7189819,88.0
1570,-2.187006,1.8644104,1.7546806,-1.1490967,-0.7434082,-1.3211426,88.0
1571,-1.222187,0.30711365,1.7647552,-1.1490967,-0.7434082,-1.3211426,88.0
1572,-1.222187,0.30711365,1.7647552,-1.2489258,-0.63614506,-1.8925049,88.0
1573,-0.25141907,-0.9230118,1.2581406,-1.2489258,-0.63614506,-1.8925049,88.0
1574,-0.25141907,-0.9230118,1.2581406,-1.3466309,-0.59047854,-2.4065187,88.0
1575,0.48074913,-1.6677551,0.8356743,-1.3466309,-0.59047854,-2.4065187,88.0
1576,0.48074913,-1.6677551,0.8356743,-1.273352,-0.6988037,-2.9407105,88.0
1577,1.2203903,-2.33461,1.0018158,-1.273352,-0.6988037,-2.9407105,88.0
1578,1.2203903,-2.33461,1.0018158,-0.95793456,-0.8496094,-3.4887085,88.0
1579,2.1716003,-2.9657135,1.8254662,-0.95793456,-0.8496094,-3.4887085,88.0
1580,2.1716003,-2.9657135,1.8254662,-0.62977296,-1.0524536,-4.0335207,88.0
1581,3.337842,-3.3669891,2.939682,-0.62977296,-1.0524536,-4.0335207,88.0
1582,3.337842,-3.3669891,2.939682,-0.46728516,-1.2722901,-4.4806275,88.0
1583,4.576426,-3.5565948,3.5258179,-0.46728516,-1.2722901,-4.4806275,88.0
1584,4.576426,-3.5565948,3.5258179,-0.4694092,-1.3402588,-4.793921,88.0
1585,5.4611287,-3.5424423,2.901001,-0.4694092,-1.3402588,-4.793921,88.0
1586,5.4611287,-3.5424423,2.901001,-0.5628662,-1.0386475,-4.8374634,88.0
1587,5.6772404,-3.3206482,1.4692001,-0.5628662,-1.0386475,-4.8374634,88.0
1588,5.6772404,-3.3206482,1.4692001,-0.6488892,-0.86978763,-4.7546268,88.0
1589,5.74366,-3.0211182,0.088703156,-0.6488892,-0.86978763,-4.7546268,88.0
1590,5.74366,-3.0211182,0.088703156,-0.7805786,-0.8963379,-4.623999,88.0
1591,6.2630434,-2.9192352,-1.0973473,-0.7805786,-0.8963379,-4.623999,88.0
1592,6.2630434,-2.9192352,-1.0973473,-0.9781128,-0.5214478,-4.147156,88.0
1593,6.458506,-3.4042969,-2.1205177,-0.9781128,-0.5214478,-4.147156,88.0
1594,6.458506,-3.4042969,-2.1205177,-1.2935303,0.3791382,-3.3283448,88.0
1595,5.096578,-4.2243423,-2.6355286,-1.2935303,0.3791382,-3.3283448,88.0
