,accx,accy,accz,gyrox,gyroy,gyroz,heart rate
0,walk,walk,walk,walk,walk,walk,walk
1,-0.104772955,-0.23325196,0.125,0.0,0.0,0.0,0.0
2,-0.104772955,-0.23325196,0.125,0.0010620117,-0.009558106,-0.014868164,0.0
3,-0.104772955,-0.23325196,0.125,0.008496094,-0.0063720704,0.0031860352,0.0
4,-0.08988526,-0.18644288,0.0229126,0.008496094,-0.0063720704,0.0031860352,0.0
5,-0.05772364,-0.07471582,0.049140625,0.008496094,-0.0063720704,0.0031860352,0.0
6,-0.05772364,-0.07471582,0.049140625,-0.025488282,0.004248047,0.007434082,0.0
7,-0.028381065,0.002641894,0.081854,-0.025488282,0.004248047,0.007434082,0.0
8,-0.028381065,0.002641894,0.081854,-0.07752686,0.025488282,0.0063720704,0.0
9,-5.490929E-4,-6.5748394E-4,0.042729296,-0.07752686,0.025488282,0.0063720704,0.0
10,-5.490929E-4,-6.5748394E-4,0.042729296,-0.078588866,0.032922365,0.0063720704,0.0
11,-5.490929E-4,-6.5748394E-4,0.042729296,-0.06903076,0.016992187,-0.0053100586,0.0
12,0.0070680454,0.016759172,-0.01492545,-0.06903076,0.016992187,-0.0053100586,0.0
13,0.02701674,0.078653924,-0.04560735,-0.06903076,0.016992187,-0.0053100586,0.0
14,0.02701674,0.078653924,-0.04560735,-0.05628662,0.008496094,-0.022302246,0.0
15,0.054950796,0.0725789,-0.067113325,-0.05628662,0.008496094,-0.022302246,0.0
16,0.054950796,0.0725789,-0.067113325,-0.008496094,-0.009558106,-0.050976563,0.0
17,0.052713078,-0.0044490844,-0.08903001,-0.008496094,-0.009558106,-0.050976563,0.0
18,0.052713078,-0.0044490844,-0.08903001,0.04991455,-0.0180542,-0.070092775,0.0
19,0.052713078,-0.0044490844,-0.08903001,0.07540283,-0.038232423,-0.060534667,0.0
20,0.03614019,-0.067011416,-0.06809901,0.07540283,-0.038232423,-0.060534667,0.0
21,0.007977093,-0.07755934,-0.0040641697,0.07540283,-0.038232423,-0.060534667,0.0
22,0.007977093,-0.07755934,-0.0040641697,0.06903076,-0.06265869,-0.052038576,0.0
23,-0.014260415,-0.087328225,0.043745734,0.06903076,-0.06265869,-0.052038576,0.0
24,-0.014260415,-0.087328225,0.043745734,0.06265869,-0.06265869,-0.035046387,0.0
25,-0.031122688,-0.12988456,0.077855475,0.06265869,-0.06265869,-0.035046387,0.0
26,-0.031122688,-0.12988456,0.077855475,0.07434082,-0.060534667,-0.028674318,0.0
27,-0.043928914,-0.13195941,0.10134688,0.07434082,-0.060534667,-0.028674318,0.0
28,-0.043928914,-0.13195941,0.10134688,0.07327881,-0.0637207,-0.021240234,0.0
29,-0.054662175,-0.042017713,0.089793324,0.07327881,-0.0637207,-0.021240234,0.0
30,-0.054662175,-0.042017713,0.089793324,0.010620117,-0.038232423,-0.010620117,0.0
31,-0.04471851,0.05478914,0.038448423,0.010620117,-0.038232423,-0.010620117,0.0
32,-0.04471851,0.05478914,0.038448423,-0.028674318,-0.021240234,-0.0063720704,0.0
33,-0.02521573,0.073115975,-0.006802298,-0.028674318,-0.021240234,-0.0063720704,0.0
34,-0.02521573,0.073115975,-0.006802298,-0.007434082,-0.019116212,-0.0180542,0.0
35,-0.0037175044,0.057906836,-0.016159609,-0.007434082,-0.019116212,-0.0180542,0.0
36,-0.0037175044,0.057906836,-0.016159609,0.0010620117,-0.027612304,-0.03186035,0.0
37,-0.0037175044,0.057906836,-0.016159609,-0.0021240234,-0.025488282,-0.033984374,0.0
38,0.020829707,0.038342074,-0.004358351,-0.0021240234,-0.025488282,-0.033984374,0.0
39,0.028712109,0.0011692643,-0.0029251575,-0.0021240234,-0.025488282,-0.033984374,0.0
40,0.028712109,0.0011692643,-0.0029251575,0.013806152,-0.025488282,-0.02442627,0.0
41,0.02381197,-0.030412242,-0.0060510635,0.013806152,-0.025488282,-0.02442627,0.0
42,0.02381197,-0.030412242,-0.0060510635,0.039294433,-0.029736329,-0.015930176,0.0
43,-0.006780505,-0.07735713,0.025957495,0.039294433,-0.029736329,-0.015930176,0.0
44,-0.006780505,-0.07735713,0.025957495,0.090270996,-0.06159668,-0.007434082,0.0
45,-0.006780505,-0.07735713,0.025957495,0.12213135,-0.057348635,-0.020178223,0.0
46,-0.02357626,-0.11180025,0.039271854,0.12213135,-0.057348635,-0.020178223,0.0
47,0.073302075,-0.09838796,-0.029495604,0.12213135,-0.057348635,-0.020178223,0.0
48,0.073302075,-0.09838796,-0.029495604,-0.019116212,-0.008496094,0.050976563,0.0
49,0.10908112,-0.079381764,-0.08325224,-0.019116212,-0.008496094,0.050976563,0.0
50,0.10908112,-0.079381764,-0.08325224,0.07965088,-0.06584473,0.021240234,0.0
51,0.051998783,0.06370407,-0.09887719,0.07965088,-0.06584473,0.021240234,0.0
52,0.051998783,0.06370407,-0.09887719,0.020178223,-0.057348635,0.0541626,0.0
53,0.034213774,0.22147107,-0.14144306,0.020178223,-0.057348635,0.0541626,0.0
54,0.034213774,0.22147107,-0.14144306,0.016992187,-0.06903076,0.050976563,0.0
55,-0.013351638,0.24227695,-0.16291031,0.016992187,-0.06903076,0.050976563,0.0
56,-0.013351638,0.24227695,-0.16291031,0.029736329,-0.1178833,0.020178223,0.0
57,-0.0375734,0.20340408,-0.117327765,0.029736329,-0.1178833,0.020178223,0.0
58,-0.0375734,0.20340408,-0.117327765,0.038232423,-0.13381349,-0.0053100586,0.0
59,-0.014079716,0.09630481,0.005783785,0.038232423,-0.13381349,-0.0053100586,0.0
60,-0.014079716,0.09630481,0.005783785,0.090270996,-0.12531738,-0.0180542,0.0
61,0.031741597,0.020232327,0.11029109,0.090270996,-0.12531738,-0.0180542,0.0
62,0.031741597,0.020232327,0.11029109,0.07540283,-0.08920898,-0.033984374,0.0
63,0.031741597,0.020232327,0.11029109,0.004248047,-0.07115479,-0.047790527,0.0
64,0.056606658,0.044323068,0.10230758,0.004248047,-0.07115479,-0.047790527,0.0
65,0.047714524,0.051242147,0.044187374,0.004248047,-0.07115479,-0.047790527,0.0
66,0.047714524,0.051242147,0.044187374,-0.033984374,-0.08496094,-0.06478272,0.0
67,0.041223377,-0.07298333,0.035203416,-0.033984374,-0.08496094,-0.06478272,0.0
68,0.041223377,-0.07298333,0.035203416,0.008496094,-0.07646485,-0.058410645,0.0
69,0.053108096,-0.21283004,0.087684214,0.008496094,-0.07646485,-0.058410645,0.0
70,0.053108096,-0.21283004,0.087684214,0.060534667,-0.06159668,-0.04460449,0.0
71,0.045831203,-0.1688358,0.09867521,0.060534667,-0.06159668,-0.04460449,0.0
72,0.045831203,-0.1688358,0.09867521,0.03186035,-0.047790527,-0.043542482,0.0
73,-0.0055713654,0.008461624,0.028317608,0.03186035,-0.047790527,-0.043542482,0.0
74,-0.0055713654,0.008461624,0.028317608,-0.029736329,-0.04991455,-0.04885254,0.0
75,-0.060169984,0.11122487,-0.06252658,-0.029736329,-0.04991455,-0.04885254,0.0
76,-0.060169984,0.11122487,-0.06252658,-0.06265869,-0.029736329,-0.0637207,0.0
77,-0.087503664,0.05827921,-0.07063894,-0.06265869,-0.029736329,-0.0637207,0.0
78,-0.087503664,0.05827921,-0.07063894,-0.039294433,-0.03186035,-0.06584473,0.0
79,-0.077485844,-0.06099382,-0.0010179877,-0.039294433,-0.03186035,-0.06584473,0.0
80,-0.077485844,-0.06099382,-0.0010179877,0.019116212,-0.047790527,-0.0637207,0.0
81,-0.046070706,-0.056229137,0.035513736,0.019116212,-0.047790527,-0.0637207,0.0
82,-0.046070706,-0.056229137,0.035513736,-0.004248047,-0.047790527,-0.07327881,0.0
83,-0.012234982,0.068651944,3.3481792E-4,-0.004248047,-0.047790527,-0.07327881,0.0
84,-0.012234982,0.068651944,3.3481792E-4,-0.0637207,-0.028674318,-0.093457036,0.0
85,0.0121602565,0.14524138,-0.026929412,-0.0637207,-0.028674318,-0.093457036,0.0
86,0.0121602565,0.14524138,-0.026929412,-0.121069334,-0.020178223,-0.11151123,0.0
87,0.026341975,0.10259448,-0.0329449,-0.121069334,-0.020178223,-0.11151123,0.0
88,0.026341975,0.10259448,-0.0329449,-0.11044922,-0.03079834,-0.13381349,0.0
89,0.04764829,0.048176654,-0.09171237,-0.11044922,-0.03079834,-0.13381349,0.0
90,0.04764829,0.048176654,-0.09171237,-0.08283692,-0.03186035,-0.15505372,0.0
91,0.04764829,0.048176654,-0.09171237,-0.08283692,-0.03186035,-0.15505372,100.0
92,0.05362156,0.08252326,-0.15847732,-0.08283692,-0.03186035,-0.15505372,100.0
93,0.05362156,0.08252326,-0.15847732,-0.07752686,-0.019116212,-0.1709839,100.0
94,0.0151994955,0.13462213,-0.16976282,-0.07752686,-0.019116212,-0.1709839,100.0
95,0.0151994955,0.13462213,-0.16976282,-0.06796875,-0.032922365,-0.18797608,100.0
96,-0.030394115,0.08876459,-0.1499582,-0.06796875,-0.032922365,-0.18797608,100.0
97,-0.030394115,0.08876459,-0.1499582,-0.06796875,-0.078588866,-0.24851075,100.0
98,-0.007103378,-0.07308012,-0.05843091,-0.06796875,-0.078588866,-0.24851075,100.0
99,-0.007103378,-0.07308012,-0.05843091,-0.078588866,-0.12956543,-0.32603762,100.0
100,0.10687834,-0.32692114,0.15336514,-0.078588866,-0.12956543,-0.32603762,100.0
101,0.10687834,-0.32692114,0.15336514,-0.029736329,-0.14761963,-0.35152587,100.0
102,0.20339818,-0.5557508,0.37431565,-0.029736329,-0.14761963,-0.35152587,100.0
103,0.20339818,-0.5557508,0.37431565,0.124255374,-0.1709839,-0.30161133,100.0
104,0.22227666,-0.49388042,0.39581484,0.124255374,-0.1709839,-0.30161133,100.0
105,0.22227666,-0.49388042,0.39581484,0.2347046,-0.1901001,-0.22302246,100.0
106,0.15952298,-0.04892513,0.22613673,0.2347046,-0.1901001,-0.22302246,100.0
107,0.15952298,-0.04892513,0.22613673,0.14761963,-0.17416993,-0.16673584,100.0
108,0.003289774,0.43451715,0.06576046,0.14761963,-0.17416993,-0.16673584,100.0
109,0.003289774,0.43451715,0.06576046,-0.012744141,-0.14549561,-0.15823975,100.0
110,-0.18864016,0.4748842,0.006697729,-0.012744141,-0.14549561,-0.15823975,100.0
111,-0.18864016,0.4748842,0.006697729,-0.0010620117,-0.12956543,-0.16461182,100.0
112,-0.3195889,0.14165054,-0.031482637,-0.0010620117,-0.12956543,-0.16461182,100.0
113,-0.3195889,0.14165054,-0.031482637,0.12850343,-0.1444336,-0.16673584,100.0
114,-0.34997043,-0.0875951,-0.11709285,0.12850343,-0.1444336,-0.16673584,100.0
115,-0.34997043,-0.0875951,-0.11709285,0.21558838,-0.15080567,-0.1996582,100.0
116,-0.2720662,-0.054206938,-0.23152828,0.21558838,-0.15080567,-0.1996582,100.0
117,-0.2720662,-0.054206938,-0.23152828,0.21346436,-0.15505372,-0.23364258,100.0
118,-0.14068763,0.023052908,-0.31826705,0.21346436,-0.15505372,-0.23364258,100.0
119,-0.14068763,0.023052908,-0.31826705,0.16354981,-0.1529297,-0.25806886,100.0
120,-0.05333379,0.0023412555,-0.34344423,0.16354981,-0.1529297,-0.25806886,100.0
121,-0.05333379,0.0023412555,-0.34344423,0.11469727,-0.17416993,-0.28355715,100.0
122,-0.0016392022,0.04166793,-0.27654982,0.11469727,-0.17416993,-0.28355715,100.0
123,-0.0016392022,0.04166793,-0.27654982,0.012744141,-0.18054199,-0.2888672,100.0
124,0.06735319,0.109738156,-0.11422081,0.012744141,-0.18054199,-0.2888672,100.0
125,0.06735319,0.109738156,-0.11422081,-0.16992188,-0.14230958,-0.3079834,100.0
126,0.11897045,0.04865478,0.027983695,-0.16992188,-0.14230958,-0.3079834,100.0
127,0.11897045,0.04865478,0.027983695,-0.29417726,-0.118945315,-0.33028564,100.0
128,0.1337872,-0.013627443,0.04782641,-0.29417726,-0.118945315,-0.33028564,100.0
129,0.1337872,-0.013627443,0.04782641,-0.40356445,-0.11044922,-0.36639404,100.0
130,0.12573093,0.0570668,-0.025752544,-0.40356445,-0.11044922,-0.36639404,100.0
131,0.12573093,0.0570668,-0.025752544,-0.5076416,-0.11151123,-0.38657227,100.0
132,0.046788357,0.24356604,-0.0705654,-0.5076416,-0.11151123,-0.38657227,100.0
133,0.046788357,0.24356604,-0.0705654,-0.62340087,-0.098767094,-0.37595215,100.0
134,-0.09480809,0.40110284,-0.070807785,-0.62340087,-0.098767094,-0.37595215,100.0
135,-0.09480809,0.40110284,-0.070807785,-0.6403931,-0.095581055,-0.3334717,100.0
136,-0.19454765,0.38849702,-0.06256664,-0.6403931,-0.095581055,-0.3334717,100.0
137,-0.19454765,0.38849702,-0.06256664,-0.56180423,-0.1263794,-0.2803711,100.0
138,-0.2010849,0.40354663,-0.02722615,-0.56180423,-0.1263794,-0.2803711,100.0
139,-0.2010849,0.40354663,-0.02722615,-0.55543214,-0.13487549,-0.24213867,100.0
140,-0.18331665,0.5855082,0.00483042,-0.55543214,-0.13487549,-0.24213867,100.0
141,-0.18331665,0.5855082,0.00483042,-0.630835,-0.14337158,-0.23151855,100.0
142,-0.2083965,0.85635823,0.041181237,-0.630835,-0.14337158,-0.23151855,100.0
143,-0.2083965,0.85635823,0.041181237,-0.7827026,-0.15505372,-0.23789063,100.0
144,-0.23997158,0.9232092,0.14078191,-0.7827026,-0.15505372,-0.23789063,100.0
145,-0.23997158,0.9232092,0.14078191,-0.91120607,-0.14549561,-0.2442627,100.0
146,-0.27942845,0.6382377,0.30293316,-0.91120607,-0.14549561,-0.2442627,100.0
147,-0.27942845,0.6382377,0.30293316,-0.86553955,-0.14761963,-0.20178223,100.0
148,-0.3649246,0.21170104,0.37651402,-0.86553955,-0.14761963,-0.20178223,100.0
149,-0.3649246,0.21170104,0.37651402,-0.6064087,-0.20603028,-0.12213135,100.0
150,-0.4029016,0.08590138,0.31323516,-0.6064087,-0.20603028,-0.12213135,100.0
151,-0.4029016,0.08590138,0.31323516,-0.43117675,-0.23895264,-0.06903076,100.0
152,-0.2815498,0.28030562,0.23828343,-0.43117675,-0.23895264,-0.06903076,100.0
153,-0.2815498,0.28030562,0.23828343,-0.4333008,-0.21558838,-0.04885254,100.0
154,-0.038850665,0.42212057,0.26206228,-0.4333008,-0.21558838,-0.04885254,100.0
155,-0.038850665,0.42212057,0.26206228,-0.5214478,-0.14868164,-0.06159668,100.0
156,0.20908064,0.27817488,0.35465717,-0.5214478,-0.14868164,-0.06159668,100.0
157,0.20908064,0.27817488,0.35465717,-0.5479981,-0.06265869,-0.047790527,100.0
158,0.32329476,0.03053546,0.38477555,-0.5479981,-0.06265869,-0.047790527,100.0
159,0.32329476,0.03053546,0.38477555,-0.5140137,0.011682129,-0.02442627,100.0
160,0.27877742,0.03825891,0.2983722,-0.5140137,0.011682129,-0.02442627,100.0
161,0.27877742,0.03825891,0.2983722,-0.5479981,0.07646485,-0.004248047,100.0
162,0.15508983,0.2600993,0.19839019,-0.5479981,0.07646485,-0.004248047,100.0
163,0.15508983,0.2600993,0.19839019,-0.6000366,0.121069334,0.012744141,100.0
164,0.022167563,0.34240568,0.13798463,-0.6000366,0.121069334,0.012744141,100.0
165,0.022167563,0.34240568,0.13798463,-0.59472656,0.15080567,0.04141846,100.0
166,-0.09398472,0.19088006,0.110619664,-0.59472656,0.15080567,0.04141846,100.0
167,-0.09398472,0.19088006,0.110619664,-0.46622315,0.16567384,0.07646485,100.0
168,-0.17251444,0.035821676,0.10061729,-0.46622315,0.16567384,0.07646485,100.0
169,-0.17251444,0.035821676,0.10061729,-0.3430298,0.18372802,0.10407715,100.0
170,-0.17864877,0.044184685,0.07264471,-0.3430298,0.18372802,0.10407715,100.0
171,-0.17864877,0.044184685,0.07264471,-0.3069214,0.22727051,0.12850343,100.0
172,-0.12559724,0.13207626,0.031882882,-0.3069214,0.22727051,0.12850343,100.0
173,-0.12559724,0.13207626,0.031882882,-0.3058594,0.2782471,0.16567384,100.0
174,-0.008900642,0.018368483,-0.066583514,-0.3058594,0.2782471,0.16567384,100.0
175,-0.008900642,0.018368483,-0.066583514,-0.2984253,0.32285157,0.20284425,100.0
176,0.11359483,-0.23053229,-0.086640835,-0.2984253,0.32285157,0.20284425,100.0
177,0.11359483,-0.23053229,-0.086640835,-0.22833252,0.3536499,0.24957275,100.0
178,0.24723575,-0.43189895,0.06712532,-0.22833252,0.3536499,0.24957275,100.0
179,0.24723575,-0.43189895,0.06712532,-0.1720459,0.33984375,0.25063476,100.0
180,0.50881153,-0.58609533,0.23792875,-0.1720459,0.33984375,0.25063476,100.0
181,0.50881153,-0.58609533,0.23792875,-0.1985962,0.32816163,0.1359375,100.0
182,0.85413176,-0.6962445,0.37006712,-0.1985962,0.32816163,0.1359375,100.0
183,0.85413176,-0.6962445,0.37006712,-0.3440918,0.40356445,0.057348635,100.0
184,0.9945969,-0.91689545,0.42522848,-0.3440918,0.40356445,0.057348635,100.0
185,0.9945969,-0.91689545,0.42522848,-0.4343628,0.44816896,-0.035046387,100.0
186,0.9648548,-1.2167072,0.41744107,-0.4343628,0.44816896,-0.035046387,100.0
187,0.9648548,-1.2167072,0.41744107,-0.47684327,0.37701416,-0.13168946,100.0
188,0.96808743,-1.3514175,0.5625539,-0.47684327,0.37701416,-0.13168946,100.0
189,0.96808743,-1.3514175,0.5625539,-0.6552612,0.2803711,-0.2527588,100.0
190,0.9457102,-1.2881043,0.8927189,-0.6552612,0.2803711,-0.2527588,100.0
191,0.9457102,-1.2881043,0.8927189,-0.8602295,0.2623169,-0.26975098,100.0
192,0.72017896,-0.97662604,0.977139,-0.8602295,0.2623169,-0.26975098,100.0
193,0.72017896,-0.97662604,0.977139,-1.0513916,0.29417726,-0.16354981,100.0
194,0.72017896,-0.97662604,0.977139,-1.0513916,0.29417726,-0.16354981,99.0
195,0.08701968,-0.43198442,0.41795397,-1.0513916,0.29417726,-0.16354981,99.0
196,0.08701968,-0.43198442,0.41795397,-1.0174073,0.2623169,-0.014868164,99.0
197,-0.8010142,0.11397055,-0.56696737,-1.0174073,0.2623169,-0.014868164,99.0
198,-0.8010142,0.11397055,-0.56696737,-0.77314454,0.16779785,0.13275146,99.0
199,-1.4546785,0.3032736,-1.3402926,-0.77314454,0.16779785,0.13275146,99.0
200,-1.4546785,0.3032736,-1.3402926,-0.3334717,0.014868164,0.20603028,99.0
201,-1.5728005,0.027189195,-1.4585621,-0.3334717,0.014868164,0.20603028,99.0
202,-1.5728005,0.027189195,-1.4585621,0.12319336,-0.16673584,0.17947999,99.0
203,-1.2119269,-0.36154944,-0.95823157,0.12319336,-0.16673584,0.17947999,99.0
204,-1.2119269,-0.36154944,-0.95823157,0.30161133,-0.25063476,0.10513916,99.0
205,-0.6426251,-0.56815803,-0.32076007,0.30161133,-0.25063476,0.10513916,99.0
206,-0.6426251,-0.56815803,-0.32076007,0.27718505,-0.23789063,0.013806152,99.0
207,-0.114270955,-0.58093023,0.0318563,0.27718505,-0.23789063,0.013806152,99.0
208,-0.114270955,-0.58093023,0.0318563,0.1996582,-0.21877442,-0.015930176,99.0
209,0.22472095,-0.41503716,-0.049844563,0.1996582,-0.21877442,-0.015930176,99.0
210,0.22472095,-0.41503716,-0.049844563,0.07434082,-0.13912354,0.007434082,99.0
211,0.2574013,0.019483984,-0.47842547,0.07434082,-0.13912354,0.007434082,99.0
212,0.2574013,0.019483984,-0.47842547,-0.06478272,-0.059472658,0.0541626,99.0
213,0.009241343,0.5766712,-0.96777457,-0.06478272,-0.059472658,0.0541626,99.0
214,0.009241343,0.5766712,-0.96777457,-0.15717773,-0.012744141,0.05628662,99.0
215,-0.3364302,0.8784634,-1.1874155,-0.15717773,-0.012744141,0.05628662,99.0
216,-0.3364302,0.8784634,-1.1874155,-0.17841797,-0.035046387,0.04991455,99.0
217,-0.5912633,0.74353004,-1.0144343,-0.17841797,-0.035046387,0.04991455,99.0
218,-0.5912633,0.74353004,-1.0144343,-0.0637207,-0.060534667,0.020178223,99.0
219,-0.6287724,0.31741923,-0.61257285,-0.0637207,-0.060534667,0.020178223,99.0
220,-0.6287724,0.31741923,-0.61257285,0.11469727,-0.10513916,0.0180542,99.0
221,-0.462515,4.075691E-4,-0.23176968,0.11469727,-0.10513916,0.0180542,99.0
222,-0.462515,4.075691E-4,-0.23176968,0.22089843,-0.14974366,0.0031860352,99.0
223,-0.21783912,0.083224006,-0.058413804,0.22089843,-0.14974366,0.0031860352,99.0
224,-0.21783912,0.083224006,-0.058413804,0.1709839,-0.17735596,-0.0541626,99.0
225,0.003633976,0.3089376,-0.07978767,0.1709839,-0.17735596,-0.0541626,99.0
226,0.003633976,0.3089376,-0.07978767,0.06796875,-0.22196046,-0.11151123,99.0
227,0.17983586,0.28913006,-0.09945023,0.06796875,-0.22196046,-0.11151123,99.0
228,0.17983586,0.28913006,-0.09945023,0.04991455,-0.25594482,-0.15611573,99.0
229,0.31477934,0.003581889,0.002361238,0.04991455,-0.25594482,-0.15611573,99.0
230,0.31477934,0.003581889,0.002361238,0.095581055,-0.26337892,-0.16036378,99.0
231,0.31114966,-0.26576242,0.11211848,0.095581055,-0.26337892,-0.16036378,99.0
232,0.31114966,-0.26576242,0.11211848,0.14018555,-0.26550293,-0.16354981,99.0
233,0.14827275,-0.33530283,0.15411127,0.14018555,-0.26550293,-0.16354981,99.0
234,0.14827275,-0.33530283,0.15411127,0.19116211,-0.33134767,-0.1901001,99.0
235,0.048501015,-0.30837896,0.2580058,0.19116211,-0.33134767,-0.1901001,99.0
236,0.048501015,-0.30837896,0.2580058,0.1731079,-0.41524658,-0.26868898,99.0
237,0.22290725,-0.36420807,0.5528524,0.1731079,-0.41524658,-0.26868898,99.0
238,0.22290725,-0.36420807,0.5528524,0.059472658,-0.4322388,-0.36427003,99.0
239,0.54208314,-0.57383716,0.9082121,0.059472658,-0.4322388,-0.36427003,99.0
240,0.54208314,-0.57383716,0.9082121,-0.013806152,-0.4056885,-0.4067505,99.0
241,0.7494502,-0.6624511,1.0556346,-0.013806152,-0.4056885,-0.4067505,99.0
242,0.7494502,-0.6624511,1.0556346,-0.07752686,-0.35895997,-0.4056885,99.0
243,0.67919886,-0.38809073,0.88596284,-0.07752686,-0.35895997,-0.4056885,99.0
244,0.67919886,-0.38809073,0.88596284,-0.16567384,-0.33028564,-0.40462646,99.0
245,0.46793184,-0.08253074,0.5269587,-0.16567384,-0.33028564,-0.40462646,99.0
246,0.46793184,-0.08253074,0.5269587,-0.22833252,-0.3993164,-0.52888185,99.0
247,0.6692307,-0.11933267,0.37165248,-0.22833252,-0.3993164,-0.52888185,99.0
248,0.6692307,-0.11933267,0.37165248,-0.42055663,-0.43117675,-0.7593384,99.0
249,1.2185755,-0.40573227,0.6591506,-0.42055663,-0.43117675,-0.7593384,99.0
250,1.2185755,-0.40573227,0.6591506,-0.86341554,-0.23151855,-0.83898926,99.0
251,1.3163643,-0.58700037,0.9450451,-0.86341554,-0.23151855,-0.83898926,99.0
252,1.3163643,-0.58700037,0.9450451,-0.93350834,-0.06265869,-0.72216797,99.0
253,0.702652,-0.3111652,0.58760357,-0.93350834,-0.06265869,-0.72216797,99.0
254,0.702652,-0.3111652,0.58760357,-0.7189819,0.08920898,-0.5076416,99.0
255,-0.05960691,0.22411466,-0.32830584,-0.7189819,0.08920898,-0.5076416,99.0
256,-0.05960691,0.22411466,-0.32830584,-0.30373535,0.07646485,-0.3706421,99.0
257,-0.3049121,0.5937449,-1.0938337,-0.30373535,0.07646485,-0.3706421,99.0
258,-0.3049121,0.5937449,-1.0938337,-0.04141846,0.070092775,-0.37489015,99.0
259,-0.0068812966,0.58927816,-1.1601865,-0.04141846,0.070092775,-0.37489015,99.0
260,-0.0068812966,0.58927816,-1.1601865,0.025488282,0.10513916,-0.5065796,99.0
261,0.46004677,0.413903,-0.6632567,0.025488282,0.10513916,-0.5065796,99.0
262,0.46004677,0.413903,-0.6632567,-0.24638672,0.25913087,-0.6754395,99.0
263,0.66272736,0.36546078,-0.18489003,-0.24638672,0.25913087,-0.6754395,99.0
264,0.66272736,0.36546078,-0.18489003,-0.6595093,0.4725952,-0.815625,99.0
265,0.36315298,0.41863817,-0.19218692,-0.6595093,0.4725952,-0.815625,99.0
266,0.36315298,0.41863817,-0.19218692,-0.8867798,0.631897,-0.8772217,99.0
267,-0.35332525,0.42315516,-0.6299825,-0.8867798,0.631897,-0.8772217,99.0
268,-0.35332525,0.42315516,-0.6299825,-0.7943848,0.635083,-0.82836914,99.0
269,-1.1088076,0.3980334,-1.0306095,-0.7943848,0.635083,-0.82836914,99.0
270,-1.1088076,0.3980334,-1.0306095,-0.4980835,0.5150757,-0.727478,99.0
271,-1.4595193,0.43755513,-1.0619266,-0.4980835,0.5150757,-0.727478,99.0
272,-1.4595193,0.43755513,-1.0619266,-0.2782471,0.39188233,-0.62340087,99.0
273,-1.3441048,0.49629658,-0.7884451,-0.2782471,0.39188233,-0.62340087,99.0
274,-1.3441048,0.49629658,-0.7884451,-0.23258057,0.3419678,-0.541626,99.0
275,-1.041751,0.4773473,-0.46050465,-0.23258057,0.3419678,-0.541626,99.0
276,-1.041751,0.4773473,-0.46050465,-0.2262085,0.31116945,-0.49171144,99.0
277,-0.7781152,0.4065849,-0.24250036,-0.2262085,0.31116945,-0.49171144,99.0
278,-0.7781152,0.4065849,-0.24250036,-0.21240234,0.2782471,-0.44816896,99.0
279,-0.584748,0.31570983,-0.15280157,-0.21240234,0.2782471,-0.44816896,99.0
280,-0.584748,0.31570983,-0.15280157,-0.14761963,0.24213867,-0.42055663,99.0
281,-0.36455137,0.17168409,-0.06851816,-0.14761963,0.24213867,-0.42055663,99.0
282,-0.36455137,0.17168409,-0.06851816,-0.059472658,0.20921631,-0.40356445,99.0
283,-0.049966276,-0.0030824244,0.16029775,-0.059472658,0.20921631,-0.40356445,99.0
284,-0.049966276,-0.0030824244,0.16029775,-0.05522461,0.24213867,-0.37489015,99.0
285,0.20551038,-0.015222281,0.41194183,-0.05522461,0.24213867,-0.37489015,99.0
286,0.20551038,-0.015222281,0.41194183,-0.14018555,0.3164795,-0.3079834,99.0
287,0.22341707,0.23550284,0.4160403,-0.14018555,0.3164795,-0.3079834,99.0
288,0.22341707,0.23550284,0.4160403,-0.25806886,0.38338622,-0.2538208,99.0
289,0.03881666,0.5280263,0.19256121,-0.25806886,0.38338622,-0.2538208,99.0
290,0.03881666,0.5280263,0.19256121,-0.33771974,0.41418457,-0.20496826,99.0
291,-0.2047621,0.5498502,0.02475214,-0.33771974,0.41418457,-0.20496826,99.0
292,-0.2047621,0.5498502,0.02475214,-0.28780517,0.40993652,-0.15717773,99.0
293,-0.3358922,0.27525616,0.0754658,-0.28780517,0.40993652,-0.15717773,99.0
294,-0.3358922,0.27525616,0.0754658,-0.11682129,0.3717041,-0.11682129,99.0
295,-0.23785442,0.02274394,0.29180574,-0.11682129,0.3717041,-0.11682129,99.0
296,-0.23785442,0.02274394,0.29180574,-0.06903076,0.3727661,-0.09133301,99.0
297,0.02838099,-0.050921023,0.5080662,-0.06903076,0.3727661,-0.09133301,99.0
298,0.02838099,-0.050921023,0.5080662,-0.121069334,0.3993164,-0.093457036,99.0
299,0.31782198,-0.11700636,0.62998813,-0.121069334,0.3993164,-0.093457036,99.0
300,0.31782198,-0.11700636,0.62998813,-0.15186767,0.39082032,-0.095581055,99.0
301,0.57990456,-0.34609532,0.67606086,-0.15186767,0.39082032,-0.095581055,99.0
302,0.57990456,-0.34609532,0.67606086,-0.24107666,0.362146,-0.13275146,99.0
303,0.86946565,-0.8309901,0.7443399,-0.24107666,0.362146,-0.13275146,99.0
304,0.86946565,-0.8309901,0.7443399,-0.3462158,0.18903808,-0.3525879,99.0
305,1.3493689,-1.4340426,1.1647835,-0.3462158,0.18903808,-0.3525879,99.0
306,1.3493689,-1.4340426,1.1647835,-0.51188964,0.07434082,-0.4598511,99.0
307,1.3493689,-1.4340426,1.1647835,-0.51188964,0.07434082,-0.4598511,99.0
308,1.6287627,-1.6216725,1.7545074,-0.51188964,0.07434082,-0.4598511,99.0
309,1.6287627,-1.6216725,1.7545074,-0.9855469,0.17629395,-0.39082032,99.0
310,1.1286817,-1.0760856,1.5897388,-0.9855469,0.17629395,-0.39082032,99.0
311,1.1286817,-1.0760856,1.5897388,-1.1013062,0.16036378,-0.23258057,99.0
312,0.11643404,-0.0810833,0.55257726,-1.1013062,0.16036378,-0.23258057,99.0
313,0.11643404,-0.0810833,0.55257726,-1.0588257,0.09133301,-0.08071289,99.0
314,-0.79634255,0.5507339,-0.5129553,-1.0588257,0.09133301,-0.08071289,99.0
315,-0.79634255,0.5507339,-0.5129553,-0.7317261,-0.010620117,0.093457036,99.0
316,-1.3082776,0.46496463,-1.0480717,-0.7317261,-0.010620117,0.093457036,99.0
317,-1.3082776,0.46496463,-1.0480717,-0.24320069,-0.13912354,0.22089843,99.0
318,-1.3276402,0.07646391,-1.0852103,-0.24320069,-0.13912354,0.22089843,99.0
319,-1.3276402,0.07646391,-1.0852103,0.25594482,-0.30479738,0.19434814,99.0
320,-0.8357694,-0.28992748,-0.7138836,0.25594482,-0.30479738,0.19434814,99.0
321,-0.8357694,-0.28992748,-0.7138836,0.50233155,-0.37489015,0.124255374,99.0
322,-0.16121808,-0.56256944,-0.10496917,0.50233155,-0.37489015,0.124255374,99.0
323,-0.16121808,-0.56256944,-0.10496917,0.544812,-0.32603762,0.050976563,99.0
324,0.32559097,-0.7074042,0.31148362,0.544812,-0.32603762,0.050976563,99.0
325,0.32559097,-0.7074042,0.31148362,0.5734863,-0.26656494,0.021240234,99.0
326,0.5684562,-0.6498345,0.2251879,0.5734863,-0.26656494,0.021240234,99.0
327,0.5684562,-0.6498345,0.2251879,0.4980835,-0.16036378,0.011682129,99.0
328,0.6375408,-0.35375434,-0.24157822,0.4980835,-0.16036378,0.011682129,99.0
329,0.6375408,-0.35375434,-0.24157822,0.3345337,-0.012744141,-0.012744141,99.0
330,0.558458,0.11860782,-0.72441494,0.3345337,-0.012744141,-0.012744141,99.0
331,0.558458,0.11860782,-0.72441494,0.118945315,0.115759276,-0.028674318,99.0
332,0.28374147,0.53031105,-0.98192453,0.118945315,0.115759276,-0.028674318,99.0
333,0.28374147,0.53031105,-0.98192453,-0.04460449,0.18691407,-0.03079834,99.0
334,-0.16480368,0.6872249,-0.97751963,-0.04460449,0.18691407,-0.03079834,99.0
335,-0.16480368,0.6872249,-0.97751963,-0.08283692,0.19222413,0.008496094,99.0
336,-0.6189157,0.6252194,-0.83056307,-0.08283692,0.19222413,0.008496094,99.0
337,-0.6189157,0.6252194,-0.83056307,0.07327881,0.08814698,0.040356446,99.0
338,-0.84881914,0.51481175,-0.62834203,0.07327881,0.08814698,0.040356446,99.0
339,-0.84881914,0.51481175,-0.62834203,0.23045655,-0.03079834,0.022302246,99.0
340,-0.7658229,0.42387334,-0.33308136,0.23045655,-0.03079834,0.022302246,99.0
341,-0.7658229,0.42387334,-0.33308136,0.30479738,-0.09451904,-0.021240234,99.0
342,-0.5170895,0.32285112,-0.027536869,0.30479738,-0.09451904,-0.021240234,99.0
343,-0.5170895,0.32285112,-0.027536869,0.29417726,-0.09451904,-0.08071289,99.0
344,-0.28588837,0.27815396,0.056437314,0.29417726,-0.09451904,-0.08071289,99.0
345,-0.28588837,0.27815396,0.056437314,0.27506104,-0.07646485,-0.16142578,99.0
346,-0.14409158,0.28831905,-0.09181303,0.27506104,-0.07646485,-0.16142578,99.0
347,-0.14409158,0.28831905,-0.09181303,0.21983643,-0.07965088,-0.23364258,99.0
348,-0.0813255,0.24700047,-0.2323494,0.21983643,-0.07965088,-0.23364258,99.0
349,-0.0813255,0.24700047,-0.2323494,0.1539917,-0.08283692,-0.30479738,99.0
350,-0.0702728,0.08868924,-0.20727849,0.1539917,-0.08283692,-0.30479738,99.0
351,-0.0702728,0.08868924,-0.20727849,0.14230958,-0.11151123,-0.34090576,99.0
352,-0.06787598,-0.16026199,-0.10868168,0.14230958,-0.11151123,-0.34090576,99.0
353,-0.06787598,-0.16026199,-0.10868168,0.18691407,-0.13168946,-0.36002198,99.0
354,-0.03296292,-0.43536294,0.015093267,0.18691407,-0.13168946,-0.36002198,99.0
355,-0.03296292,-0.43536294,0.015093267,0.30054933,-0.18372802,-0.39613038,99.0
356,0.10411063,-0.5972527,0.22616154,0.30054933,-0.18372802,-0.39613038,99.0
357,0.10411063,-0.5972527,0.22616154,0.29099122,-0.20390625,-0.4354248,99.0
358,0.3407104,-0.6229316,0.42066312,0.29099122,-0.20390625,-0.4354248,99.0
359,0.3407104,-0.6229316,0.42066312,0.16248779,-0.20284425,-0.5097656,99.0
360,0.5729345,-0.59779596,0.4782175,0.16248779,-0.20284425,-0.5097656,99.0
361,0.5729345,-0.59779596,0.4782175,0.008496094,-0.20390625,-0.5607422,99.0
362,0.6471416,-0.6685566,0.44320634,0.008496094,-0.20390625,-0.5607422,99.0
363,0.6471416,-0.6685566,0.44320634,-0.06478272,-0.23364258,-0.61702883,99.0
364,0.76659024,-1.004877,0.5096921,-0.06478272,-0.23364258,-0.61702883,99.0
365,0.76659024,-1.004877,0.5096921,-0.0021240234,-0.36320803,-0.78164065,99.0
366,1.1898347,-1.1480178,0.7578757,-0.0021240234,-0.36320803,-0.78164065,99.0
367,1.1898347,-1.1480178,0.7578757,-0.2814331,-0.4067505,-0.901648,99.0
368,1.5699952,-0.62631226,0.9207171,-0.2814331,-0.4067505,-0.901648,99.0
369,1.5699952,-0.62631226,0.9207171,-0.8506714,-0.27612305,-1.0120972,99.0
370,1.4076807,0.27645266,0.63110495,-0.8506714,-0.27612305,-1.0120972,99.0
371,1.4076807,0.27645266,0.63110495,-1.2021973,-0.083898924,-0.89846194,99.0
372,0.5611788,1.0820997,-0.18386117,-1.2021973,-0.083898924,-0.89846194,99.0
373,0.5611788,1.0820997,-0.18386117,-1.2425537,0.12531738,-0.7593384,99.0
374,-0.508906,1.4923034,-1.19444,-1.2425537,0.12531738,-0.7593384,99.0
375,-0.508906,1.4923034,-1.19444,-0.817749,0.14974366,-0.6796875,99.0
376,-0.98362625,1.711433,-1.8170633,-0.817749,0.14974366,-0.6796875,99.0
377,-0.98362625,1.711433,-1.8170633,-0.4258667,0.08283692,-0.75615233,99.0
378,-0.48907387,2.0424862,-1.7058967,-0.4258667,0.08283692,-0.75615233,99.0
379,-0.48907387,2.0424862,-1.7058967,-0.62127686,0.08496094,-1.0163453,99.0
380,0.5560553,2.2919235,-1.1215899,-0.62127686,0.08496094,-1.0163453,99.0
381,0.5560553,2.2919235,-1.1215899,-1.2202514,0.16248779,-1.3933594,99.0
382,1.2831621,2.0877016,-0.5939882,-1.2202514,0.16248779,-1.3933594,99.0
383,1.2831621,2.0877016,-0.5939882,-1.9519776,0.270813,-1.722583,99.0
384,1.2282753,1.5083449,-0.41842782,-1.9519776,0.270813,-1.722583,99.0
385,1.2282753,1.5083449,-0.41842782,-2.6868896,0.40462646,-1.9583496,99.0
386,0.59862363,0.92119014,-0.5131724,-2.6868896,0.40462646,-1.9583496,99.0
387,0.59862363,0.92119014,-0.5131724,-3.240198,0.49383545,-2.075171,99.0
388,-0.19333017,0.52562404,-0.70956135,-3.240198,0.49383545,-2.075171,99.0
389,-0.19333017,0.52562404,-0.70956135,-3.4972045,0.44498292,-2.1473877,99.0
390,-0.81446636,0.50649786,-0.85422134,-3.4972045,0.44498292,-2.1473877,99.0
391,-0.81446636,0.50649786,-0.85422134,-3.9156373,0.3430298,-2.151636,99.0
392,-1.1171249,0.73687553,-0.831656,-3.9156373,0.3430298,-2.151636,99.0
393,-1.1171249,0.73687553,-0.831656,-4.5379763,0.25063476,-2.1314576,99.0
394,-1.1405871,0.7193711,-0.6104665,-4.5379763,0.25063476,-2.1314576,99.0
395,-1.1405871,0.7193711,-0.6104665,-4.995703,0.1709839,-2.177124,99.0
396,-1.1405871,0.7193711,-0.6104665,-4.995703,0.1709839,-2.177124,99.0
397,-0.9662051,0.10614872,-0.2749822,-4.995703,0.1709839,-2.177124,99.0
398,-0.9662051,0.10614872,-0.2749822,-4.8077273,0.10938721,-2.3109376,99.0
399,-0.7340847,-0.71099186,0.09602976,-4.8077273,0.10938721,-2.3109376,99.0
400,-0.7340847,-0.71099186,0.09602976,-4.4137206,-0.08602295,-2.4967897,99.0
401,-0.42401093,-1.1347237,0.44100833,-4.4137206,-0.08602295,-2.4967897,99.0
402,-0.42401093,-1.1347237,0.44100833,-4.244861,-0.12319336,-2.7336183,99.0
403,-0.10310036,-1.2771881,0.69401765,-4.244861,-0.12319336,-2.7336183,99.0
404,-0.10310036,-1.2771881,0.69401765,-3.9602418,-0.090270996,-2.9577026,99.0
405,0.023061723,-1.3983008,0.88319266,-3.9602418,-0.090270996,-2.9577026,99.0
406,0.023061723,-1.3983008,0.88319266,-3.5726075,-0.0637207,-3.1297486,99.0
407,0.005619794,-1.5143071,0.97778213,-3.5726075,-0.0637207,-3.1297486,99.0
408,0.005619794,-1.5143071,0.97778213,-3.180725,-0.0031860352,-3.1934693,99.0
409,-0.07770631,-1.6459062,0.93778,-3.180725,-0.0031860352,-3.1934693,99.0
410,-0.07770631,-1.6459062,0.93778,-2.7707887,0.0361084,-3.1711671,99.0
411,-0.21530226,-1.7942885,0.8091841,-2.7707887,0.0361084,-3.1711671,99.0
412,-0.21530226,-1.7942885,0.8091841,-2.350232,0.021240234,-3.0660279,99.0
413,-0.20929015,-1.9589416,0.71861196,-2.350232,0.021240234,-3.0660279,99.0
414,-0.20929015,-1.9589416,0.71861196,-1.9317993,-0.023364259,-2.9003541,99.0
415,0.022509277,-2.1104028,0.7210199,-1.9317993,-0.023364259,-2.9003541,99.0
416,0.022509277,-2.1104028,0.7210199,-1.5579712,-0.04141846,-2.6497192,99.0
417,0.22923788,-2.1560836,0.7280122,-1.5579712,-0.04141846,-2.6497192,99.0
418,0.22923788,-2.1560836,0.7280122,-1.3317627,-0.058410645,-2.3141236,99.0
419,0.16383463,-2.0452037,0.6068727,-1.3317627,-0.058410645,-2.3141236,99.0
420,0.16383463,-2.0452037,0.6068727,-1.2468017,-0.0998291,-1.9317993,99.0
421,0.039905578,-1.8816221,0.4643922,-1.2468017,-0.0998291,-1.9317993,99.0
422,0.039905578,-1.8816221,0.4643922,-1.1278565,-0.17735596,-1.5208008,99.0
423,0.3112946,-1.717529,0.39175302,-1.1278565,-0.17735596,-1.5208008,99.0
424,0.3112946,-1.717529,0.39175302,-1.0683838,-0.28568116,-1.1406006,99.0
425,1.5922852,-1.7012691,0.42712313,-1.0683838,-0.28568116,-1.1406006,99.0
426,1.5922852,-1.7012691,0.42712313,-0.99510497,-0.38657227,-0.8814697,99.0
427,3.125989,-1.8318405,0.43426442,-0.99510497,-0.38657227,-0.8814697,99.0
428,3.125989,-1.8318405,0.43426442,-1.1140503,-0.21877442,-0.5703003,99.0
429,2.5093117,-1.6003966,0.36688176,-1.1140503,-0.21877442,-0.5703003,99.0
430,2.5093117,-1.6003966,0.36688176,-1.2478638,-0.15505372,-0.25594482,99.0
431,-0.067355394,-0.93944836,0.4747066,-1.2478638,-0.15505372,-0.25594482,99.0
432,-0.067355394,-0.93944836,0.4747066,-1.1618408,-0.2527588,0.1996582,99.0
433,-2.3010402,-0.257833,0.6909714,-1.1618408,-0.2527588,0.1996582,99.0
434,-2.3010402,-0.257833,0.6909714,-0.7657105,-0.3419678,0.6839356,99.0
435,-3.3295162,0.25948048,0.7740905,-0.7657105,-0.3419678,0.6839356,99.0
436,-3.3295162,0.25948048,0.7740905,-0.2347046,-0.4725952,1.0821899,99.0
437,-3.1462302,0.45508194,0.6679175,-0.2347046,-0.4725952,1.0821899,99.0
438,-3.1462302,0.45508194,0.6679175,0.45772704,-0.5798584,1.3391968,99.0
439,-1.9999676,0.51660466,0.46590137,0.45772704,-0.5798584,1.3391968,99.0
440,-1.9999676,0.51660466,0.46590137,1.0821899,-0.5915405,1.44646,99.0
441,-0.57995456,0.72713876,0.29225236,1.0821899,-0.5915405,1.44646,99.0
442,-0.57995456,0.72713876,0.29225236,1.3976074,-0.4885254,1.4528321,99.0
443,0.58519405,1.0078585,0.20168519,1.3976074,-0.4885254,1.4528321,99.0
444,0.58519405,1.0078585,0.20168519,1.4666382,-0.31223145,1.4071655,99.0
445,1.4187045,1.3089237,0.015620589,1.4666382,-0.31223145,1.4071655,99.0
446,1.4187045,1.3089237,0.015620589,1.2563599,-0.13381349,1.4326538,99.0
447,1.8962919,1.7421098,-0.42290395,1.2563599,-0.13381349,1.4326538,99.0
448,1.8962919,1.7421098,-0.42290395,0.83474123,-0.087084964,1.5802735,99.0
449,2.0383103,2.0240102,-0.86481243,0.83474123,-0.087084964,1.5802735,99.0
450,2.0383103,2.0240102,-0.86481243,0.6403931,-0.20178223,1.8362182,99.0
451,1.8589199,1.9603459,-0.8829876,0.6403931,-0.20178223,1.8362182,99.0
452,1.8589199,1.9603459,-0.8829876,0.70305175,-0.30479738,1.983838,99.0
453,1.5055441,1.868057,-0.67299163,0.70305175,-0.30479738,1.983838,99.0
454,1.5055441,1.868057,-0.67299163,1.5282348,-0.5161377,2.4160767,99.0
455,1.2954388,1.8458617,-0.4508201,1.5282348,-0.5161377,2.4160767,99.0
456,1.2954388,1.8458617,-0.4508201,1.8680786,-0.53737795,2.5307739,99.0
457,1.0046737,2.5191088,-0.50610286,1.8680786,-0.53737795,2.5307739,99.0
458,1.0046737,2.5191088,-0.50610286,1.893567,-0.46516114,2.704944,99.0
459,0.856925,2.6962318,-0.8152461,1.893567,-0.46516114,2.704944,99.0
460,0.856925,2.6962318,-0.8152461,1.6376221,-0.4609131,2.6635253,99.0
461,-0.07278538,3.2483308,-1.7837521,1.6376221,-0.4609131,2.6635253,99.0
462,-0.07278538,3.2483308,-1.7837521,0.79332274,-0.5809204,2.3789062,99.0
463,-0.096497536,2.8689528,-1.6300168,0.79332274,-0.5809204,2.3789062,99.0
464,-0.096497536,2.8689528,-1.6300168,0.63720703,-0.6180908,2.2546508,99.0
465,-0.1462655,1.9754357,-1.3928685,0.63720703,-0.6180908,2.2546508,99.0
466,-0.1462655,1.9754357,-1.3928685,0.9218262,-0.7083618,1.8171021,99.0
467,-0.0852375,1.5568135,-1.1294925,0.9218262,-0.7083618,1.8171021,99.0
468,-0.0852375,1.5568135,-1.1294925,1.1246704,-0.7508423,1.629126,99.0
469,-0.9949479,1.4090252,-0.944268,1.1246704,-0.7508423,1.629126,99.0
470,-0.9949479,1.4090252,-0.944268,1.2308716,-0.94412845,1.0567017,99.0
471,-1.1647083,1.2989366,-0.813056,1.2308716,-0.94412845,1.0567017,99.0
472,-1.1647083,1.2989366,-0.813056,1.178833,-1.0301514,0.8421753,99.0
473,-1.7965616,1.1573255,-0.48135304,1.178833,-1.0301514,0.8421753,99.0
474,-1.7965616,1.1573255,-0.48135304,1.0503296,-1.178833,0.15505372,99.0
475,-1.5379329,0.8121395,-0.21539235,1.0503296,-1.178833,0.15505372,99.0
476,-1.5379329,0.8121395,-0.21539235,0.9781128,-1.1947632,-0.009558106,99.0
477,-0.7970577,-0.38516378,0.38924623,0.9781128,-1.1947632,-0.009558106,99.0
478,-0.7970577,-0.38516378,0.38924623,1.0110352,-1.2255615,-0.41312256,99.0
479,-0.3963009,-0.88516974,0.52744913,1.0110352,-1.2255615,-0.41312256,99.0
480,-0.3963009,-0.88516974,0.52744913,1.1267945,-1.1937011,-0.5140137,99.0
481,0.31270784,-1.8136778,1.1384144,1.1267945,-1.1937011,-0.5140137,99.0
482,0.31270784,-1.8136778,1.1384144,1.5208008,-0.99722904,-0.81243896,99.0
483,0.1924026,-1.6552391,1.0534806,1.5208008,-0.99722904,-0.81243896,99.0
484,0.1924026,-1.6552391,1.0534806,1.5080566,-0.9420044,-0.9483765,99.0
485,0.06728876,-1.4685762,1.0042957,1.5080566,-0.9420044,-0.9483765,99.0
486,0.06728876,-1.4685762,1.0042957,1.0779419,-0.8814697,-1.1172364,99.0
487,0.16316938,-1.4809766,1.0415957,1.0779419,-0.8814697,-1.1172364,99.0
488,0.16316938,-1.4809766,1.0415957,0.17841797,-0.8336792,-1.2786621,99.0
489,0.46849942,-1.5139073,1.4896121,0.17841797,-0.8336792,-1.2786621,99.0
490,0.46849942,-1.5139073,1.4896121,-1.0790039,-0.5734863,-1.4252198,99.0
491,0.8594065,-1.8720024,1.9636501,-1.0790039,-0.5734863,-1.4252198,99.0
492,0.8594065,-1.8720024,1.9636501,-1.6556762,-0.23045655,-1.5271729,99.0
493,1.9961678,-3.5920234,1.4549167,-1.6556762,-0.23045655,-1.5271729,99.0
494,1.9961678,-3.5920234,1.4549167,-1.5016845,0.07646485,-1.3699951,99.0
495,1.9116802,-3.5520978,0.8551077,-1.5016845,0.07646485,-1.3699951,99.0
496,1.9116802,-3.5520978,0.8551077,-1.5154908,0.21240234,-1.2372437,99.0
497,1.4200912,-3.2708774,0.25190848,-1.5154908,0.21240234,-1.2372437,99.0
498,1.4200912,-3.2708774,0.25190848,-2.0156982,0.44604492,-0.9154541,99.0
499,-0.39964485,-2.2488432,1.0468149,-2.0156982,0.44604492,-0.9154541,99.0
500,-0.39964485,-2.2488432,1.0468149,-2.0156982,0.44604492,-0.9154541,98.0
501,-0.39964485,-2.2488432,1.0468149,-2.795215,0.6595093,-0.4704712,98.0
502,-2.6759782,-1.6220849,2.361524,-2.795215,0.6595093,-0.4704712,98.0
503,-2.6759782,-1.6220849,2.361524,-1.7310791,0.65207523,0.012744141,98.0
504,-4.2501698,-0.67512155,2.3003645,-1.7310791,0.65207523,0.012744141,98.0
505,-4.2501698,-0.67512155,2.3003645,-0.21240234,0.44710693,0.33878174,98.0
506,-4.2654924,1.2226956,0.7656698,-0.21240234,0.44710693,0.33878174,98.0
507,-4.2654924,1.2226956,0.7656698,0.2793091,0.46622315,0.51932377,98.0
508,-2.8885412,2.8821604,-0.87338936,0.2793091,0.46622315,0.51932377,98.0
509,-2.8885412,2.8821604,-0.87338936,0.55968016,0.5809204,0.56392825,98.0
510,-1.3424981,3.2526643,-1.8281671,0.55968016,0.5809204,0.56392825,98.0
511,-1.3424981,3.2526643,-1.8281671,1.0513916,0.66588134,0.6117188,98.0
512,-0.20347834,2.26595,-2.4473238,1.0513916,0.66588134,0.6117188,98.0
513,-0.20347834,2.26595,-2.4473238,1.357251,0.5522461,0.53525394,98.0
514,1.1438092,0.89133656,-2.9003396,1.357251,0.5522461,0.53525394,98.0
515,1.1438092,0.89133656,-2.9003396,1.264856,0.44923097,0.54375,98.0
516,2.2303183,-0.19773395,-2.6482623,1.264856,0.44923097,0.54375,98.0
517,2.2303183,-0.19773395,-2.6482623,0.33134767,0.3791382,0.66481936,98.0
518,1.8130511,-0.7872033,-1.5011661,0.33134767,0.3791382,0.66481936,98.0
519,1.8130511,-0.7872033,-1.5011661,-0.20921631,0.24851075,0.68924564,98.0
520,0.43612203,-0.85962105,0.035151124,-0.20921631,0.24851075,0.68924564,98.0
521,0.43612203,-0.85962105,0.035151124,0.04248047,0.12531738,0.86341554,98.0
522,-0.439347,-0.619191,1.2486165,0.04248047,0.12531738,0.86341554,98.0
523,-0.439347,-0.619191,1.2486165,1.5006226,0.023364259,0.75721437,98.0
524,-0.6859503,0.61856323,1.7518473,1.5006226,0.023364259,0.75721437,98.0
525,-0.6859503,0.61856323,1.7518473,2.2185426,0.011682129,0.70198977,98.0
526,-0.7656059,2.4408834,1.644349,2.2185426,0.011682129,0.70198977,98.0
527,-0.7656059,2.4408834,1.644349,1.6046997,0.08602295,0.60959476,98.0
528,-0.6893158,3.3576505,0.93344796,1.6046997,0.08602295,0.60959476,98.0
529,-0.6893158,3.3576505,0.93344796,0.4959595,0.14868164,0.4980835,98.0
530,-0.4812622,2.546289,-0.16339791,0.4959595,0.14868164,0.4980835,98.0
531,-0.4812622,2.546289,-0.16339791,0.118945315,0.20284425,0.3525879,98.0
532,-0.5281006,1.1572826,-0.84635556,0.118945315,0.20284425,0.3525879,98.0
533,-0.5281006,1.1572826,-0.84635556,-0.15505372,0.05522461,0.2527588,98.0
534,-0.8599683,0.1367147,-0.7525728,-0.15505372,0.05522461,0.2527588,98.0
535,-0.8599683,0.1367147,-0.7525728,-0.18054199,0.05522461,0.1178833,98.0
536,-1.0159776,-0.81015944,0.19032462,-0.18054199,0.05522461,0.1178833,98.0
537,-1.0159776,-0.81015944,0.19032462,0.06903076,0.06796875,0.08602295,98.0
538,-0.787892,-1.3048781,1.2456923,0.06903076,0.06796875,0.08602295,98.0
539,-0.787892,-1.3048781,1.2456923,0.03079834,0.17735596,0.11257324,98.0
540,-0.3015294,-1.3109313,1.5462244,0.03079834,0.17735596,0.11257324,98.0
541,-0.3015294,-1.3109313,1.5462244,0.21558838,0.22089843,0.26019287,98.0
542,0.027721763,-0.94409424,1.0360761,0.21558838,0.22089843,0.26019287,98.0
543,0.027721763,-0.94409424,1.0360761,0.4258667,0.13381349,0.40037844,98.0
544,0.27774382,-0.69133496,0.12969089,0.4258667,0.13381349,0.40037844,98.0
545,0.27774382,-0.69133496,0.12969089,0.5787964,0.050976563,0.5065796,98.0
546,1.1577542,-1.4188639,-0.34541714,0.5787964,0.050976563,0.5065796,98.0
547,1.1577542,-1.4188639,-0.34541714,1.2754761,0.02442627,0.6446411,98.0
548,2.640986,-2.2028768,0.11807549,1.2754761,0.02442627,0.6446411,98.0
549,2.640986,-2.2028768,0.11807549,1.6163819,0.040356446,0.7051758,98.0
550,3.1838093,-1.57601,0.90234613,1.6163819,0.040356446,0.7051758,98.0
551,3.1838093,-1.57601,0.90234613,0.5341919,0.37595215,0.8496094,98.0
552,2.0792742,-0.7330858,1.386867,0.5341919,0.37595215,0.8496094,98.0
553,2.0792742,-0.7330858,1.386867,0.025488282,0.5968506,0.67225343,98.0
554,0.9482215,-0.7023988,1.4175746,0.025488282,0.5968506,0.67225343,98.0
555,0.9482215,-0.7023988,1.4175746,-0.11151123,0.41524658,0.49171144,98.0
556,0.7639606,-1.0214039,0.7787497,-0.11151123,0.41524658,0.49171144,98.0
557,0.7639606,-1.0214039,0.7787497,-0.7168579,0.25806886,0.43117675,98.0
558,1.1522939,-1.1613858,-0.24640942,-0.7168579,0.25806886,0.43117675,98.0
559,1.1522939,-1.1613858,-0.24640942,-1.0513916,0.022302246,0.5979126,98.0
560,1.1608977,-0.4307809,-0.750924,-1.0513916,0.022302246,0.5979126,98.0
561,1.1608977,-0.4307809,-0.750924,-1.0736939,-0.08496094,0.6690674,98.0
562,-0.04081309,1.4616009,-0.86651075,-1.0736939,-0.08496094,0.6690674,98.0
563,-0.04081309,1.4616009,-0.86651075,-0.6064087,-0.3440918,0.40993652,98.0
564,-1.4743253,3.5039487,-1.3469074,-0.6064087,-0.3440918,0.40993652,98.0
565,-1.4743253,3.5039487,-1.3469074,-0.39294434,-0.63933104,0.17629395,98.0
566,-1.8452562,4.557224,-2.0188832,-0.39294434,-0.63933104,0.17629395,98.0
567,-1.8452562,4.557224,-2.0188832,-0.60109866,-0.8241211,-0.087084964,98.0
568,-1.4021938,3.8850858,-2.3913763,-0.60109866,-0.8241211,-0.087084964,98.0
569,-1.4021938,3.8850858,-2.3913763,-0.4725952,-0.8973999,-0.30161133,98.0
570,-0.92807823,1.3861938,-1.9954863,-0.4725952,-0.8973999,-0.30161133,98.0
571,-0.92807823,1.3861938,-1.9954863,-0.08814698,-1.0014771,-0.5703003,98.0
572,-0.5967839,-1.4440235,-1.3238305,-0.08814698,-1.0014771,-0.5703003,98.0
573,-0.5967839,-1.4440235,-1.3238305,0.6775635,-1.2149414,-0.51188964,98.0
574,-0.12519324,-2.4037786,-0.7422431,0.6775635,-1.2149414,-0.51188964,98.0
575,-0.12519324,-2.4037786,-0.7422431,0.27293703,-1.1384766,-0.6690674,98.0
576,0.62186694,-1.5753422,-0.25469542,0.27293703,-1.1384766,-0.6690674,98.0
577,0.62186694,-1.5753422,-0.25469542,0.06903076,-0.9653687,-0.6202149,98.0
578,0.94956875,-1.1161453,-0.05570948,0.06903076,-0.9653687,-0.6202149,98.0
579,0.94956875,-1.1161453,-0.05570948,0.8336792,-0.94412845,-0.59897465,98.0
580,0.6020378,-0.59250116,0.15283233,0.8336792,-0.94412845,-0.59897465,98.0
581,0.6020378,-0.59250116,0.15283233,1.0120972,-0.98448485,-0.53525394,98.0
582,-0.11547673,0.70324516,0.28017604,1.0120972,-0.98448485,-0.53525394,98.0
583,-0.11547673,0.70324516,0.28017604,0.63933104,-0.87615967,-0.5894165,98.0
584,-1.2391832,1.5608506,0.12814474,0.63933104,-0.87615967,-0.5894165,98.0
585,-1.2391832,1.5608506,0.12814474,0.48746338,-1.0216553,-0.70092773,98.0
586,-2.2930067,1.5585194,0.065735996,0.48746338,-1.0216553,-0.70092773,98.0
587,-2.2930067,1.5585194,0.065735996,0.3462158,-1.1384766,-0.8336792,98.0
588,-2.3044615,1.3923843,0.34587497,0.3462158,-1.1384766,-0.8336792,98.0
589,-2.3044615,1.3923843,0.34587497,-0.41418457,-1.0142212,-1.1342286,98.0
590,-1.6010277,0.84786737,0.41824052,-0.41418457,-1.0142212,-1.1342286,98.0
591,-1.6010277,0.84786737,0.41824052,-0.93350834,-1.0120972,-1.2287476,98.0
592,-1.029101,-0.797292,0.06377944,-0.93350834,-1.0120972,-1.2287476,98.0
593,-1.029101,-0.797292,0.06377944,-0.87191164,-1.1522827,-1.179895,98.0
594,-0.396523,-2.709208,0.09819153,-0.87191164,-1.1522827,-1.179895,98.0
595,-0.396523,-2.709208,0.09819153,-0.40462646,-1.178833,-1.0747559,98.0
596,0.5224911,-3.3051596,0.9858164,-0.40462646,-1.178833,-1.0747559,98.0
597,0.5224911,-3.3051596,0.9858164,-1.171399,-0.8973999,-0.81881106,98.0
598,1.2276853,-2.6391716,1.7219661,-1.171399,-0.8973999,-0.81881106,98.0
599,1.2276853,-2.6391716,1.7219661,-2.3003175,-0.4715332,-0.4970215,98.0
600,1.2276853,-2.6391716,1.7219661,-2.3003175,-0.4715332,-0.4970215,98.0
601,1.2282298,-2.0075288,1.535532,-2.3003175,-0.4715332,-0.4970215,98.0
602,1.2282298,-2.0075288,1.535532,-1.5197388,-0.3419678,-0.3345337,98.0
603,0.9731967,-1.2112477,1.0450271,-1.5197388,-0.3419678,-0.3345337,98.0
604,0.9731967,-1.2112477,1.0450271,-1.2319336,-0.12213135,-0.27612305,98.0
605,1.0516043,-0.2822795,0.5532459,-1.2319336,-0.12213135,-0.27612305,98.0
606,1.0516043,-0.2822795,0.5532459,-1.1066163,0.15080567,-0.24638672,98.0
607,1.2253411,-0.3860898,-0.45534027,-1.1066163,0.15080567,-0.24638672,98.0
608,1.2253411,-0.3860898,-0.45534027,-0.635083,0.2793091,-0.14974366,98.0
609,1.2595698,-0.39876437,-1.1556296,-0.635083,0.2793091,-0.14974366,98.0
610,1.2595698,-0.39876437,-1.1556296,-0.070092775,0.31116945,-0.28568116,98.0
611,1.1465962,0.9387889,-0.5983319,-0.070092775,0.31116945,-0.28568116,98.0
612,1.1465962,0.9387889,-0.5983319,-0.8623535,0.5798584,-0.24744873,98.0
613,0.93351233,1.575433,0.19573635,-0.8623535,0.5798584,-0.24744873,98.0
614,0.93351233,1.575433,0.19573635,-0.49489745,0.77739257,-0.38763428,98.0
615,1.337911,0.5386911,0.0892185,-0.49489745,0.77739257,-0.38763428,98.0
616,1.337911,0.5386911,0.0892185,-0.41099855,1.0386475,-0.5798584,98.0
617,1.9563762,-0.85935473,-1.045654,-0.41099855,1.0386475,-0.5798584,98.0
618,1.9563762,-0.85935473,-1.045654,-0.5703003,1.1575928,-0.70092773,98.0
619,1.366578,-1.5163901,-2.1842895,-0.5703003,1.1575928,-0.70092773,98.0
620,1.366578,-1.5163901,-2.1842895,-0.9876709,1.1108643,-0.6180908,98.0
621,-0.4398675,-0.7640519,-2.2133617,-0.9876709,1.1108643,-0.6180908,98.0
622,-0.4398675,-0.7640519,-2.2133617,-1.3179566,0.96430665,-0.18797608,98.0
623,-2.1477437,1.0685558,-0.9767685,-1.3179566,0.96430665,-0.18797608,98.0
624,-2.1477437,1.0685558,-0.9767685,-1.5505371,0.814563,0.17629395,98.0
625,-2.4358585,2.404869,0.7078552,-1.5505371,0.814563,0.17629395,98.0
626,-2.4358585,2.404869,0.7078552,-0.63720703,0.7412842,0.47365722,98.0
627,-1.4053396,2.7208314,1.5915527,-0.63720703,0.7412842,0.47365722,98.0
628,-1.4053396,2.7208314,1.5915527,-0.72216797,0.75296634,0.6775635,98.0
629,-0.2324382,1.8778249,1.2481934,-0.72216797,0.75296634,0.6775635,98.0
630,-0.2324382,1.8778249,1.2481934,-1.1469727,0.7763306,0.84111327,98.0
631,0.23060217,0.018348783,0.3271314,-1.1469727,0.7763306,0.84111327,98.0
632,0.23060217,0.018348783,0.3271314,-0.8506714,0.6435791,1.0280274,98.0
633,0.31762385,-1.4916077,-0.105628885,-0.8506714,0.6435791,1.0280274,98.0
634,0.31762385,-1.4916077,-0.105628885,0.004248047,0.61065674,1.0407715,98.0
635,0.121994615,-1.4563354,0.1693421,0.004248047,0.61065674,1.0407715,98.0
636,0.121994615,-1.4563354,0.1693421,0.9611206,0.66269535,0.8857178,98.0
637,-0.607104,0.42041752,0.18100592,0.9611206,0.66269535,0.8857178,98.0
638,-0.607104,0.42041752,0.18100592,0.92501223,0.5479981,0.7391602,98.0
639,-1.3378683,2.210272,-0.30739254,0.92501223,0.5479981,0.7391602,98.0
640,-1.3378683,2.210272,-0.30739254,0.8442993,0.32285157,0.6287109,98.0
641,-1.5787419,2.4521165,-0.59892917,0.8442993,0.32285157,0.6287109,98.0
642,-1.5787419,2.4521165,-0.59892917,0.8007569,0.115759276,0.60109866,98.0
643,-1.2566704,1.6451039,-0.45292264,0.8007569,0.115759276,0.60109866,98.0
644,-1.2566704,1.6451039,-0.45292264,0.71367186,-0.07540283,0.55755615,98.0
645,-0.4783954,0.92898595,0.13752761,0.71367186,-0.07540283,0.55755615,98.0
646,-0.4783954,0.92898595,0.13752761,0.46622315,-0.10407715,0.54587406,98.0
647,0.43321383,0.39140654,0.738318,0.46622315,-0.10407715,0.54587406,98.0
648,0.43321383,0.39140654,0.738318,0.22196046,-0.14974366,0.58198243,98.0
649,0.9415174,-0.02669406,0.95852554,0.22196046,-0.14974366,0.58198243,98.0
650,0.9415174,-0.02669406,0.95852554,0.0180542,-0.17947999,0.55755615,98.0
651,0.7586949,-0.010844946,0.9485831,0.0180542,-0.17947999,0.55755615,98.0
652,0.7586949,-0.010844946,0.9485831,-0.35683593,-0.20072022,0.4704712,98.0
653,0.0072245,0.104873896,0.8957073,-0.35683593,-0.20072022,0.4704712,98.0
654,0.0072245,0.104873896,0.8957073,-0.630835,-0.22833252,0.29417726,98.0
655,-0.83748215,-0.021862626,0.99948823,-0.630835,-0.22833252,0.29417726,98.0
656,-0.83748215,-0.021862626,0.99948823,-0.9398804,-0.14549561,0.1731079,98.0
657,-1.341824,-0.59568834,1.14024,-0.9398804,-0.14549561,0.1731079,98.0
658,-1.341824,-0.59568834,1.14024,-0.84111327,-0.06265869,0.1274414,98.0
659,-1.27562,-1.5294316,1.0475924,-0.84111327,-0.06265869,0.1274414,98.0
660,-1.27562,-1.5294316,1.0475924,-0.17629395,-0.053100586,0.16036378,98.0
661,-0.6693485,-2.4667215,0.39909685,-0.17629395,-0.053100586,0.16036378,98.0
662,-0.6693485,-2.4667215,0.39909685,0.5501221,-0.2527588,0.33771974,98.0
663,0.78790987,-3.3761606,-0.5765233,0.5501221,-0.2527588,0.33771974,98.0
664,0.78790987,-3.3761606,-0.5765233,1.2425537,-0.49277344,0.5501221,98.0
665,3.4012141,-3.509046,-0.03839159,1.2425537,-0.49277344,0.5501221,98.0
666,3.4012141,-3.509046,-0.03839159,1.0036011,-0.43011475,0.8028809,98.0
667,4.470654,-1.8118756,1.7360103,1.0036011,-0.43011475,0.8028809,98.0
668,4.470654,-1.8118756,1.7360103,-0.17735596,-0.023364259,1.2149414,98.0
669,2.3810031,0.19611716,1.9141378,-0.17735596,-0.023364259,1.2149414,98.0
670,2.3810031,0.19611716,1.9141378,-0.6775635,0.20284425,0.9409424,98.0
671,0.2736746,-0.002786398,0.20900798,-0.6775635,0.20284425,0.9409424,98.0
672,0.2736746,-0.002786398,0.20900798,0.0541626,-0.14868164,0.6595093,98.0
673,0.09514809,-1.2106032,-1.7555109,0.0541626,-0.14868164,0.6595093,98.0
674,0.09514809,-1.2106032,-1.7555109,0.44710693,-0.59260255,0.43967286,98.0
675,0.7872757,-1.5672863,-2.6645284,0.44710693,-0.59260255,0.43967286,98.0
676,0.7872757,-1.5672863,-2.6645284,1.0195312,-0.8442993,0.4704712,98.0
677,0.36498904,-0.046602488,-2.2216253,1.0195312,-0.8442993,0.4704712,98.0
678,0.36498904,-0.046602488,-2.2216253,1.7034668,-1.1023682,0.22833252,98.0
679,-1.3962901,3.652391,-0.9796561,1.7034668,-1.1023682,0.22833252,98.0
680,-1.3962901,3.652391,-0.9796561,0.8772217,-1.2128174,0.033984374,98.0
681,-2.615616,6.1062756,0.18093574,0.8772217,-1.2128174,0.033984374,98.0
682,-2.615616,6.1062756,0.18093574,0.32178956,-1.2298096,-0.31435546,98.0
683,-2.677344,5.163646,0.4843238,0.32178956,-1.2298096,-0.31435546,98.0
684,-2.677344,5.163646,0.4843238,0.32709962,-1.09281,-0.98873293,98.0
685,-2.0005667,2.288998,-0.3891645,0.32709962,-1.09281,-0.98873293,98.0
686,-2.0005667,2.288998,-0.3891645,0.028674318,-1.1363525,-1.2786621,98.0
687,-0.9198259,-1.0762601,-2.0518224,0.028674318,-1.1363525,-1.2786621,98.0
688,-0.9198259,-1.0762601,-2.0518224,-0.40462646,-0.8995239,-1.5016845,98.0
689,-0.050094128,-3.7502537,-3.3188262,-0.40462646,-0.8995239,-1.5016845,98.0
690,-0.050094128,-3.7502537,-3.3188262,-0.6924316,-0.7954468,-1.2945923,98.0
691,0.2988041,-4.23138,-3.3182323,-0.6924316,-0.7954468,-1.2945923,98.0
692,0.2988041,-4.23138,-3.3182323,-0.5894165,-0.75509036,-1.1076783,98.0
693,0.15797639,-2.6715784,-2.2999837,-0.5894165,-0.75509036,-1.1076783,98.0
694,0.15797639,-2.6715784,-2.2999837,0.1731079,-0.80181885,-0.8963379,98.0
695,-0.1793806,-0.23945999,-1.0364103,0.1731079,-0.80181885,-0.8963379,98.0
696,-0.1793806,-0.23945999,-1.0364103,0.7986328,-0.811377,-0.8644776,98.0
697,-0.427733,1.9222504,-0.09852505,0.7986328,-0.811377,-0.8644776,98.0
698,-0.427733,1.9222504,-0.09852505,0.94625247,-0.8071289,-0.9324463,98.0
699,-0.519933,3.0117872,0.35549378,0.94625247,-0.8071289,-0.9324463,98.0
700,-0.519933,3.0117872,0.35549378,0.6223389,-0.79119873,-1.0513916,98.0
701,-0.41966957,2.748065,0.40796685,0.6223389,-0.79119873,-1.0513916,98.0
702,-0.41966957,2.748065,0.40796685,0.20496826,-0.8400513,-1.083252,98.0
703,-0.41966957,2.748065,0.40796685,0.20496826,-0.8400513,-1.083252,97.0
704,-0.13189042,1.4170922,0.29048467,0.20496826,-0.8400513,-1.083252,97.0
705,-0.13189042,1.4170922,0.29048467,0.17523193,-0.7975708,-1.085376,97.0
706,0.29291296,0.041718125,0.4100001,0.17523193,-0.7975708,-1.085376,97.0
707,0.29291296,0.041718125,0.4100001,-0.019116212,-0.7975708,-0.97492677,97.0
708,0.67311215,-0.5532955,0.7734957,-0.019116212,-0.7975708,-0.97492677,97.0
709,0.67311215,-0.5532955,0.7734957,-0.027612304,-0.7317261,-0.9324463,97.0
710,0.84873146,-0.4903903,1.0805764,-0.027612304,-0.7317261,-0.9324463,97.0
711,0.84873146,-0.4903903,1.0805764,-0.13912354,-0.6903076,-0.7943848,97.0
712,0.75704914,-0.3194729,1.2388264,-0.13912354,-0.6903076,-0.7943848,97.0
713,0.75704914,-0.3194729,1.2388264,-0.13062744,-0.6435791,-0.71579593,97.0
714,0.4562741,-0.2909543,1.2374235,-0.13062744,-0.6435791,-0.71579593,97.0
715,0.4562741,-0.2909543,1.2374235,-0.11151123,-0.5851685,-0.6796875,97.0
716,0.13528295,-0.35046363,1.0304174,-0.11151123,-0.5851685,-0.6796875,97.0
717,0.13528295,-0.35046363,1.0304174,-0.30479738,-0.50445557,-0.6403931,97.0
718,-0.036500208,-0.5465086,0.71592325,-0.30479738,-0.50445557,-0.6403931,97.0
719,-0.036500208,-0.5465086,0.71592325,-0.40250245,-0.4078125,-0.66481936,97.0
720,0.041563995,-0.90831286,0.6358367,-0.40250245,-0.4078125,-0.66481936,97.0
721,0.041563995,-0.90831286,0.6358367,-0.5479981,-0.30054933,-0.6223389,97.0
722,0.28555834,-1.3740503,1.0064843,-0.5479981,-0.30054933,-0.6223389,97.0
723,0.28555834,-1.3740503,1.0064843,-0.55968016,-0.10938721,-0.5894165,97.0
724,0.58790714,-1.290146,1.6602168,-0.55968016,-0.10938721,-0.5894165,97.0
725,0.58790714,-1.290146,1.6602168,-1.2032593,0.07646485,-0.45560303,97.0
726,0.9756968,-0.9842774,2.079443,-1.2032593,0.07646485,-0.45560303,97.0
727,0.9756968,-0.9842774,2.079443,-1.806482,0.3090454,-0.26337892,97.0
728,1.2184846,-1.3170729,1.9988571,-1.806482,0.3090454,-0.26337892,97.0
729,1.2184846,-1.3170729,1.9988571,-1.4613281,0.541626,-0.28674316,97.0
730,1.1374831,-1.8629234,1.4764051,-1.4613281,0.541626,-0.28674316,97.0
731,1.1374831,-1.8629234,1.4764051,-1.0120972,0.7540283,-0.26656494,97.0
732,1.3645031,-2.4613225,0.11750102,-1.0120972,0.7540283,-0.26656494,97.0
733,1.3645031,-2.4613225,0.11750102,-0.3355957,0.815625,-0.23895264,97.0
734,1.9255625,-2.8299468,-1.6431208,-0.3355957,0.815625,-0.23895264,97.0
735,1.9255625,-2.8299468,-1.6431208,0.27293703,0.7890747,-0.1901001,97.0
736,1.6513875,-2.209795,-2.5439522,0.27293703,0.7890747,-0.1901001,97.0
737,1.6513875,-2.209795,-2.5439522,1.1321045,0.63614506,-0.035046387,97.0
738,0.046695948,-0.114112854,-2.1558282,1.1321045,0.63614506,-0.035046387,97.0
739,0.046695948,-0.114112854,-2.1558282,2.0008302,0.4991455,0.09133301,97.0
740,-1.8967985,3.0919983,-1.0339766,2.0008302,0.4991455,0.09133301,97.0
741,-1.8967985,3.0919983,-1.0339766,2.1526978,0.42905274,0.19328614,97.0
742,-2.7468576,5.6136746,-0.13810658,2.1526978,0.42905274,0.19328614,97.0
743,-2.7468576,5.6136746,-0.13810658,1.4517701,0.4609131,0.3812622,97.0
744,-1.9434335,5.3499,-0.2355097,1.4517701,0.4609131,0.3812622,97.0
745,-1.9434335,5.3499,-0.2355097,0.72004396,0.50870365,0.6690674,97.0
746,-0.12132394,2.8412724,-0.9004439,0.72004396,0.50870365,0.6690674,97.0
747,-0.12132394,2.8412724,-0.9004439,-0.35683593,0.52675784,0.9696167,97.0
748,1.4044789,0.13181925,-1.0629699,-0.35683593,0.52675784,0.9696167,97.0
749,1.4044789,0.13181925,-1.0629699,-0.7476563,0.61065674,1.1289185,97.0
750,1.8322135,-1.6366589,-0.35834712,-0.7476563,0.61065674,1.1289185,97.0
751,1.8322135,-1.6366589,-0.35834712,-0.30161133,0.71154785,1.1586548,97.0
752,0.98221374,-1.5467783,0.74674517,-0.30161133,0.71154785,1.1586548,97.0
753,0.98221374,-1.5467783,0.74674517,0.15186767,0.84536135,1.1724609,97.0
754,-0.86801314,0.0056559443,1.2869103,0.15186767,0.84536135,1.1724609,97.0
755,-0.86801314,0.0056559443,1.2869103,0.29099122,0.99085695,1.1342286,97.0
756,-2.685182,1.4640096,0.5909663,0.29099122,0.99085695,1.1342286,97.0
757,-2.685182,1.4640096,0.5909663,0.17841797,0.9600586,0.93138427,97.0
758,-3.466859,1.8116497,-0.52716595,0.17841797,0.9600586,0.93138427,97.0
759,-3.466859,1.8116497,-0.52716595,-0.06903076,0.61065674,0.7890747,97.0
760,-2.9511485,0.76958346,-0.6109051,-0.06903076,0.61065674,0.7890747,97.0
761,-2.9511485,0.76958346,-0.6109051,0.24532472,0.24320069,0.79226077,97.0
762,-1.7094784,-0.5385202,0.34781158,0.24532472,0.24320069,0.79226077,97.0
763,-1.7094784,-0.5385202,0.34781158,0.6552612,0.04991455,0.8379273,97.0
764,-0.6250777,-0.64180255,1.2526511,0.6552612,0.04991455,0.8379273,97.0
765,-0.6250777,-0.64180255,1.2526511,0.81881106,0.057348635,0.8464233,97.0
766,0.11866343,0.030393362,1.6187713,0.81881106,0.057348635,0.8464233,97.0
767,0.11866343,0.030393362,1.6187713,0.9281983,0.24851075,0.81668705,97.0
768,0.84075594,0.13528883,1.4943824,0.9281983,0.24851075,0.81668705,97.0
769,0.84075594,0.13528883,1.4943824,1.1225464,0.2899292,0.77951664,97.0
770,1.4366429,-0.17167616,0.71627,1.1225464,0.2899292,0.77951664,97.0
771,1.4366429,-0.17167616,0.71627,1.0482056,-0.02442627,0.66269535,97.0
772,1.3080301,0.18101847,-0.44682044,1.0482056,-0.02442627,0.66269535,97.0
773,1.3080301,0.18101847,-0.44682044,0.6446411,-0.25063476,0.5384399,97.0
774,0.50324786,0.8821317,-0.8812967,0.6446411,-0.25063476,0.5384399,97.0
775,0.50324786,0.8821317,-0.8812967,0.04991455,-0.23682861,0.544812,97.0
776,-0.19629088,-0.1042068,0.049869865,0.04991455,-0.23682861,0.544812,97.0
777,-0.19629088,-0.1042068,0.049869865,0.17735596,0.13062744,0.6796875,97.0
778,0.12198341,-2.838114,1.6058017,0.17735596,0.13062744,0.6796875,97.0
779,0.12198341,-2.838114,1.6058017,0.42374268,0.14018555,1.2319336,97.0
780,2.14578,-3.417,1.7952859,0.42374268,0.14018555,1.2319336,97.0
781,2.14578,-3.417,1.7952859,-0.635083,0.18160401,1.8489624,97.0
782,3.8913434,-1.7739199,0.74965644,-0.635083,0.18160401,1.8489624,97.0
783,3.8913434,-1.7739199,0.74965644,-0.7678345,0.52888185,1.3041505,97.0
784,4.2085457,-0.43020773,0.78158545,-0.7678345,0.52888185,1.3041505,97.0
785,4.2085457,-0.43020773,0.78158545,-0.29948732,0.5278198,1.4114136,97.0
786,4.129361,0.40375865,2.2482176,-0.29948732,0.5278198,1.4114136,97.0
787,4.129361,0.40375865,2.2482176,-0.8496094,1.1225464,1.6641724,97.0
788,3.5692358,0.5837247,3.2460594,-0.8496094,1.1225464,1.6641724,97.0
789,3.5692358,0.5837247,3.2460594,-1.4220337,1.6917847,1.6397461,97.0
790,1.5103936,0.5518186,2.5802827,-1.4220337,1.6917847,1.6397461,97.0
791,1.5103936,0.5518186,2.5802827,-1.6365601,2.3194337,1.2499878,97.0
792,-2.0003643,0.76130354,0.8614309,-1.6365601,2.3194337,1.2499878,97.0
793,-2.0003643,0.76130354,0.8614309,-1.8192261,2.4691772,0.6881836,97.0
794,-4.688609,0.8085911,-0.6411531,-1.8192261,2.4691772,0.6881836,97.0
795,-4.688609,0.8085911,-0.6411531,-2.264209,2.3672242,0.48533937,97.0
796,-4.688609,0.8085911,-0.6411531,-2.264209,2.3672242,0.48533937,95.0
797,-5.68818,0.62371624,-1.5986769,-2.264209,2.3672242,0.48533937,95.0
798,-5.68818,0.62371624,-1.5986769,-1.6907227,2.0316284,0.21877442,95.0
799,-5.909626,0.75209796,-2.6406603,-1.6907227,2.0316284,0.21877442,95.0
800,-5.909626,0.75209796,-2.6406603,-0.6616333,1.4347779,0.1720459,95.0
801,-5.6626987,1.2611144,-3.455204,-0.6616333,1.4347779,0.1720459,95.0
802,-5.6626987,1.2611144,-3.455204,0.24851075,1.0280274,-0.1901001,95.0
803,-4.8969436,2.1461718,-3.3743196,0.24851075,1.0280274,-0.1901001,95.0
804,-4.8969436,2.1461718,-3.3743196,0.7338501,0.8326172,-0.813501,95.0
805,-3.4483657,2.433466,-3.0160937,0.7338501,0.8326172,-0.813501,95.0
806,-3.4483657,2.433466,-3.0160937,0.69136965,0.6881836,-1.270166,95.0
807,-1.1467786,0.27567887,-3.1947231,0.69136965,0.6881836,-1.270166,95.0
808,-1.1467786,0.27567887,-3.1947231,1.3158325,0.45772704,-1.3710572,95.0
809,1.5292568,-3.4927993,-3.533794,1.3158325,0.45772704,-1.3710572,95.0
810,1.5292568,-3.4927993,-3.533794,3.2763062,0.2782471,-1.5484132,95.0
811,3.0145433,-4.8506236,-3.1207607,3.2763062,0.2782471,-1.5484132,95.0
812,3.0145433,-4.8506236,-3.1207607,5.1050906,0.38444826,-1.808606,95.0
813,2.2992322,-1.9818296,-1.7943137,5.1050906,0.38444826,-1.808606,95.0
814,2.2992322,-1.9818296,-1.7943137,4.5613403,0.37489015,-1.9211792,95.0
815,0.8549497,1.9981179,-0.4158585,4.5613403,0.37489015,-1.9211792,95.0
816,0.8549497,1.9981179,-0.4158585,2.6603394,0.48533937,-1.9806519,95.0
817,0.6212157,3.484603,0.3826332,2.6603394,0.48533937,-1.9806519,95.0
818,0.6212157,3.484603,0.3826332,1.0248413,0.58623046,-2.0645509,95.0
819,1.5688964,2.5089102,0.70299363,1.0248413,0.58623046,-2.0645509,95.0
820,1.5688964,2.5089102,0.70299363,-0.5713623,0.69986576,-2.069861,95.0
821,2.5162134,0.7059442,0.59272933,-0.5713623,0.69986576,-2.069861,95.0
822,2.5162134,0.7059442,0.59272933,-2.2217286,0.80819094,-1.803296,95.0
823,2.8306222,-0.892691,0.10534811,-2.2217286,0.80819094,-1.803296,95.0
824,2.8306222,-0.892691,0.10534811,-3.3113525,0.89208984,-1.4836304,95.0
825,2.7296832,-1.7468677,-0.39883924,-3.3113525,0.89208984,-1.4836304,95.0
826,2.7296832,-1.7468677,-0.39883924,-3.4972045,0.8336792,-1.1055542,95.0
827,2.5259953,-1.9766324,-0.5166056,-3.4972045,0.8336792,-1.1055542,95.0
828,2.5259953,-1.9766324,-0.5166056,-2.7251222,0.68074954,-0.6680054,95.0
829,2.10782,-1.8273997,-0.24055481,-2.7251222,0.68074954,-0.6680054,95.0
830,2.10782,-1.8273997,-0.24055481,-1.4050416,0.42374268,-0.22196046,95.0
831,1.2898571,-1.230035,0.10244155,-1.4050416,0.42374268,-0.22196046,95.0
832,1.2898571,-1.230035,0.10244155,-0.1985962,0.1263794,0.22408448,95.0
833,0.45243025,-0.26712126,0.30000734,-0.1985962,0.1263794,0.22408448,95.0
834,0.45243025,-0.26712126,0.30000734,0.58623046,-0.1709839,0.5936646,95.0
835,0.24284029,0.5728508,0.4142735,0.58623046,-0.1709839,0.5936646,95.0
836,0.24284029,0.5728508,0.4142735,1.1023682,-0.37382814,0.7954468,95.0
837,0.69864225,0.999748,0.6548197,1.1023682,-0.37382814,0.7954468,95.0
838,0.69864225,0.999748,0.6548197,1.4007934,-0.42161867,0.8092529,95.0
839,1.131558,1.2641538,0.9236605,1.4007934,-0.42161867,0.8092529,95.0
840,1.131558,1.2641538,0.9236605,1.3869873,-0.36427003,0.7126099,95.0
841,0.979465,1.6184154,0.8726076,1.3869873,-0.36427003,0.7126099,95.0
842,0.979465,1.6184154,0.8726076,0.8326172,-0.31966552,0.53100586,95.0
843,0.45565438,1.8801572,0.5700344,0.8326172,-0.31966552,0.53100586,95.0
844,0.45565438,1.8801572,0.5700344,0.08071289,-0.2803711,0.1709839,95.0
845,0.12618113,1.6610105,0.5092257,0.08071289,-0.2803711,0.1709839,95.0
846,0.12618113,1.6610105,0.5092257,-0.40356445,-0.2347046,-0.24957275,95.0
847,0.45525408,1.1496825,0.6299026,-0.40356445,-0.2347046,-0.24957275,95.0
848,0.45525408,1.1496825,0.6299026,-0.813501,-0.2814331,-0.8708496,95.0
849,1.2410467,0.72312737,0.5535314,-0.813501,-0.2814331,-0.8708496,95.0
850,1.2410467,0.72312737,0.5535314,-1.4252198,-0.17416993,-1.3030884,95.0
851,1.1379056,0.23671722,0.44804978,-1.4252198,-0.17416993,-1.3030884,95.0
852,1.1379056,0.23671722,0.44804978,-1.8001099,-0.13487549,-1.5611572,95.0
853,-0.65787625,-0.26913452,0.739348,-1.8001099,-0.13487549,-1.5611572,95.0
854,-0.65787625,-0.26913452,0.739348,-1.6981567,-0.19753419,-1.5962037,95.0
855,-2.7987375,-0.6386231,1.4848256,-1.6981567,-0.19753419,-1.5962037,95.0
856,-2.7987375,-0.6386231,1.4848256,-0.90270996,-0.3802002,-1.44646,95.0
857,-3.2500496,-0.7442603,2.0698307,-0.90270996,-0.3802002,-1.44646,95.0
858,-3.2500496,-0.7442603,2.0698307,0.16036378,-0.5278198,-1.2414917,95.0
859,-1.7318268,-0.30986142,1.7854788,0.16036378,-0.5278198,-1.2414917,95.0
860,-1.7318268,-0.30986142,1.7854788,0.45347902,-0.46409914,-1.1108643,95.0
861,0.10699463,0.20696926,0.6445208,0.45347902,-0.46409914,-1.1108643,95.0
862,0.10699463,0.20696926,0.6445208,0.14655761,-0.271875,-1.1862671,95.0
863,0.7152953,0.15093923,-0.5186485,0.14655761,-0.271875,-1.1862671,95.0
864,0.7152953,0.15093923,-0.5186485,-0.41312256,-0.1274414,-1.4570801,95.0
865,-0.054228544,-0.35940003,-0.98717225,-0.41312256,-0.1274414,-1.4570801,95.0
866,-0.054228544,-0.35940003,-0.98717225,-1.1374146,0.0031860352,-1.6790406,95.0
867,-1.5036612,-1.009212,-0.6693765,-1.1374146,0.0031860352,-1.6790406,95.0
868,-1.5036612,-1.009212,-0.6693765,-1.7321411,0.09133301,-1.806482,95.0
869,-2.7030265,-1.6397305,0.03388359,-1.7321411,0.09133301,-1.806482,95.0
870,-2.7030265,-1.6397305,0.03388359,-1.8638306,0.09239502,-1.7597535,95.0
871,-3.1172552,-2.071721,0.48419917,-1.8638306,0.09239502,-1.7597535,95.0
872,-3.1172552,-2.071721,0.48419917,-1.5261109,0.026550293,-1.6631104,95.0
873,-2.9565363,-2.1959145,0.40233737,-1.5261109,0.026550293,-1.6631104,95.0
874,-2.9565363,-2.1959145,0.40233737,-0.9239502,-0.07752686,-1.6046997,95.0
875,-2.4662666,-2.0820003,0.023823023,-0.9239502,-0.07752686,-1.6046997,95.0
876,-2.4662666,-2.0820003,0.023823023,-0.362146,-0.24320069,-1.5749635,95.0
877,-1.7412018,-1.9419672,-0.18848552,-0.362146,-0.24320069,-1.5749635,95.0
878,-1.7412018,-1.9419672,-0.18848552,0.11363526,-0.37382814,-1.5176147,95.0
879,-0.9657886,-1.9808321,0.03096208,0.11363526,-0.37382814,-1.5176147,95.0
880,-0.9657886,-1.9808321,0.03096208,0.6754395,-0.43011475,-1.4358399,95.0
881,-0.30004787,-1.9403663,0.33357093,0.6754395,-0.43011475,-1.4358399,95.0
882,-0.30004787,-1.9403663,0.33357093,1.0333375,-0.44923097,-1.2967163,95.0
883,0.20661712,-1.5662456,0.2779163,1.0333375,-0.44923097,-1.2967163,95.0
884,0.20661712,-1.5662456,0.2779163,0.9632446,-0.41737062,-1.1533448,95.0
885,0.44721508,-1.1380429,-0.0037899911,0.9632446,-0.41737062,-1.1533448,95.0
886,0.44721508,-1.1380429,-0.0037899911,0.74447024,-0.3695801,-0.9897949,95.0
887,0.24563825,-0.8914645,-0.12762916,0.74447024,-0.3695801,-0.9897949,95.0
888,0.24563825,-0.8914645,-0.12762916,0.47790527,-0.3154175,-0.7540283,95.0
889,-0.3253888,-0.76446533,-0.05111456,0.47790527,-0.3154175,-0.7540283,95.0
890,-0.3253888,-0.76446533,-0.05111456,0.21346436,-0.2824951,-0.4248047,95.0
891,-0.8176353,-0.6924925,0.08768502,0.21346436,-0.2824951,-0.4248047,95.0
892,-0.8176353,-0.6924925,0.08768502,0.13487549,-0.270813,-0.06159668,95.0
893,-0.7734685,-0.62632084,0.18270907,0.13487549,-0.270813,-0.06159668,95.0
894,-0.7734685,-0.62632084,0.18270907,0.13487549,-0.270813,-0.06159668,95.0
895,-0.7734685,-0.62632084,0.18270907,0.18797608,-0.26656494,0.26125488,95.0
896,-0.18217802,-0.5305002,0.1622073,0.18797608,-0.26656494,0.26125488,95.0
897,-0.18217802,-0.5305002,0.1622073,0.22196046,-0.24320069,0.5140137,95.0
898,0.6389744,-0.45517397,0.04178977,0.22196046,-0.24320069,0.5140137,95.0
899,0.6389744,-0.45517397,0.04178977,0.17841797,-0.21027832,0.6754395,95.0
900,1.4431254,-0.41028166,-0.09828207,0.17841797,-0.21027832,0.6754395,95.0
901,1.4431254,-0.41028166,-0.09828207,0.047790527,-0.18372802,0.7688965,95.0
902,2.1671467,-0.37182903,-0.19902363,0.047790527,-0.18372802,0.7688965,95.0
903,2.1671467,-0.37182903,-0.19902363,-0.10089111,-0.1901001,0.811377,95.0
904,3.0613298,-0.43257046,-0.37419695,-0.10089111,-0.1901001,0.811377,95.0
905,3.0613298,-0.43257046,-0.37419695,-0.17947999,-0.30161133,0.71154785,95.0
906,3.7892618,-0.6227288,-0.61941373,-0.17947999,-0.30161133,0.71154785,95.0
907,3.7892618,-0.6227288,-0.61941373,-0.26337892,-0.31435546,0.62977296,95.0
908,3.2443123,-0.8926654,-0.59876585,-0.26337892,-0.31435546,0.62977296,95.0
909,3.2443123,-0.8926654,-0.59876585,-0.03717041,-0.41949463,0.65419924,95.0
910,1.4116852,-0.97427654,-0.3016079,-0.03717041,-0.41949463,0.65419924,95.0
911,1.4116852,-0.97427654,-0.3016079,0.51932377,-0.5979126,0.9143921,95.0
912,-0.48823,-0.4782982,-0.09543671,0.51932377,-0.5979126,0.9143921,95.0
913,-0.48823,-0.4782982,-0.09543671,1.364685,-0.81031495,1.3232666,95.0
914,-1.1840776,0.34717083,-0.12481129,1.364685,-0.81031495,1.3232666,95.0
915,-1.1840776,0.34717083,-0.12481129,2.5137818,-0.998291,1.6333741,95.0
916,-0.27228653,0.7532129,-0.3464799,2.5137818,-0.998291,1.6333741,95.0
917,-0.27228653,0.7532129,-0.3464799,3.6936767,-1.0492676,1.7863038,95.0
918,1.3567802,0.6240792,-0.7066151,3.6936767,-1.0492676,1.7863038,95.0
919,1.3567802,0.6240792,-0.7066151,4.420093,-0.94625247,1.8510865,95.0
920,2.4424798,0.5598588,-1.151608,4.420093,-0.94625247,1.8510865,95.0
921,2.4424798,0.5598588,-1.151608,4.623999,-0.72216797,1.9233032,95.0
922,2.432878,1.0613394,-1.5207005,4.623999,-0.72216797,1.9233032,95.0
923,2.432878,1.0613394,-1.5207005,4.3776126,-0.44604492,2.0475585,95.0
924,1.6838756,2.0186148,-1.6070877,4.3776126,-0.44604492,2.0475585,95.0
925,1.6838756,2.0186148,-1.6070877,3.7361572,-0.14868164,2.2174804,95.0
926,0.80134845,2.786132,-1.3613538,3.7361572,-0.14868164,2.2174804,95.0
927,0.80134845,2.786132,-1.3613538,2.884424,0.121069334,2.4054565,95.0
928,0.10123491,2.9703364,-1.012496,2.884424,0.121069334,2.4054565,95.0
929,0.10123491,2.9703364,-1.012496,2.0146363,0.33240968,2.5679443,95.0
930,-0.31178546,2.7016964,-0.82613444,2.0146363,0.33240968,2.5679443,95.0
931,-0.31178546,2.7016964,-0.82613444,1.3243287,0.47578126,2.6932619,95.0
932,-0.44626665,2.2864792,-0.91089535,1.3243287,0.47578126,2.6932619,95.0
933,-0.44626665,2.2864792,-0.91089535,0.8973999,0.53525394,2.7612305,95.0
934,-0.47118568,1.987887,-1.1268487,0.8973999,0.53525394,2.7612305,95.0
935,-0.47118568,1.987887,-1.1268487,0.6425171,0.540564,2.7803466,95.0
936,-0.5273025,1.8511983,-1.2475848,0.6425171,0.540564,2.7803466,95.0
937,-0.5273025,1.8511983,-1.2475848,0.5851685,0.48427734,2.7559204,95.0
938,-0.54606056,1.8021746,-1.1741297,0.5851685,0.48427734,2.7559204,95.0
939,-0.54606056,1.8021746,-1.1741297,0.62127686,0.4078125,2.701758,95.0
940,-0.45746613,1.7996254,-0.9772675,0.62127686,0.4078125,2.701758,95.0
941,-0.45746613,1.7996254,-0.9772675,0.6552612,0.32497558,2.6029909,95.0
942,-0.30355835,1.7499421,-0.7849512,0.6552612,0.32497558,2.6029909,95.0
943,-0.30355835,1.7499421,-0.7849512,0.6839356,0.23895264,2.444751,95.0
944,-0.19033194,1.6518946,-0.6646676,0.6839356,0.23895264,2.444751,95.0
945,-0.19033194,1.6518946,-0.6646676,0.6446411,0.15505372,2.2397828,95.0
946,-0.10963845,1.5418406,-0.52697325,0.6446411,0.15505372,2.2397828,95.0
947,-0.10963845,1.5418406,-0.52697325,0.56392825,0.07540283,1.993396,95.0
948,0.08103943,1.3490729,-0.27547264,0.56392825,0.07540283,1.993396,95.0
949,0.08103943,1.3490729,-0.27547264,0.5320679,-0.0031860352,1.724707,95.0
950,0.39328623,1.073277,0.0351758,0.5320679,-0.0031860352,1.724707,95.0
951,0.39328623,1.073277,0.0351758,0.6117188,-0.0722168,1.4284058,95.0
952,0.55929446,0.8692417,0.11147833,0.6117188,-0.0722168,1.4284058,95.0
953,0.55929446,0.8692417,0.11147833,0.67331547,-0.10620117,1.268042,95.0
954,0.68423986,0.7041459,0.3829937,0.67331547,-0.10620117,1.268042,95.0
955,0.68423986,0.7041459,0.3829937,0.8867798,-0.22196046,0.7540283,95.0
956,0.6012492,0.5800891,0.32855082,0.8867798,-0.22196046,0.7540283,95.0
957,0.6012492,0.5800891,0.32855082,0.9228882,-0.26656494,0.57454836,95.0
958,0.5518489,0.70705223,0.49080706,0.9228882,-0.26656494,0.57454836,95.0
959,0.5518489,0.70705223,0.49080706,0.7104859,-0.38763428,-0.07115479,95.0
960,0.4792478,0.5927415,0.45139813,0.7104859,-0.38763428,-0.07115479,95.0
961,0.4792478,0.5927415,0.45139813,0.56392825,-0.43011475,-0.3525879,95.0
962,1.0508666,0.37565804,0.7369485,0.56392825,-0.43011475,-0.3525879,95.0
963,1.0508666,0.37565804,0.7369485,0.06159668,-0.6053467,-1.4294678,95.0
964,1.0328197,0.07574606,0.76491284,0.06159668,-0.6053467,-1.4294678,95.0
965,1.0328197,0.07574606,0.76491284,-0.1539917,-0.6690674,-1.8192261,95.0
966,1.1509628,-0.46448874,1.0306923,-0.1539917,-0.6690674,-1.8192261,95.0
967,1.1509628,-0.46448874,1.0306923,-0.8846558,-0.80819094,-2.6348512,95.0
968,0.2617736,-0.70537996,1.1984308,-0.8846558,-0.80819094,-2.6348512,95.0
969,0.2617736,-0.70537996,1.1984308,-0.92713624,-0.84748536,-2.7760987,95.0
970,-1.6796558,-1.3181248,2.3039353,-0.92713624,-0.84748536,-2.7760987,95.0
971,-1.6796558,-1.3181248,2.3039353,-0.07752686,-0.98129886,-2.7198122,95.0
972,-1.9569325,-1.3808916,2.3566494,-0.07752686,-0.98129886,-2.7198122,95.0
973,-1.9569325,-1.3808916,2.3566494,0.24638672,-0.9781128,-2.5753784,95.0
974,-1.5773137,-0.8434706,2.233122,0.24638672,-0.9781128,-2.5753784,95.0
975,-1.5773137,-0.8434706,2.233122,0.7423462,-0.90058595,-2.2057984,95.0
976,-1.1511211,-0.6215782,1.4763415,0.7423462,-0.90058595,-2.2057984,95.0
977,-1.1511211,-0.6215782,1.4763415,0.634021,-0.8485474,-2.1495118,95.0
978,-0.22919774,-0.05041194,-0.57157576,0.634021,-0.8485474,-2.1495118,95.0
979,-0.22919774,-0.05041194,-0.57157576,-0.16461182,-0.6711914,-2.3194337,95.0
980,-0.26587772,-0.31961417,-0.8934789,-0.16461182,-0.6711914,-2.3194337,95.0
981,-0.26587772,-0.31961417,-0.8934789,-0.5129517,-0.62977296,-2.4489992,95.0
982,-0.4739082,-1.2044828,-0.9762455,-0.5129517,-0.62977296,-2.4489992,95.0
983,-0.4739082,-1.2044828,-0.9762455,-1.6131958,-0.41206056,-2.8610597,95.0
984,-0.7357061,-1.5750608,-0.32993436,-1.6131958,-0.41206056,-2.8610597,95.0
985,-0.7357061,-1.5750608,-0.32993436,-1.9997681,-0.31223145,-2.9396484,95.0
986,-1.2123809,-2.2527611,0.7303518,-1.9997681,-0.31223145,-2.9396484,95.0
987,-1.2123809,-2.2527611,0.7303518,-2.6454713,-0.13168946,-2.985315,95.0
988,-1.5392773,-2.861291,1.2942547,-2.6454713,-0.13168946,-2.985315,95.0
989,-1.5392773,-2.861291,1.2942547,-2.7591064,-0.045666505,-2.9290283,95.0
990,-1.5583506,-3.5266793,0.9702793,-2.7591064,-0.045666505,-2.9290283,95.0
991,-1.5583506,-3.5266793,0.9702793,-2.2089844,-0.08496094,-2.805835,95.0
992,-1.2982674,-3.3191462,0.68285185,-2.2089844,-0.08496094,-2.805835,95.0
993,-1.2982674,-3.3191462,0.68285185,-1.9307374,-0.11257324,-2.7527344,95.0
994,-0.93381655,-3.2892892,0.35175022,-1.9307374,-0.11257324,-2.7527344,95.0
995,-0.93381655,-3.2892892,0.35175022,-1.2584839,-0.18903808,-2.633789,95.0
996,-0.7142285,-3.330113,0.3399329,-1.2584839,-0.18903808,-2.633789,95.0
997,-0.7142285,-3.330113,0.3399329,-0.5256958,-0.27399904,-2.445813,95.0
998,-0.76137304,-3.3631015,0.49540824,-0.5256958,-0.27399904,-2.445813,95.0
999,-0.76137304,-3.3631015,0.49540824,0.17735596,-0.36639404,-2.1484497,95.0
1000,-0.9624554,-3.1513824,0.55504245,0.17735596,-0.36639404,-2.1484497,95.0
1001,-0.9624554,-3.1513824,0.55504245,0.72960204,-0.4630371,-1.7470093,95.0
1002,-1.1464779,-2.5688844,0.4402864,0.72960204,-0.4630371,-1.7470093,95.0
1003,-1.1464779,-2.5688844,0.4402864,0.98129886,-0.5235718,-1.2786621,95.0
1004,-1.2626657,-1.7741747,0.2889967,0.98129886,-0.5235718,-1.2786621,95.0
1005,-1.2626657,-1.7741747,0.2889967,1.0322754,-0.5501221,-0.78164065,95.0
1006,-1.3129036,-1.0623817,0.23712997,1.0322754,-0.5501221,-0.78164065,95.0
1007,-1.3129036,-1.0623817,0.23712997,0.88359374,-0.52038574,-0.26019287,95.0
1008,-1.3129036,-1.0623817,0.23712997,0.88359374,-0.52038574,-0.26019287,95.0
1009,-1.2523981,-0.4633088,0.29173034,0.88359374,-0.52038574,-0.26019287,95.0
1010,-1.2523981,-0.4633088,0.29173034,0.5798584,-0.44923097,0.23895264,95.0
1011,-0.95119834,-0.07784939,0.36398733,0.5798584,-0.44923097,0.23895264,95.0
1012,-0.95119834,-0.07784939,0.36398733,0.2782471,-0.36108398,0.6775635,95.0
1013,-0.3036101,0.10102606,0.4268466,0.2782471,-0.36108398,0.6775635,95.0
1014,-0.3036101,0.10102606,0.4268466,0.06796875,-0.26444092,1.088562,95.0
1015,0.5915724,0.22508335,0.47293478,0.06796875,-0.26444092,1.088562,95.0
1016,0.5915724,0.22508335,0.47293478,-0.118945315,-0.15505372,1.4528321,95.0
1017,1.4847937,0.55658054,0.3909943,-0.118945315,-0.15505372,1.4528321,95.0
1018,1.4847937,0.55658054,0.3909943,-0.40144044,-0.07434082,1.7873658,95.0
1019,2.3213677,0.9099617,0.22374517,-0.40144044,-0.07434082,1.7873658,95.0
1020,2.3213677,0.9099617,0.22374517,-0.6117188,-0.04991455,1.9636596,95.0
1021,3.4375997,0.9100251,-0.019441366,-0.6117188,-0.04991455,1.9636596,95.0
1022,3.4375997,0.9100251,-0.019441366,-0.59472656,-0.10938721,1.9073731,95.0
1023,4.0034246,0.6294117,-0.24992812,-0.59472656,-0.10938721,1.9073731,95.0
1024,4.0034246,0.6294117,-0.24992812,-0.5511841,0.020178223,1.8840088,95.0
1025,2.604766,0.49531412,-0.23337758,-0.5511841,0.020178223,1.8840088,95.0
1026,2.604766,0.49531412,-0.23337758,-0.43967286,-0.083898924,1.9084351,95.0
1027,0.122863054,0.7613025,-0.14284217,-0.43967286,-0.083898924,1.9084351,95.0
1028,0.122863054,0.7613025,-0.14284217,-0.12531738,-0.29523927,2.0645509,95.0
1029,-1.4659185,1.2867398,-0.19618294,-0.12531738,-0.29523927,2.0645509,95.0
1030,-1.4659185,1.2867398,-0.19618294,0.54693604,-0.5501221,2.1951783,95.0
1031,-1.4163994,1.5763159,-0.40609187,0.54693604,-0.5501221,2.1951783,95.0
1032,-1.4163994,1.5763159,-0.40609187,1.5993897,-0.7625244,2.1176515,95.0
1033,-0.106886625,1.3068535,-0.7922197,1.5993897,-0.7625244,2.1176515,95.0
1034,-0.106886625,1.3068535,-0.7922197,2.7771606,-0.86341554,1.8808228,95.0
1035,1.5915294,0.73736525,-1.2079823,2.7771606,-0.86341554,1.8808228,95.0
1036,1.5915294,0.73736525,-1.2079823,3.6862428,-0.7869507,1.5962037,95.0
1037,2.6514218,0.5152097,-1.3971843,3.6862428,-0.7869507,1.5962037,95.0
1038,2.6514218,0.5152097,-1.3971843,3.970862,-0.5543701,1.4761963,95.0
1039,2.4286814,0.99898434,-1.4488876,3.970862,-0.5543701,1.4761963,95.0
1040,2.4286814,0.99898434,-1.4488876,3.7786376,-0.32178956,1.544165,95.0
1041,1.3199105,1.901922,-1.4990637,3.7786376,-0.32178956,1.544165,95.0
1042,1.3199105,1.901922,-1.4990637,3.250818,-0.14337158,1.7916138,95.0
1043,0.20225406,2.664348,-1.4180377,3.250818,-0.14337158,1.7916138,95.0
1044,0.20225406,2.664348,-1.4180377,2.5806885,0.007434082,2.0518067,95.0
1045,-0.45307732,2.903048,-1.1403627,2.5806885,0.007434082,2.0518067,95.0
1046,-0.45307732,2.903048,-1.1403627,1.9519776,0.11682129,2.3077514,95.0
1047,-0.5884018,2.563918,-0.8599465,1.9519776,0.11682129,2.3077514,95.0
1048,-0.5884018,2.563918,-0.8599465,1.531421,0.19222413,2.521216,95.0
1049,-0.4548645,2.025927,-0.8490901,1.531421,0.19222413,2.521216,95.0
1050,-0.4548645,2.025927,-0.8490901,1.270166,0.22196046,2.6475952,95.0
1051,-0.3192749,1.7419208,-1.0330806,1.270166,0.22196046,2.6475952,95.0
1052,-0.3192749,1.7419208,-1.0330806,1.0705079,0.2166504,2.710254,95.0
1053,-0.22436523,1.6720157,-1.1082759,1.0705079,0.2166504,2.710254,95.0
1054,-0.22436523,1.6720157,-1.1082759,1.0259033,0.17841797,2.703882,95.0
1055,-0.09694815,1.6435452,-0.9642086,1.0259033,0.17841797,2.703882,95.0
1056,-0.09694815,1.6435452,-0.9642086,1.0227174,0.13168946,2.6475952,95.0
1057,-0.002900362,1.6451461,-0.7415328,1.0227174,0.13168946,2.6475952,95.0
1058,-0.002900362,1.6451461,-0.7415328,0.9324463,0.09239502,2.5488281,95.0
1059,-0.06750584,1.6433996,-0.5904188,0.9324463,0.09239502,2.5488281,95.0
1060,-0.06750584,1.6433996,-0.5904188,0.813501,0.026550293,2.3884645,95.0
1061,-0.2561164,1.5825787,-0.4743247,0.813501,0.026550293,2.3884645,95.0
1062,-0.2561164,1.5825787,-0.4743247,0.7306641,-0.04991455,2.1866822,95.0
1063,-0.4062481,1.4320054,-0.27731133,0.7306641,-0.04991455,2.1866822,95.0
1064,-0.4062481,1.4320054,-0.27731133,0.7083618,-0.11257324,1.9392334,95.0
1065,-0.40163422,1.2025988,-0.005821228,0.7083618,-0.11257324,1.9392334,95.0
1066,-0.40163422,1.2025988,-0.005821228,0.7890747,-0.15080567,1.6376221,95.0
1067,-0.28121948,0.9812074,0.18676138,0.7890747,-0.15080567,1.6376221,95.0
1068,-0.28121948,0.9812074,0.18676138,0.90058595,-0.16354981,1.2744141,95.0
1069,-0.15567613,0.8220997,0.20645261,0.90058595,-0.16354981,1.2744141,95.0
1070,-0.15567613,0.8220997,0.20645261,0.9526245,-0.17735596,0.87191164,95.0
1071,-0.089128256,0.70487213,0.16646814,0.9526245,-0.17735596,0.87191164,95.0
1072,-0.089128256,0.70487213,0.16646814,0.9197022,-0.18797608,0.46622315,95.0
1073,-0.06878805,0.62064815,0.17669249,0.9197022,-0.18797608,0.46622315,95.0
1074,-0.06878805,0.62064815,0.17669249,0.7391602,-0.22196046,0.038232423,95.0
1075,-0.05395627,0.5206642,0.30572176,0.7391602,-0.22196046,0.038232423,95.0
1076,-0.05395627,0.5206642,0.30572176,0.47365722,-0.25063476,-0.41737062,95.0
1077,-0.017530203,0.26986408,0.58569074,0.47365722,-0.25063476,-0.41737062,95.0
1078,-0.017530203,0.26986408,0.58569074,0.29948732,-0.2888672,-0.9398804,95.0
1079,0.4800067,-0.14988017,0.83790064,0.29948732,-0.2888672,-0.9398804,95.0
1080,0.4800067,-0.14988017,0.83790064,0.13381349,-0.38232422,-1.6036377,95.0
1081,1.4917445,-0.5042913,0.8418417,0.13381349,-0.38232422,-1.6036377,95.0
1082,1.4917445,-0.5042913,0.8418417,-0.32072756,-0.35683593,-2.2408447,95.0
1083,1.9513912,-0.6850004,0.6975336,-0.32072756,-0.35683593,-2.2408447,95.0
1084,1.9513912,-0.6850004,0.6975336,-0.9781128,-0.35789797,-2.7591064,95.0
1085,1.1390915,-0.81693363,0.7440865,-0.9781128,-0.35789797,-2.7591064,95.0
1086,1.1390915,-0.81693363,0.7440865,-1.4931885,-0.36002198,-3.062842,95.0
1087,-0.35993028,-1.0723946,1.183697,-1.4931885,-0.36002198,-3.062842,95.0
1088,-0.35993028,-1.0723946,1.183697,-1.4910644,-0.42268068,-3.070276,95.0
1089,-1.5426805,-1.4056451,1.7902193,-1.4910644,-0.42268068,-3.070276,95.0
1090,-1.5426805,-1.4056451,1.7902193,-1.0864381,-0.50445557,-2.8631837,95.0
1091,-1.7787001,-1.5678756,2.106321,-1.0864381,-0.50445557,-2.8631837,95.0
1092,-1.7787001,-1.5678756,2.106321,-0.4630371,-0.58623046,-2.5583863,95.0
1093,-1.0888779,-1.397843,1.7096907,-0.4630371,-0.58623046,-2.5583863,95.0
1094,-1.0888779,-1.397843,1.7096907,-0.07115479,-0.6074707,-2.2461548,95.0
1095,-0.18382192,-0.9642217,0.57190293,-0.07115479,-0.6074707,-2.2461548,95.0
1096,-0.18382192,-0.9642217,0.57190293,-0.08920898,-0.5607422,-2.077295,95.0
1097,0.27619696,-0.6416533,-0.6744357,-0.08920898,-0.5607422,-2.077295,95.0
1098,0.27619696,-0.6416533,-0.6744357,-0.4078125,-0.49064943,-2.0528686,95.0
1099,0.118296385,-0.64767325,-1.1947122,-0.4078125,-0.49064943,-2.0528686,95.0
1100,0.118296385,-0.64767325,-1.1947122,-0.9866089,-0.39506838,-2.1526978,95.0
1101,-0.4888711,-0.86030173,-0.76671946,-0.9866089,-0.39506838,-2.1526978,95.0
1102,-0.4888711,-0.86030173,-0.76671946,-1.8001099,-0.22833252,-2.2854493,95.0
1103,-1.2200519,-1.2509,0.03612399,-1.8001099,-0.22833252,-2.2854493,95.0
1104,-1.2200519,-1.2509,0.03612399,-2.532898,-0.07646485,-2.3268678,95.0
1105,-1.2200519,-1.2509,0.03612399,-2.532898,-0.07646485,-2.3268678,95.0
1106,-1.6209878,-1.7285643,0.4966116,-2.532898,-0.07646485,-2.3268678,95.0
1107,-1.6209878,-1.7285643,0.4966116,-2.9470825,-0.025488282,-2.3236816,95.0
1108,-1.5204841,-2.082302,0.3872795,-2.9470825,-0.025488282,-2.3236816,95.0
1109,-1.5204841,-2.082302,0.3872795,-3.0214233,-0.029736329,-2.2748291,95.0
1110,-1.3279229,-2.345981,0.08123475,-3.0214233,-0.029736329,-2.2748291,95.0
1111,-1.3279229,-2.345981,0.08123475,-2.617859,-0.118945315,-2.2217286,95.0
1112,-1.2606783,-2.5713406,0.05339116,-2.617859,-0.118945315,-2.2217286,95.0
1113,-1.2606783,-2.5713406,0.05339116,-1.7905518,-0.24320069,-2.1325195,95.0
1114,-1.1635352,-2.588481,0.30020803,-1.7905518,-0.24320069,-2.1325195,95.0
1115,-1.1635352,-2.588481,0.30020803,-0.93775636,-0.33878174,-1.9817139,95.0
1116,-1.0721612,-2.2828941,0.4875419,-0.93775636,-0.33878174,-1.9817139,95.0
1117,-1.0721612,-2.2828941,0.4875419,-0.33240968,-0.452417,-1.803296,95.0
1118,-1.087563,-1.8448458,0.49350035,-0.33240968,-0.452417,-1.803296,95.0
1119,-1.087563,-1.8448458,0.49350035,-0.0063720704,-0.5787964,-1.62594,95.0
1120,-1.1429142,-1.4979105,0.5390752,-0.0063720704,-0.5787964,-1.62594,95.0
1121,-1.1429142,-1.4979105,0.5390752,0.13699952,-0.6605713,-1.445398,95.0
1122,-1.1256106,-1.3119881,0.7853129,0.13699952,-0.6605713,-1.445398,95.0
1123,-1.1256106,-1.3119881,0.7853129,0.15823975,-0.6552612,-1.2075074,95.0
1124,-1.1492068,-1.1421442,1.067325,0.15823975,-0.6552612,-1.2075074,95.0
1125,-1.1492068,-1.1421442,1.067325,-0.004248047,-0.57561034,-0.93138427,95.0
1126,-1.3657765,-0.94931126,1.2034572,-0.004248047,-0.57561034,-0.93138427,95.0
1127,-1.3657765,-0.94931126,1.2034572,-0.15930176,-0.53737795,-0.6690674,95.0
1128,-1.3836979,-0.90660477,1.2257051,-0.15930176,-0.53737795,-0.6690674,95.0
1129,-1.3836979,-0.90660477,1.2257051,-0.11682129,-0.52038574,-0.42692873,95.0
1130,-0.7491946,-1.0116973,1.206028,-0.11682129,-0.52038574,-0.42692873,95.0
1131,-0.7491946,-1.0116973,1.206028,0.04885254,-0.44816896,-0.2262085,95.0
1132,0.49490702,-1.0650587,1.0432892,0.04885254,-0.44816896,-0.2262085,95.0
1133,0.49490702,-1.0650587,1.0432892,0.12213135,-0.33771974,-0.07646485,95.0
1134,1.9739043,-0.93931484,0.6425537,0.12213135,-0.33771974,-0.07646485,95.0
1135,1.9739043,-0.93931484,0.6425537,-0.059472658,-0.18266602,0.052038576,95.0
1136,3.2835424,-0.80109787,0.17748284,-0.059472658,-0.18266602,0.052038576,95.0
1137,3.2835424,-0.80109787,0.17748284,-0.38869628,-0.052038576,0.11151123,95.0
1138,4.0023103,-0.83993816,-0.11724222,-0.38869628,-0.052038576,0.11151123,95.0
1139,4.0023103,-0.83993816,-0.11724222,-0.7062378,0.11044922,0.25594482,95.0
1140,3.2772875,-0.8960471,-0.11946511,-0.7062378,0.11044922,0.25594482,95.0
1141,3.2772875,-0.8960471,-0.11946511,-0.8050049,0.15186767,0.5851685,95.0
1142,1.0796182,-0.6126628,0.003500104,-0.8050049,0.15186767,0.5851685,95.0
1143,1.0796182,-0.6126628,0.003500104,-0.73809814,0.0180542,1.0535157,95.0
1144,-1.3199602,0.027338028,0.052763462,-0.73809814,0.0180542,1.0535157,95.0
1145,-1.3199602,0.027338028,0.052763462,-0.20603028,-0.22408448,1.5537232,95.0
1146,-2.6595936,0.6520338,0.0033557415,-0.20603028,-0.22408448,1.5537232,95.0
1147,-2.6595936,0.6520338,0.0033557415,0.8857178,-0.5171997,1.9498535,95.0
1148,-2.2692277,0.8991051,-0.1309092,0.8857178,-0.5171997,1.9498535,95.0
1149,-2.2692277,0.8991051,-0.1309092,2.2185426,-0.67225343,2.0974731,95.0
1150,-0.3616346,0.6602144,-0.20558178,2.2185426,-0.67225343,2.0974731,95.0
1151,-0.3616346,0.6602144,-0.20558178,3.444104,-0.61065674,2.1070313,95.0
1152,2.093627,0.30104733,-0.2690674,3.444104,-0.61065674,2.1070313,95.0
1153,2.093627,0.30104733,-0.2690674,4.168396,-0.32603762,2.090039,95.0
1154,3.8416252,0.5044241,-0.7153272,4.168396,-0.32603762,2.090039,95.0
1155,3.8416252,0.5044241,-0.7153272,4.2002563,0.07434082,2.1176515,95.0
1156,4.1308684,1.5575433,-1.4573082,4.2002563,0.07434082,2.1176515,95.0
1157,4.1308684,1.5575433,-1.4573082,3.6331422,0.4619751,2.2334106,95.0
1158,3.2671094,2.8947163,-1.8399799,3.6331422,0.4619751,2.2334106,95.0
1159,3.2671094,2.8947163,-1.8399799,2.627417,0.79332274,2.3874023,95.0
1160,2.0929966,3.696547,-1.5319936,2.627417,0.79332274,2.3874023,95.0
1161,2.0929966,3.696547,-1.5319936,1.4931885,1.0821899,2.6401613,95.0
1162,1.0657549,3.7595937,-0.9897185,1.4931885,1.0821899,2.6401613,95.0
1163,1.0657549,3.7595937,-0.9897185,0.4088745,1.263794,2.9375246,95.0
1164,0.23889542,3.3624115,-0.8180077,0.4088745,1.263794,2.9375246,95.0
1165,0.23889542,3.3624115,-0.8180077,-0.33240968,1.2860962,3.2200196,95.0
1166,-0.3449068,2.8775024,-1.06112,-0.33240968,1.2860962,3.2200196,95.0
1167,-0.3449068,2.8775024,-1.06112,-0.7147339,1.173523,3.443042,95.0
1168,-0.6513529,2.496411,-1.3133736,-0.7147339,1.173523,3.443042,95.0
1169,-0.6513529,2.496411,-1.3133736,-0.71579593,0.9611206,3.5747316,95.0
1170,-0.64935374,2.165769,-1.279532,-0.71579593,0.9611206,3.5747316,95.0
1171,-0.64935374,2.165769,-1.279532,-0.33134767,0.725354,3.5980957,95.0
1172,-0.3733647,1.9377544,-1.0589527,-0.33134767,0.725354,3.5980957,95.0
1173,-0.3733647,1.9377544,-1.0589527,0.18054199,0.544812,3.533313,95.0
1174,-0.08207798,1.90566,-0.8911562,0.18054199,0.544812,3.533313,95.0
1175,-0.08207798,1.90566,-0.8911562,0.6425171,0.4248047,3.3782594,95.0
1176,0.017516136,2.031767,-0.88169956,0.6425171,0.4248047,3.3782594,95.0
1177,0.017516136,2.031767,-0.88169956,0.901648,0.33028564,3.1286867,95.0
1178,-0.040918827,2.2138412,-0.9643073,0.901648,0.33028564,3.1286867,95.0
1179,-0.040918827,2.2138412,-0.9643073,0.8878418,0.27506104,2.8207033,95.0
1180,-0.16253233,2.2949865,-0.9557109,0.8878418,0.27506104,2.8207033,95.0
1181,-0.16253233,2.2949865,-0.9557109,0.75721437,0.23258057,2.4351928,95.0
1182,-0.17161512,2.159915,-0.74662447,0.75721437,0.23258057,2.4351928,95.0
1183,-0.17161512,2.159915,-0.74662447,0.6690674,0.22302246,1.9668458,95.0
1184,0.097681046,1.8415794,-0.4379611,0.6690674,0.22302246,1.9668458,95.0
1185,0.097681046,1.8415794,-0.4379611,0.6149048,0.23895264,1.4326538,95.0
1186,0.43871617,1.4708099,-0.23255897,0.6149048,0.23895264,1.4326538,95.0
1187,0.43871617,1.4708099,-0.23255897,0.5331299,0.27293703,0.88040775,95.0
1188,0.39024305,1.2371826,-0.2208128,0.5331299,0.27293703,0.88040775,95.0
1189,0.39024305,1.2371826,-0.2208128,0.3525879,0.27718505,0.3069214,95.0
1190,0.080224276,1.1078248,-0.29931855,0.3525879,0.27718505,0.3069214,95.0
1191,0.080224276,1.1078248,-0.29931855,0.052038576,0.22196046,-0.39188233,95.0
1192,0.01417923,0.87391853,-0.30576324,0.052038576,0.22196046,-0.39188233,95.0
1193,0.01417923,0.87391853,-0.30576324,-0.3154175,0.19434814,-1.2043213,95.0
1194,-4.1558685,-4.0093126,2.5716736,-0.3154175,0.19434814,-1.2043213,95.0
1195,-4.1558685,-4.0093126,2.5716736,-0.5957886,0.13168946,-2.2344728,95.0
1196,-1.8723145,-4.2560706,2.2012475,-0.5957886,0.13168946,-2.2344728,95.0
1197,-1.8723145,-4.2560706,2.2012475,-0.9653687,0.13806152,-3.254004,95.0
1198,-0.13453364,-4.5818706,1.8429804,-0.9653687,0.13806152,-3.254004,95.0
1199,-0.13453364,-4.5818706,1.8429804,-1.5038086,0.16036378,-4.0462646,95.0
1200,-0.09581065,-4.7441955,1.7171944,-1.5038086,0.16036378,-4.0462646,95.0
1201,-0.09581065,-4.7441955,1.7171944,-1.5038086,0.16036378,-4.0462646,95.0
1202,-0.09581065,-4.7441955,1.7171944,-1.7640015,0.08920898,-4.425403,95.0
1203,-1.196961,-4.733601,2.0282965,-1.7640015,0.08920898,-4.425403,95.0
1204,-1.196961,-4.733601,2.0282965,-1.5144287,-0.08071289,-4.436023,95.0
1205,-1.9912359,-4.5656285,2.6766777,-1.5144287,-0.08071289,-4.436023,95.0
1206,-1.9912359,-4.5656285,2.6766777,-0.7890747,-0.22727051,-4.262915,95.0
1207,-1.7773638,-4.1597905,3.1318698,-0.7890747,-0.22727051,-4.262915,95.0
1208,-1.7773638,-4.1597905,3.1318698,0.060534667,-0.35789797,-4.0282106,95.0
1209,-0.62750626,-3.6465945,2.689944,0.060534667,-0.35789797,-4.0282106,95.0
1210,-0.62750626,-3.6465945,2.689944,0.5936646,-0.39294434,-3.891211,95.0
1211,0.7338959,-3.3337064,1.3119773,0.5936646,-0.39294434,-3.891211,95.0
1212,0.7338959,-3.3337064,1.3119773,0.6149048,-0.36851808,-3.9241333,95.0
1213,1.4905713,-3.234116,-0.22401428,0.6149048,-0.36851808,-3.9241333,95.0
1214,1.4905713,-3.234116,-0.22401428,0.05522461,-0.30054933,-4.066443,95.0
1215,1.568336,-3.2229738,-1.0342652,0.05522461,-0.30054933,-4.066443,95.0
1216,1.568336,-3.2229738,-1.0342652,-0.9876709,-0.17841797,-4.2140627,95.0
1217,1.3480039,-3.3101788,-0.86010253,-0.9876709,-0.17841797,-4.2140627,95.0
1218,1.3480039,-3.3101788,-0.86010253,-2.160132,0.0637207,-4.234241,95.0
1219,1.0799167,-3.5979357,-0.3187827,-2.160132,0.0637207,-4.234241,95.0
1220,1.0799167,-3.5979357,-0.3187827,-3.169043,0.31435546,-4.003784,95.0
1221,0.76752234,-4.008647,-0.29889822,-3.169043,0.31435546,-4.003784,95.0
1222,0.76752234,-4.008647,-0.29889822,-3.6862428,0.4630371,-3.6384523,95.0
1223,0.50850034,-4.3185387,-0.91165274,-3.6862428,0.4630371,-3.6384523,95.0
1224,0.50850034,-4.3185387,-0.91165274,-3.5492432,0.48746338,-3.2465699,95.0
1225,0.44538665,-4.381625,-1.5164316,-3.5492432,0.48746338,-3.2465699,95.0
1226,0.44538665,-4.381625,-1.5164316,-2.9651368,0.4354248,-2.7824707,95.0
1227,0.49395585,-4.1523952,-1.6905379,-2.9651368,0.4354248,-2.7824707,95.0
1228,0.49395585,-4.1523952,-1.6905379,-2.253589,0.3175415,-2.275891,95.0
1229,0.41227913,-3.6615772,-1.5737438,-2.253589,0.3175415,-2.275891,95.0
1230,0.41227913,-3.6615772,-1.5737438,-1.5962037,0.1274414,-1.7459472,95.0
1231,0.112586975,-3.015236,-1.3675766,-1.5962037,0.1274414,-1.7459472,95.0
1232,0.112586975,-3.015236,-1.3675766,-0.96218264,-0.107263185,-1.2478638,95.0
1233,-0.3489318,-2.2695131,-1.0983826,-0.96218264,-0.107263185,-1.2478638,95.0
1234,-0.3489318,-2.2695131,-1.0983826,-0.4078125,-0.34090576,-0.8251831,95.0
1235,-0.89256096,-1.5253153,-0.7833692,-0.4078125,-0.34090576,-0.8251831,95.0
1236,-0.89256096,-1.5253153,-0.7833692,-0.13062744,-0.5129517,-0.45772704,95.0
1237,-1.3978257,-0.93973446,-0.4353379,-0.13062744,-0.5129517,-0.45772704,95.0
1238,-1.3978257,-0.93973446,-0.4353379,-0.028674318,-0.634021,-0.12850343,95.0
1239,-1.5812367,-0.59874725,-0.02704227,-0.028674318,-0.634021,-0.12850343,95.0
1240,-1.5812367,-0.59874725,-0.02704227,0.124255374,-0.70092773,0.15823975,95.0
1241,-1.3569815,-0.41511822,0.3529756,0.124255374,-0.70092773,0.15823975,95.0
1242,-1.3569815,-0.41511822,0.3529756,0.36002198,-0.725354,0.39613038,95.0
1243,-0.91755545,-0.2798729,0.5456495,0.36002198,-0.725354,0.39613038,95.0
1244,-0.91755545,-0.2798729,0.5456495,0.5787964,-0.7434082,0.59047854,95.0
1245,-0.044969678,-0.23169899,0.5693199,0.5787964,-0.7434082,0.59047854,95.0
1246,-0.044969678,-0.23169899,0.5693199,0.7869507,-0.7391602,0.7614624,95.0
1247,1.7474593,-0.38327122,0.5715326,0.7869507,-0.7391602,0.7614624,95.0
1248,1.7474593,-0.38327122,0.5715326,1.0004151,-0.6711914,0.90802,95.0
1249,4.3110657,-0.6464853,0.5089473,1.0004151,-0.6711914,0.90802,95.0
1250,4.3110657,-0.6464853,0.5089473,1.0535157,-0.5809204,1.1182984,95.0
1251,5.797205,-0.32702637,0.15503383,1.0535157,-0.5809204,1.1182984,95.0
1252,5.797205,-0.32702637,0.15503383,0.55968016,-0.34727785,1.4772583,95.0
1253,4.474959,0.73929405,-0.1442591,0.55968016,-0.34727785,1.4772583,95.0
1254,4.474959,0.73929405,-0.1442591,-0.11469727,-0.4258667,1.9721558,95.0
1255,1.4515858,1.6880169,0.0896098,-0.11469727,-0.4258667,1.9721558,95.0
1256,1.4515858,1.6880169,0.0896098,-0.0998291,-0.62552494,2.4797974,95.0
1257,-0.7418318,1.8589458,0.94739586,-0.0998291,-0.62552494,2.4797974,95.0
1258,-0.7418318,1.8589458,0.94739586,0.7083618,-0.81243896,2.8674316,95.0
1259,-0.93764305,1.4102154,1.8063298,0.7083618,-0.81243896,2.8674316,95.0
1260,-0.93764305,1.4102154,1.8063298,1.6949707,-0.80606693,3.1116943,95.0
1261,-0.10222626,1.0697002,1.8125688,1.6949707,-0.80606693,3.1116943,95.0
1262,-0.10222626,1.0697002,1.8125688,2.441565,-0.71579593,3.255066,95.0
1263,0.6579528,1.1543808,1.1091249,2.441565,-0.71579593,3.255066,95.0
1264,0.6579528,1.1543808,1.1091249,3.0554078,-0.57454836,3.345337,95.0
1265,1.1139846,1.747467,0.35883307,3.0554078,-0.57454836,3.345337,95.0
1266,1.1139846,1.747467,0.35883307,3.4079957,-0.30373535,3.4271119,95.0
1267,0.93440056,2.9739742,-0.10093403,3.4079957,-0.30373535,3.4271119,95.0
1268,0.93440056,2.9739742,-0.10093403,3.1031983,0.11363526,3.5120728,95.0
1269,-0.15260172,4.319109,-0.23527604,3.1031983,0.11363526,3.5120728,95.0
1270,-0.15260172,4.319109,-0.23527604,2.2132325,0.47578126,3.5471191,95.0
1271,-1.7076283,4.984865,-0.20937562,2.2132325,0.47578126,3.5471191,95.0
1272,-1.7076283,4.984865,-0.20937562,1.1246704,0.70942384,3.521631,95.0
1273,-3.0600238,4.724635,-0.25507373,1.1246704,0.70942384,3.521631,95.0
1274,-3.0600238,4.724635,-0.25507373,0.33771974,0.7943848,3.4621582,95.0
1275,-3.8173063,3.9389977,-0.41515517,0.33771974,0.7943848,3.4621582,95.0
1276,-3.8173063,3.9389977,-0.41515517,-0.039294433,0.75509036,3.350647,95.0
1277,-3.8677855,3.1953635,-0.58963144,-0.039294433,0.75509036,3.350647,95.0
1278,-3.8677855,3.1953635,-0.58963144,-0.078588866,0.65632325,3.1817873,95.0
1279,-3.5075827,2.7466717,-0.77352405,-0.078588866,0.65632325,3.1817873,95.0
1280,-3.5075827,2.7466717,-0.77352405,0.14549561,0.5501221,2.9545166,95.0
1281,-3.12904,2.563048,-0.91603607,0.14549561,0.5501221,2.9545166,95.0
1282,-3.12904,2.563048,-0.91603607,0.4991455,0.42905274,2.6752076,95.0
1283,-2.713315,2.4835315,-0.892033,0.4991455,0.42905274,2.6752076,95.0
1284,-2.713315,2.4835315,-0.892033,0.8814697,0.33665773,2.3651001,95.0
1285,-2.113877,2.4514246,-0.7390658,0.8814697,0.33665773,2.3651001,95.0
1286,-2.113877,2.4514246,-0.7390658,1.1087402,0.3090454,2.0486207,95.0
1287,-1.5110236,2.5187812,-0.64606225,1.1087402,0.3090454,2.0486207,95.0
1288,-1.5110236,2.5187812,-0.64606225,1.0248413,0.32072756,1.7300171,95.0
1289,-1.2065117,2.5864727,-0.686967,1.0248413,0.32072756,1.7300171,95.0
1290,-1.2065117,2.5864727,-0.686967,0.77526855,0.30267334,1.3848633,95.0
1291,-1.1732051,2.4777355,-0.72712487,0.77526855,0.30267334,1.3848633,95.0
1292,-1.1732051,2.4777355,-0.72712487,0.49064943,0.26975098,1.0184692,95.0
1293,-1.196694,2.1371322,-0.5928693,0.49064943,0.26975098,1.0184692,95.0
1294,-1.196694,2.1371322,-0.5928693,0.27293703,0.23258057,0.631897,95.0
1295,-1.0971013,1.6245129,-0.24115336,0.27293703,0.23258057,0.631897,95.0
1296,-1.0971013,1.6245129,-0.24115336,0.2166504,0.18054199,0.2166504,95.0
1297,-0.8241043,1.0777231,0.14241672,0.2166504,0.18054199,0.2166504,95.0
1298,-0.8241043,1.0777231,0.14241672,0.25913087,0.1359375,-0.20072022,95.0
1299,-0.55740356,0.6926229,0.33793235,0.25913087,0.1359375,-0.20072022,95.0
1300,-0.55740356,0.6926229,0.33793235,0.26019287,0.07327881,-0.6138428,95.0
1301,-0.30019522,0.42914712,0.39079267,0.26019287,0.07327881,-0.6138428,95.0
1302,-0.30019522,0.42914712,0.39079267,0.17841797,-0.04141846,-1.0736939,95.0
1303,0.19966316,0.058527708,0.46049792,0.17841797,-0.04141846,-1.0736939,95.0
1304,0.19966316,0.058527708,0.46049792,0.09133301,-0.11151123,-1.6801026,95.0
1305,0.19966316,0.058527708,0.46049792,0.09133301,-0.11151123,-1.6801026,95.0
1306,1.2630631,-0.59253335,0.5471825,0.09133301,-0.11151123,-1.6801026,95.0
1307,1.2630631,-0.59253335,0.5471825,0.057348635,-0.24213867,-2.5031617,95.0
1308,2.588368,-1.3984041,0.5359638,0.057348635,-0.24213867,-2.5031617,95.0
1309,2.588368,-1.3984041,0.5359638,-0.21240234,-0.26019287,-3.3017945,95.0
1310,2.9887853,-2.109446,0.54716706,-0.21240234,-0.26019287,-3.3017945,95.0
1311,2.9887853,-2.109446,0.54716706,-0.6754395,-0.37807617,-3.893335,95.0
1312,2.074207,-2.5901082,0.9321916,-0.6754395,-0.37807617,-3.893335,95.0
1313,2.074207,-2.5901082,0.9321916,-0.9632446,-0.54693604,-4.236365,95.0
1314,0.9197172,-2.9738564,1.8029432,-0.9632446,-0.54693604,-4.236365,95.0
1315,0.9197172,-2.9738564,1.8029432,-0.67650145,-0.71791995,-4.248047,95.0
1316,0.66371566,-3.3527303,2.777804,-0.67650145,-0.71791995,-4.248047,95.0
1317,0.66371566,-3.3527303,2.777804,0.16567384,-0.85598147,-4.1259155,95.0
1318,1.3542514,-3.4238224,3.1474385,0.16567384,-0.85598147,-4.1259155,95.0
1319,1.3542514,-3.4238224,3.1474385,0.8846558,-0.93775636,-3.9220092,95.0
1320,2.1347804,-3.0538044,2.4390812,0.8846558,-0.93775636,-3.9220092,95.0
1321,2.1347804,-3.0538044,2.4390812,0.996167,-0.92713624,-3.7584596,95.0
1322,2.0729613,-2.5582533,1.0021195,0.996167,-0.92713624,-3.7584596,95.0
1323,2.0729613,-2.5582533,1.0021195,0.64995116,-0.8527954,-3.6575685,95.0
1324,1.0610423,-2.2072597,-0.1317761,0.64995116,-0.8527954,-3.6575685,95.0
1325,1.0610423,-2.2072597,-0.1317761,0.012744141,-0.80606693,-3.5577393,95.0
1326,-0.13651776,-1.9698358,-0.22237635,0.012744141,-0.80606693,-3.5577393,95.0
1327,-0.13651776,-1.9698358,-0.22237635,-0.91864014,-0.66481936,-3.437732,95.0
1328,-0.8435037,-2.018117,0.4521649,-0.91864014,-0.66481936,-3.437732,95.0
1329,-0.8435037,-2.018117,0.4521649,-1.7597535,-0.42161867,-3.2380738,95.0
1330,-1.0189558,-2.4588661,0.86829925,-1.7597535,-0.42161867,-3.2380738,95.0
1331,-1.0189558,-2.4588661,0.86829925,-2.2960694,-0.21452637,-2.972571,95.0
1332,-0.8954747,-2.9618444,0.38694906,-2.2960694,-0.21452637,-2.972571,95.0
1333,-0.8954747,-2.9618444,0.38694906,-2.4861696,-0.06584473,-2.72406,95.0
1334,-0.63047886,-3.2289362,-0.6069324,-2.4861696,-0.06584473,-2.72406,95.0
1335,-0.63047886,-3.2289362,-0.6069324,-2.4904175,0.038232423,-2.4967897,95.0
1336,-0.36258614,-3.2633734,-1.3234365,-2.4904175,0.038232423,-2.4967897,95.0
1337,-0.36258614,-3.2633734,-1.3234365,-2.3735962,0.121069334,-2.2355347,95.0
1338,-0.0064507723,-3.258233,-1.4335661,-2.3735962,0.121069334,-2.2355347,95.0
1339,-0.0064507723,-3.258233,-1.4335661,-2.0634887,0.17841797,-1.9148072,95.0
1340,0.4704008,-3.1219673,-1.3379539,-2.0634887,0.17841797,-1.9148072,95.0
1341,0.4704008,-3.1219673,-1.3379539,-1.7820557,0.19434814,-1.5484132,95.0
1342,0.7176659,-2.719595,-1.4074969,-1.7820557,0.19434814,-1.5484132,95.0
1343,0.7176659,-2.719595,-1.4074969,-1.5611572,0.12531738,-1.1618408,95.0
1344,0.5944941,-2.237565,-1.4219083,-1.5611572,0.12531738,-1.1618408,95.0
1345,0.5944941,-2.237565,-1.4219083,-1.2882203,0.014868164,-0.75615233,95.0
1346,0.17371535,-1.6914797,-1.2107201,-1.2882203,0.014868164,-0.75615233,95.0
1347,0.17371535,-1.6914797,-1.2107201,-1.088562,-0.11044922,-0.2888672,95.0
1348,-0.41393304,-1.0400858,-0.95754087,-1.088562,-0.11044922,-0.2888672,95.0
1349,-0.41393304,-1.0400858,-0.95754087,-0.9451904,-0.25806886,0.15080567,95.0
1350,-0.80220354,-0.5493536,-0.7250781,-0.9451904,-0.25806886,0.15080567,95.0
1351,-0.80220354,-0.5493536,-0.7250781,-0.5766724,-0.4322388,0.5628662,95.0
1352,-0.5865383,-0.31886482,-0.44211084,-0.5766724,-0.4322388,0.5628662,95.0
1353,-0.5865383,-0.31886482,-0.44211084,-0.16036378,-0.53525394,0.93563235,95.0
1354,0.14886022,-0.020032883,-0.2367087,-0.16036378,-0.53525394,0.93563235,95.0
1355,0.14886022,-0.020032883,-0.2367087,-0.038232423,-0.55543214,1.2414917,95.0
1356,1.0765711,0.38167953,-0.26293874,-0.038232423,-0.55543214,1.2414917,95.0
1357,1.0765711,0.38167953,-0.26293874,-0.058410645,-0.58623046,1.4846925,95.0
1358,2.1465476,0.6417198,-0.45458928,-0.058410645,-0.58623046,1.4846925,95.0
1359,2.1465476,0.6417198,-0.45458928,-0.1359375,-0.61278075,1.5823975,95.0
1360,3.5186663,0.45422077,-0.4290157,-0.1359375,-0.61278075,1.5823975,95.0
1361,3.5186663,0.45422077,-0.4290157,-0.0361084,-0.62764895,1.5144287,95.0
1362,4.336356,0.08681393,-0.27296108,-0.0361084,-0.62764895,1.5144287,95.0
1363,4.336356,0.08681393,-0.27296108,0.027612304,-0.4959595,1.5579712,95.0
1364,2.9179864,0.26145554,-0.3301853,0.027612304,-0.4959595,1.5579712,95.0
1365,2.9179864,0.26145554,-0.3301853,0.012744141,-0.57454836,1.6737305,95.0
1366,-0.09743452,0.7997408,-0.32042265,0.012744141,-0.57454836,1.6737305,95.0
1367,-0.09743452,0.7997408,-0.32042265,0.44923097,-0.8230591,1.8606446,95.0
1368,-1.6804013,0.81883335,0.3716038,0.44923097,-0.8230591,1.8606446,95.0
1369,-1.6804013,0.81883335,0.3716038,1.722583,-0.9696167,2.0093262,95.0
1370,-0.33964586,0.29702282,1.5717947,1.722583,-0.9696167,2.0093262,95.0
1371,-0.33964586,0.29702282,1.5717947,3.0957642,-0.7720825,2.2376587,95.0
1372,2.1703,0.35207176,1.8859026,3.0957642,-0.7720825,2.2376587,95.0
1373,2.1703,0.35207176,1.8859026,3.5545533,-0.41099855,2.540332,95.0
1374,3.4269261,1.6361132,0.7122378,3.5545533,-0.41099855,2.540332,95.0
1375,3.4269261,1.6361132,0.7122378,2.9205322,-0.052038576,2.9364624,95.0
1376,2.716004,3.354887,-0.7155492,2.9205322,-0.052038576,2.9364624,95.0
1377,2.716004,3.354887,-0.7155492,1.9307374,0.1996582,3.2986085,95.0
1378,0.6122198,4.467931,-1.0789092,1.9307374,0.1996582,3.2986085,95.0
1379,0.6122198,4.467931,-1.0789092,0.9834229,0.29736328,3.619336,95.0
1380,-1.6403637,4.5254927,-0.2730516,0.9834229,0.29736328,3.619336,95.0
1381,-1.6403637,4.5254927,-0.2730516,0.47896728,0.30054933,3.807312,95.0
1382,-2.846324,3.809823,0.6980138,0.47896728,0.30054933,3.807312,95.0
1383,-2.846324,3.809823,0.6980138,0.22833252,0.31860352,3.9506836,95.0
1384,-3.1191492,3.1112003,0.7947758,0.22833252,0.31860352,3.9506836,95.0
1385,-3.1191492,3.1112003,0.7947758,0.046728518,0.34727785,4.043079,95.0
1386,-3.2758613,2.7939773,0.07747102,0.046728518,0.34727785,4.043079,95.0
1387,-3.2758613,2.7939773,0.07747102,0.2262085,0.2177124,3.982544,95.0
1388,-3.455894,2.8742933,-0.73117507,0.2262085,0.2177124,3.982544,95.0
1389,-3.455894,2.8742933,-0.73117507,0.6202149,0.060534667,3.8168702,95.0
1390,-3.5342464,3.2065759,-1.123905,0.6202149,0.060534667,3.8168702,95.0
1391,-3.5342464,3.2065759,-1.123905,0.97386473,-0.060534667,3.5439332,95.0
1392,-3.4535446,3.3907733,-1.0244412,0.97386473,-0.060534667,3.5439332,95.0
1393,-3.4535446,3.3907733,-1.0244412,1.3147706,-0.14018555,3.153113,95.0
1394,-3.1323304,3.2425385,-0.6975682,1.3147706,-0.14018555,3.153113,95.0
1395,-3.1323304,3.2425385,-0.6975682,1.5813354,-0.15080567,2.6890137,95.0
1396,-2.768706,3.0100832,-0.42538851,1.5813354,-0.15080567,2.6890137,95.0
1397,-2.768706,3.0100832,-0.42538851,1.5802735,-0.10620117,2.2026124,95.0
1398,-2.5645378,2.8419046,-0.22079176,1.5802735,-0.10620117,2.2026124,95.0
1399,-2.5645378,2.8419046,-0.22079176,1.3211426,-0.021240234,1.7374512,95.0
1400,-2.4321477,2.6636484,0.032888055,1.3211426,-0.021240234,1.7374512,95.0
1401,-2.4321477,2.6636484,0.032888055,0.94625247,0.14655761,1.2935303,95.0
1402,-2.2571197,2.3432355,0.33879825,0.94625247,0.14655761,1.2935303,95.0
1403,-2.2571197,2.3432355,0.33879825,0.5787964,0.37382814,0.8527954,95.0
1404,-1.9478588,1.7982944,0.5245298,0.5787964,0.37382814,0.8527954,95.0
1405,-1.9478588,1.7982944,0.5245298,0.2984253,0.55968016,0.40993652,95.0
1406,-1.4505112,1.1214114,0.43347886,0.2984253,0.55968016,0.40993652,95.0
1407,-1.4505112,1.1214114,0.43347886,0.029736329,0.66269535,-0.05522461,95.0
1408,-0.8018396,0.46590364,0.16631435,0.029736329,0.66269535,-0.05522461,95.0
1409,-0.8018396,0.46590364,0.16631435,-0.1996582,0.68924564,-0.44710693,95.0
1410,-0.17596865,0.05232501,-0.062322058,-0.1996582,0.68924564,-0.44710693,95.0
1411,-0.17596865,0.05232501,-0.062322058,-0.37595215,0.6531372,-0.815625,95.0
1412,0.2793789,-0.13726592,-0.070756085,-0.37595215,0.6531372,-0.815625,95.0
1413,0.2793789,-0.13726592,-0.070756085,-0.44923097,0.61278075,-1.1958252,95.0
1414,0.69123983,-0.4002912,0.13548498,-0.44923097,0.61278075,-1.1958252,95.0
1415,0.69123983,-0.4002912,0.13548498,-0.45878908,0.5501221,-1.6811646,95.0
1416,0.69123983,-0.4002912,0.13548498,-0.45878908,0.5501221,-1.6811646,96.0
1417,1.6584852,-0.9606383,0.2981707,-0.45878908,0.5501221,-1.6811646,96.0
1418,1.6584852,-0.9606383,0.2981707,-0.46728516,0.40462646,-2.3693483,96.0
1419,2.9860656,-1.6128955,0.25969136,-0.46728516,0.40462646,-2.3693483,96.0
1420,2.9860656,-1.6128955,0.25969136,-0.65844727,0.38338622,-2.9534547,96.0
1421,3.1431372,-2.050729,0.15977946,-0.65844727,0.38338622,-2.9534547,96.0
1422,3.1431372,-2.050729,0.15977946,-0.88359374,0.23682861,-3.3262208,96.0
1423,1.6210161,-2.2074413,0.23609993,-0.88359374,0.23682861,-3.3262208,96.0
1424,1.6210161,-2.2074413,0.23609993,-0.88040775,-0.070092775,-3.4079957,96.0
1425,-0.012818426,-2.3196762,0.7066412,-0.88040775,-0.070092775,-3.4079957,96.0
1426,-0.012818426,-2.3196762,0.7066412,-0.28568116,-0.41737062,-3.4005616,96.0
1427,-0.11336756,-2.3840003,1.4420464,-0.28568116,-0.41737062,-3.4005616,96.0
1428,-0.11336756,-2.3840003,1.4420464,0.5703003,-0.70092773,-3.3156006,96.0
1429,1.1507,-2.2760115,1.7539179,0.5703003,-0.70092773,-3.3156006,96.0
1430,1.1507,-2.2760115,1.7539179,1.1161743,-0.80606693,-3.2200196,96.0
1431,2.3110263,-2.2061367,1.2287813,1.1161743,-0.80606693,-3.2200196,96.0
1432,2.3110263,-2.2061367,1.2287813,1.264856,-0.79332274,-3.1902833,96.0
1433,2.233831,-2.150114,0.25287366,1.264856,-0.79332274,-3.1902833,96.0
1434,2.233831,-2.150114,0.25287366,0.9281983,-0.7423462,-3.2168336,96.0
1435,1.0386882,-1.9154525,-0.46837974,0.9281983,-0.7423462,-3.2168336,96.0
1436,1.0386882,-1.9154525,-0.46837974,0.1529297,-0.68712157,-3.2168336,96.0
1437,-0.3816471,-1.671803,-0.48868084,0.1529297,-0.68712157,-3.2168336,96.0
1438,-0.3816471,-1.671803,-0.48868084,-0.68074954,-0.5883545,-3.169043,96.0
1439,-1.276326,-1.7035437,0.03671646,-0.68074954,-0.5883545,-3.169043,96.0
1440,-1.276326,-1.7035437,0.03671646,-1.264856,-0.45454103,-3.059656,96.0
1441,-1.4764075,-2.0057793,0.4567169,-1.264856,-0.45454103,-3.059656,96.0
1442,-1.4764075,-2.0057793,0.4567169,-1.6397461,-0.32497558,-2.9035401,96.0
1443,-1.191795,-2.3404026,0.2867236,-1.6397461,-0.32497558,-2.9035401,96.0
1444,-1.191795,-2.3404026,0.2867236,-1.9073731,-0.20496826,-2.799463,96.0
1445,-0.58900726,-2.6334305,-0.27980077,-1.9073731,-0.20496826,-2.799463,96.0
1446,-0.58900726,-2.6334305,-0.27980077,-2.0188844,-0.10938721,-2.7654786,96.0
1447,0.1741067,-2.8507261,-0.7653934,-2.0188844,-0.10938721,-2.7654786,96.0
1448,0.1741067,-2.8507261,-0.7653934,-2.061365,-0.015930176,-2.7548585,96.0
1449,0.6464265,-2.7564602,-0.9285134,-2.061365,-0.015930176,-2.7548585,96.0
1450,0.6464265,-2.7564602,-0.9285134,-2.088977,0.03186035,-2.7410524,96.0
1451,1.414126,-3.0971966,-0.97475654,-2.088977,0.03186035,-2.7410524,96.0
1452,1.414126,-3.0971966,-0.97475654,-2.1123414,0.14018555,-2.622107,96.0
1453,1.582839,-2.9112043,-0.9962359,-2.1123414,0.14018555,-2.622107,96.0
1454,1.582839,-2.9112043,-0.9962359,-2.090039,0.15080567,-2.535022,96.0
1455,1.6038688,-3.2260456,-1.0146035,-2.090039,0.15080567,-2.535022,96.0
1456,1.6038688,-3.2260456,-1.0146035,-1.8330323,0.07434082,-2.1038454,96.0
1457,1.3650043,-2.9175186,-0.9786994,-1.8330323,0.07434082,-2.1038454,96.0
1458,1.3650043,-2.9175186,-0.9786994,-1.6599244,0.019116212,-1.8903809,96.0
1459,0.31356096,-2.6969423,-0.6488775,-1.6599244,0.019116212,-1.8903809,96.0
1460,0.31356096,-2.6969423,-0.6488775,-1.002539,-0.21558838,-1.1193603,96.0
1461,-0.020781994,-2.1248016,-0.47078657,-1.002539,-0.21558838,-1.1193603,96.0
1462,-0.020781994,-2.1248016,-0.47078657,-0.72004396,-0.31435546,-0.84111327,96.0
1463,-0.3474362,-1.3093138,-0.08670005,-0.72004396,-0.31435546,-0.84111327,96.0
1464,-0.3474362,-1.3093138,-0.08670005,0.14761963,-0.540564,-0.093457036,96.0
1465,-0.09048557,-0.9222679,0.045239568,0.14761963,-0.540564,-0.093457036,96.0
1466,-0.09048557,-0.9222679,0.045239568,0.2803711,-0.56605226,0.14018555,96.0
1467,1.4176629,-0.443161,0.01504907,0.2803711,-0.56605226,0.14018555,96.0
1468,1.4176629,-0.443161,0.01504907,0.22408448,-0.540564,0.75615233,96.0
1469,1.6782954,-0.14398193,-0.06656182,0.22408448,-0.540564,0.75615233,96.0
1470,1.6782954,-0.14398193,-0.06656182,0.04460449,-0.50233155,0.94412845,96.0
1471,3.4764009,0.34466553,-0.45930415,0.04460449,-0.50233155,0.94412845,96.0
1472,3.4764009,0.34466553,-0.45930415,-0.5692383,-0.4800293,1.3243287,96.0
1473,3.441265,0.38419247,-0.46166945,-0.5692383,-0.4800293,1.3243287,96.0
1474,3.441265,0.38419247,-0.46166945,-0.6701294,-0.40356445,1.454956,96.0
1475,3.238205,0.48975182,-0.36207235,-0.6701294,-0.40356445,1.454956,96.0
1476,3.238205,0.48975182,-0.36207235,-0.90802,-0.36533204,1.9243653,96.0
1477,1.7782106,0.804204,-0.26388884,-0.90802,-0.36533204,1.9243653,96.0
1478,1.7782106,0.804204,-0.26388884,-0.8612915,-0.4439209,2.1123414,96.0
1479,-0.22246313,1.1716957,-0.0542019,-0.8612915,-0.4439209,2.1123414,96.0
1480,-0.22246313,1.1716957,-0.0542019,-0.2899292,-0.6669434,2.442627,96.0
1481,-1.1521893,1.0785551,0.23646021,-0.2899292,-0.6669434,2.442627,96.0
1482,-1.1521893,1.0785551,0.23646021,0.84536135,-0.8867798,2.6125488,96.0
1483,-0.18406868,0.65259075,0.7032795,0.84536135,-0.8867798,2.6125488,96.0
1484,-0.18406868,0.65259075,0.7032795,2.6072388,-0.9133301,2.7845948,96.0
1485,0.31916332,0.8580837,0.8984635,2.6072388,-0.9133301,2.7845948,96.0
1486,0.31916332,0.8580837,0.8984635,2.9035401,-0.82836914,2.8483155,96.0
1487,1.4537435,2.2286663,0.33028203,2.9035401,-0.82836914,2.8483155,96.0
1488,1.4537435,2.2286663,0.33028203,2.8716798,-0.44604492,3.0267334,96.0
1489,0.7972107,2.7236195,0.1980269,2.8716798,-0.44604492,3.0267334,96.0
1490,0.7972107,2.7236195,0.1980269,2.6847656,-0.34940186,3.071338,96.0
1491,-0.6988039,3.5891008,0.0314928,2.6847656,-0.34940186,3.071338,96.0
1492,-0.6988039,3.5891008,0.0314928,2.1611938,-0.18797608,3.1159425,96.0
1493,-2.2258644,3.837016,0.30458876,2.1611938,-0.18797608,3.1159425,96.0
1494,-2.2258644,3.837016,0.30458876,1.6694825,-0.04885254,3.175415,96.0
1495,-3.0852814,3.5190392,0.5151798,1.6694825,-0.04885254,3.175415,96.0
1496,-3.0852814,3.5190392,0.5151798,1.4156617,0.0722168,3.2072754,96.0
1497,-3.377344,3.1174402,0.21871124,1.4156617,0.0722168,3.2072754,96.0
1498,-3.377344,3.1174402,0.21871124,1.3307008,0.13168946,3.1913452,96.0
1499,-3.357051,2.9283762,-0.28502858,1.3307008,0.13168946,3.1913452,96.0
1500,-3.357051,2.9283762,-0.28502858,1.3912354,0.14549561,3.1148803,96.0
1501,-2.9453208,2.8414311,-0.49135295,1.3912354,0.14549561,3.1148803,96.0
1502,-2.9453208,2.8414311,-0.49135295,1.5866455,0.17629395,3.0214233,96.0
1503,-2.1225166,2.9809818,-0.39910042,1.5866455,0.17629395,3.0214233,96.0
1504,-2.1225166,2.9809818,-0.39910042,1.4900025,0.32497558,2.8387573,96.0
1505,-1.6646148,2.9568071,-0.38250056,1.4900025,0.32497558,2.8387573,96.0
1506,-1.6646148,2.9568071,-0.38250056,1.363623,0.35789797,2.7548585,96.0
1507,-1.4677271,3.0402136,-0.48256296,1.363623,0.35789797,2.7548585,96.0
1508,-1.4677271,3.0402136,-0.48256296,1.0959961,0.39294434,2.5445802,96.0
1509,-1.4438227,2.9337578,-0.6172515,1.0959961,0.39294434,2.5445802,96.0
1510,-1.4438227,2.9337578,-0.6172515,0.83686525,0.41737062,2.2886353,96.0
1511,-1.3636642,2.6884978,-0.62715083,0.83686525,0.41737062,2.2886353,96.0
1512,-1.3636642,2.6884978,-0.62715083,0.61065674,0.41949463,1.9997681,96.0
1513,-1.3636642,2.6884978,-0.62715083,0.40462646,0.43011475,1.6885986,96.0
1514,-1.1976209,2.3888352,-0.54885197,0.40462646,0.43011475,1.6885986,96.0
1515,-1.4306186,2.2945888,-0.26944047,0.40462646,0.43011475,1.6885986,96.0
1516,-1.4306186,2.2945888,-0.26944047,0.1901001,0.38975832,1.3328247,96.0
1517,-1.4306186,2.2945888,-0.26944047,0.050976563,0.31966552,0.90908206,96.0
1518,-1.4306186,2.2945888,-0.26944047,0.039294433,0.21558838,0.47365722,96.0
1519,-1.1659671,1.7654686,0.006554544,0.039294433,0.21558838,0.47365722,96.0
1520,-1.1659671,1.7654686,0.006554544,0.039294433,0.21558838,0.47365722,97.0
1521,-1.1659671,1.7654686,0.006554544,0.014868164,0.11469727,0.022302246,97.0
1522,-0.9617288,1.2681977,0.322834,0.014868164,0.11469727,0.022302246,97.0
1523,-0.9617288,1.2681977,0.322834,-0.07540283,-0.039294433,-0.8219971,97.0
1524,-0.7120588,0.7652416,0.39586484,-0.07540283,-0.039294433,-0.8219971,97.0
1525,-0.7120588,0.7652416,0.39586484,-0.050976563,-0.09239502,-1.1565307,97.0
1526,0.14302397,0.052195787,0.5616138,-0.050976563,-0.09239502,-1.1565307,97.0
1527,0.14302397,0.052195787,0.5616138,-0.027612304,-0.20284425,-1.9594116,97.0
1528,1.4307766,-0.70714474,0.52570707,-0.027612304,-0.20284425,-1.9594116,97.0
1529,1.4307766,-0.70714474,0.52570707,-0.21027832,-0.22939454,-2.7474244,97.0
1530,1.966716,-1.3976128,0.48608083,-0.21027832,-0.22939454,-2.7474244,97.0
1531,1.966716,-1.3976128,0.48608083,-0.5161377,-0.3154175,-3.349585,97.0
1532,1.259872,-1.9035273,0.80859125,-0.5161377,-0.3154175,-3.349585,97.0
1533,1.259872,-1.9035273,0.80859125,-0.7062378,-0.4439209,-3.709607,97.0
1534,0.23255575,-2.3048165,1.5817974,-0.7062378,-0.4439209,-3.709607,97.0
1535,0.23255575,-2.3048165,1.5817974,-0.45135498,-0.57561034,-3.7563355,97.0
1536,-0.086013526,-2.6843195,2.4455771,-0.45135498,-0.57561034,-3.7563355,97.0
1537,-0.086013526,-2.6843195,2.4455771,0.271875,-0.71791995,-3.623584,97.0
1538,0.5948123,-2.7690496,2.7419353,0.271875,-0.71791995,-3.623584,97.0
1539,0.5948123,-2.7690496,2.7419353,0.8973999,-0.8209351,-3.4228637,97.0
1540,1.668721,-2.409307,2.0648375,0.8973999,-0.8209351,-3.4228637,97.0
1541,1.668721,-2.409307,2.0648375,0.91120607,-0.81668705,-3.2444458,97.0
1542,2.1821814,-1.9481125,0.72356176,0.91120607,-0.81668705,-3.2444458,97.0
1543,2.1821814,-1.9481125,0.72356176,0.4725952,-0.75509036,-3.1541748,97.0
1544,1.6975151,-1.7172914,-0.40741777,0.4725952,-0.75509036,-3.1541748,97.0
1545,1.6975151,-1.7172914,-0.40741777,-0.22833252,-0.6839356,-3.1053224,97.0
1546,0.59602475,-1.7374072,-0.6107242,-0.22833252,-0.6839356,-3.1053224,97.0
1547,0.59602475,-1.7374072,-0.6107242,-1.1098022,-0.5384399,-3.0447876,97.0
1548,-0.47715974,-1.952682,-0.15588903,-1.1098022,-0.5384399,-3.0447876,97.0
1549,-0.47715974,-1.952682,-0.15588903,-2.0220704,-0.35471192,-2.8599975,97.0
1550,-1.1530291,-2.3317137,0.13503003,-2.0220704,-0.35471192,-2.8599975,97.0
1551,-1.1530291,-2.3317137,0.13503003,-2.624231,-0.20072022,-2.633789,97.0
1552,-1.3152211,-2.7499294,-0.14507651,-2.624231,-0.20072022,-2.633789,97.0
1553,-1.3152211,-2.7499294,-0.14507651,-2.70813,-0.14549561,-2.4521852,97.0
1554,-1.0322062,-3.068962,-0.6962004,-2.70813,-0.14549561,-2.4521852,97.0
1555,-1.0322062,-3.068962,-0.6962004,-2.4585571,-0.12319336,-2.3119996,97.0
1556,-0.60800374,-3.2474794,-1.0295434,-2.4585571,-0.12319336,-2.3119996,97.0
1557,-0.60800374,-3.2474794,-1.0295434,-1.99552,-0.115759276,-2.1941164,97.0
1558,-0.24399579,-3.2826881,-0.9738667,-1.99552,-0.115759276,-2.1941164,97.0
1559,-0.24399579,-3.2826881,-0.9738667,-1.4114136,-0.13381349,-2.0422485,97.0
1560,0.19714957,-3.1307163,-0.728837,-1.4114136,-0.13381349,-2.0422485,97.0
1561,0.19714957,-3.1307163,-0.728837,-0.8527954,-0.1709839,-1.8723267,97.0
1562,0.7719897,-2.813118,-0.5344001,-0.8527954,-0.1709839,-1.8723267,97.0
1563,0.7719897,-2.813118,-0.5344001,-0.44073486,-0.2262085,-1.6801026,97.0
1564,1.2313979,-2.4073792,-0.39417046,-0.44073486,-0.2262085,-1.6801026,97.0
1565,1.2313979,-2.4073792,-0.39417046,-0.3058594,-0.26868898,-1.4156617,97.0
1566,1.2360582,-1.9342527,-0.2779218,-0.3058594,-0.26868898,-1.4156617,97.0
1567,1.2360582,-1.9342527,-0.2779218,-0.44179687,-0.30267334,-1.0513916,97.0
1568,0.73321915,-1.476162,-0.15045023,-0.44179687,-0.30267334,-1.0513916,97.0
1569,0.73321915,-1.476162,-0.15045023,-0.544812,-0.36533204,-0.60109866,97.0
1570,0.16733706,-1.108408,0.071802855,-0.544812,-0.36533204,-0.60109866,97.0
1571,0.16733706,-1.108408,0.071802855,-0.3982544,-0.45560303,-0.15611573,97.0
