,accx,accy,accz,gyrox,gyroy,gyroz,heart rate
0,walk,walk,walk,walk,walk,walk,walk
1,-4.9836793,-54.67278,46.352222,0.0,0.0,0.0,0.0
2,-4.9836793,-54.67278,46.352222,-0.16354981,0.026550293,-0.12213135,0.0
3,-3.8953786,-43.88881,37.198235,-0.16354981,0.026550293,-0.12213135,0.0
4,-3.8953786,-43.88881,37.198235,-0.16354981,0.004248047,-0.124255374,0.0
5,-3.0556216,-35.41768,29.834211,-0.16354981,0.004248047,-0.124255374,0.0
6,-3.0556216,-35.41768,29.834211,-0.10195313,-0.012744141,-0.121069334,0.0
7,-2.450674,-28.444153,23.846958,-0.10195313,-0.012744141,-0.121069334,0.0
8,-2.450674,-28.444153,23.846958,-0.11257324,0.0021240234,-0.12319336,0.0
9,-2.01364,-22.657288,19.061256,-0.11257324,0.0021240234,-0.12319336,0.0
10,-2.01364,-22.657288,19.061256,-0.1274414,-0.027612304,-0.09770508,0.0
11,-1.6486807,-18.002598,15.297966,-0.1274414,-0.027612304,-0.09770508,0.0
12,-1.6486807,-18.002598,15.297966,-0.10513916,-0.02442627,-0.10407715,0.0
13,-1.3265252,-14.369926,12.288361,-0.10513916,-0.02442627,-0.10407715,0.0
14,-1.3265252,-14.369926,12.288361,-0.07752686,-0.050976563,-0.08496094,0.0
15,-1.0329976,-11.525909,9.850536,-0.07752686,-0.050976563,-0.08496094,0.0
16,-1.0329976,-11.525909,9.850536,-0.059472658,-0.050976563,-0.11044922,0.0
17,-0.80205727,-9.228394,7.8890457,-0.059472658,-0.050976563,-0.11044922,0.0
18,-0.80205727,-9.228394,7.8890457,-0.035046387,-0.053100586,-0.10407715,0.0
19,-0.64118195,-7.34132,6.327629,-0.035046387,-0.053100586,-0.10407715,0.0
20,-0.64118195,-7.34132,6.327629,-0.023364259,-0.047790527,-0.06796875,0.0
21,-0.48079205,-5.810837,5.094536,-0.023364259,-0.047790527,-0.06796875,0.0
22,-0.48079205,-5.810837,5.094536,0.014868164,-0.060534667,-0.04248047,0.0
23,-0.3281641,-4.608898,4.081196,0.014868164,-0.060534667,-0.04248047,0.0
24,-0.3281641,-4.608898,4.081196,0.03186035,-0.0361084,-0.04885254,0.0
25,-0.23673773,-3.656372,3.228241,0.03186035,-0.0361084,-0.04885254,0.0
26,-0.23673773,-3.656372,3.228241,0.0180542,-0.04248047,-0.03717041,0.0
27,-0.18189526,-2.9046402,2.5572777,0.0180542,-0.04248047,-0.03717041,0.0
28,-0.18189526,-2.9046402,2.5572777,0.0021240234,-0.053100586,-0.028674318,0.0
29,-0.1210413,-2.3299026,2.0556335,0.0021240234,-0.053100586,-0.028674318,0.0
30,-0.1210413,-2.3299026,2.0556335,0.038232423,-0.06159668,-0.027612304,0.0
31,-0.07475042,-1.8773117,1.6783066,0.038232423,-0.06159668,-0.027612304,0.0
32,-0.07475042,-1.8773117,1.6783066,0.09239502,-0.06690674,-0.032922365,0.0
33,-0.048740864,-1.4882278,1.3653641,0.09239502,-0.06690674,-0.032922365,0.0
34,-0.048740864,-1.4882278,1.3653641,0.10513916,-0.07965088,-0.010620117,0.0
35,-0.019058704,-1.1522675,1.0759964,0.10513916,-0.07965088,-0.010620117,0.0
36,-0.019058704,-1.1522675,1.0759964,0.081774905,-0.046728518,-0.009558106,0.0
37,-0.013171673,-0.8741455,0.82051086,0.081774905,-0.046728518,-0.009558106,0.0
38,-0.013171673,-0.8741455,0.82051086,0.039294433,-0.039294433,0.0010620117,0.0
39,-0.009572983,-0.675148,0.6270256,0.039294433,-0.039294433,0.0010620117,0.0
40,-0.009572983,-0.675148,0.6270256,0.014868164,-0.032922365,0.010620117,0.0
41,-0.011906147,-0.5463791,0.495018,0.014868164,-0.032922365,0.010620117,0.0
42,-0.011906147,-0.5463791,0.495018,0.026550293,-0.02442627,0.0031860352,0.0
43,-0.006131172,-0.46424103,0.4163742,0.026550293,-0.02442627,0.0031860352,0.0
44,-0.006131172,-0.46424103,0.4163742,0.0361084,-0.02442627,0.0010620117,0.0
45,0.011098385,-0.38609314,0.36522675,0.0361084,-0.02442627,0.0010620117,0.0
46,0.011098385,-0.38609314,0.36522675,0.043542482,-0.032922365,-0.016992187,0.0
47,0.024540424,-0.28743744,0.2780838,0.043542482,-0.032922365,-0.016992187,0.0
48,0.024540424,-0.28743744,0.2780838,0.026550293,-0.025488282,-0.022302246,0.0
49,0.020694256,-0.18276215,0.17677307,0.026550293,-0.025488282,-0.022302246,0.0
50,0.020694256,-0.18276215,0.17677307,-0.004248047,-0.004248047,-0.016992187,0.0
51,0.020388603,-0.13471985,0.1299324,-0.004248047,-0.004248047,-0.016992187,0.0
52,0.020388603,-0.13471985,0.1299324,-0.0053100586,-0.008496094,-0.0053100586,0.0
53,0.023964882,-0.11590576,0.12721252,-0.0053100586,-0.008496094,-0.0053100586,0.0
54,0.023964882,-0.11590576,0.12721252,0.0180542,-0.008496094,-0.0053100586,0.0
55,0.017072678,-0.08003235,0.13342285,0.0180542,-0.008496094,-0.0053100586,0.0
56,0.017072678,-0.08003235,0.13342285,0.058410645,-0.012744141,-0.010620117,0.0
57,0.01243782,-0.038650513,0.12745667,0.058410645,-0.012744141,-0.010620117,0.0
58,0.01243782,-0.038650513,0.12745667,0.081774905,-0.021240234,-0.023364259,0.0
59,0.018764019,0.009994507,0.07614899,0.081774905,-0.021240234,-0.023364259,0.0
60,0.018764019,0.009994507,0.07614899,0.04460449,-0.008496094,-0.016992187,0.0
61,0.022677422,0.011856079,0.01525116,0.04460449,-0.008496094,-0.016992187,0.0
62,0.022677422,0.011856079,0.01525116,0.011682129,-0.0021240234,-0.013806152,0.0
63,0.029628754,-0.028793335,0.012493134,0.011682129,-0.0021240234,-0.013806152,0.0
64,0.029628754,-0.028793335,0.012493134,0.013806152,-0.007434082,-0.004248047,0.0
65,0.005697727,-0.020080566,0.044895172,0.013806152,-0.007434082,-0.004248047,0.0
66,0.005697727,-0.020080566,0.044895172,0.008496094,-0.016992187,-0.0053100586,0.0
67,-0.021015644,0.015510559,0.09012604,0.008496094,-0.016992187,-0.0053100586,0.0
68,-0.021015644,0.015510559,0.09012604,0.026550293,-0.010620117,-0.012744141,0.0
69,-0.031936646,0.014205933,0.09170532,0.026550293,-0.010620117,-0.012744141,0.0
70,-0.031936646,0.014205933,0.09170532,0.027612304,-0.0031860352,-0.033984374,0.0
71,-0.046435356,-0.002281189,0.05432129,0.027612304,-0.0031860352,-0.033984374,0.0
72,-0.046435356,-0.002281189,0.05432129,0.022302246,0.009558106,-0.011682129,0.0
73,-0.06404066,-0.007904053,0.016746521,0.022302246,0.009558106,-0.011682129,0.0
74,-0.06404066,-0.007904053,0.016746521,-0.0053100586,-0.0021240234,0.0021240234,0.0
75,-0.06404066,-0.007904053,0.016746521,0.007434082,-0.0010620117,-0.0053100586,0.0
76,-0.07805157,0.010314941,0.03264618,0.007434082,-0.0010620117,-0.0053100586,0.0
77,-0.06244135,0.021827698,0.07251358,0.007434082,-0.0010620117,-0.0053100586,0.0
78,-0.06244135,0.021827698,0.07251358,0.03717041,0.004248047,-0.010620117,0.0
79,-0.0052628517,-0.013870239,0.09398651,0.03717041,0.004248047,-0.010620117,0.0
80,-0.0052628517,-0.013870239,0.09398651,0.11257324,-0.029736329,-0.08496094,0.0
81,-0.010484695,-0.028038025,0.06476593,0.11257324,-0.029736329,-0.08496094,0.0
82,-0.010484695,-0.028038025,0.06476593,0.13168946,0.009558106,-0.0031860352,0.0
83,-0.046583652,0.056755066,0.018562317,0.13168946,0.009558106,-0.0031860352,0.0
84,-0.046583652,0.056755066,0.018562317,0.093457036,0.008496094,-0.0010620117,0.0
85,-0.03830433,0.16260529,0.0040740967,0.093457036,0.008496094,-0.0010620117,0.0
86,-0.03830433,0.16260529,0.0040740967,0.083898924,0.013806152,-0.029736329,0.0
87,-0.008182526,0.21849823,-0.004638672,0.083898924,0.013806152,-0.029736329,0.0
88,-0.008182526,0.21849823,-0.004638672,0.025488282,0.032922365,-0.015930176,0.0
89,0.022726536,0.16651154,-0.020889282,0.025488282,0.032922365,-0.015930176,0.0
90,0.022726536,0.16651154,-0.020889282,-0.050976563,0.06159668,-0.03079834,0.0
91,0.006108284,0.0069503784,-0.026950836,-0.050976563,0.06159668,-0.03079834,0.0
92,0.006108284,0.0069503784,-0.026950836,-0.05628662,0.07646485,-0.023364259,0.0
93,0.006108284,0.0069503784,-0.026950836,-0.0637207,0.0637207,-0.012744141,0.0
94,-0.028279781,-0.09459686,-0.0430336,-0.0637207,0.0637207,-0.012744141,0.0
95,-0.06703329,-0.07243347,-0.06355286,-0.0637207,0.0637207,-0.012744141,0.0
96,-0.06703329,-0.07243347,-0.06355286,-0.06584473,0.05628662,0.0031860352,0.0
97,-0.08115339,-0.016098022,-0.06845856,-0.06584473,0.05628662,0.0031860352,0.0
98,-0.08115339,-0.016098022,-0.06845856,-0.09451904,0.052038576,-0.0031860352,0.0
99,-0.0567441,-0.02519989,-0.037750244,-0.09451904,0.052038576,-0.0031860352,0.0
100,-0.0567441,-0.02519989,-0.037750244,-0.08071289,0.04141846,-0.009558106,0.0
101,-0.0567441,-0.02519989,-0.037750244,-0.033984374,0.04460449,-0.009558106,0.0
102,-0.02580309,-0.08319855,0.014076233,-0.033984374,0.04460449,-0.009558106,0.0
103,-0.019287586,-0.09337616,0.0369339,-0.033984374,0.04460449,-0.009558106,0.0
104,-0.019287586,-0.09337616,0.0369339,-0.009558106,0.0361084,-0.008496094,0.0
105,-0.029004097,-0.04021454,0.0284729,-0.009558106,0.0361084,-0.008496094,0.0
106,-0.029004097,-0.04021454,0.0284729,-0.0053100586,0.035046387,-0.013806152,0.0
107,-0.040183067,0.017623901,0.01411438,-0.0053100586,0.035046387,-0.013806152,0.0
108,-0.040183067,0.017623901,0.01411438,-0.0010620117,0.032922365,-0.021240234,0.0
109,-0.040183067,0.017623901,0.01411438,-0.0010620117,0.032922365,-0.021240234,65.0
110,-0.039666176,0.041740417,0.01833725,-0.0010620117,0.032922365,-0.021240234,65.0
111,-0.039666176,0.041740417,0.01833725,0.0010620117,0.019116212,-0.015930176,65.0
112,-0.036908627,0.047096252,0.017707825,0.0010620117,0.019116212,-0.015930176,65.0
113,-0.036908627,0.047096252,0.017707825,0.0063720704,0.03717041,-0.020178223,65.0
114,-0.041062355,0.034843445,0.013080597,0.0063720704,0.03717041,-0.020178223,65.0
115,-0.041062355,0.034843445,0.013080597,0.028674318,0.050976563,-0.007434082,65.0
116,-0.029016495,0.025627136,0.03578186,0.028674318,0.050976563,-0.007434082,65.0
117,-0.029016495,0.025627136,0.03578186,0.04885254,0.07646485,0.021240234,65.0
118,-0.033235073,0.055267334,0.0569458,0.04885254,0.07646485,0.021240234,65.0
119,-0.033235073,0.055267334,0.0569458,-0.0021240234,0.08814698,0.03717041,65.0
120,-0.033235073,0.055267334,0.0569458,0.0010620117,0.13487549,0.08496094,65.0
121,-0.08460808,0.10491943,0.04586029,0.0010620117,0.13487549,0.08496094,65.0
122,-0.13124847,0.14731598,0.012054443,0.0010620117,0.13487549,0.08496094,65.0
123,-0.13124847,0.14731598,0.012054443,-0.035046387,0.19222413,0.1359375,65.0
124,-0.16720581,0.16220093,-0.06055832,-0.035046387,0.19222413,0.1359375,65.0
125,-0.16720581,0.16220093,-0.06055832,-0.10301514,0.29523927,0.18372802,65.0
126,-0.27581787,0.07871246,-0.07596207,-0.10301514,0.29523927,0.18372802,65.0
127,-0.27581787,0.07871246,-0.07596207,-0.16461182,0.33134767,0.15611573,65.0
128,-0.4393921,-0.03314972,0.019126892,-0.16461182,0.33134767,0.15611573,65.0
129,-0.4393921,-0.03314972,0.019126892,-0.16567384,0.3069214,0.11363526,65.0
130,-0.5488157,-0.062469482,0.07661438,-0.16567384,0.3069214,0.11363526,65.0
131,-0.5488157,-0.062469482,0.07661438,-0.20921631,0.26125488,0.107263185,65.0
132,-0.5406637,-0.07550049,0.034877777,-0.20921631,0.26125488,0.107263185,65.0
133,-0.5406637,-0.07550049,0.034877777,-0.30054933,0.21877442,0.13381349,65.0
134,-0.4697504,-0.22990417,0.024620056,-0.30054933,0.21877442,0.13381349,65.0
135,-0.4697504,-0.22990417,0.024620056,-0.27506104,0.20178223,0.09133301,65.0
136,-0.37956,-0.4363327,0.1302185,-0.27506104,0.20178223,0.09133301,65.0
137,-0.37956,-0.4363327,0.1302185,-0.13168946,0.1529297,0.039294433,65.0
138,-0.27743912,-0.43732452,0.19838715,-0.13168946,0.1529297,0.039294433,65.0
139,-0.27743912,-0.43732452,0.19838715,-0.0541626,0.12000733,-0.0031860352,65.0
140,-0.16705608,-0.20774078,0.138443,-0.0541626,0.12000733,-0.0031860352,65.0
141,-0.16705608,-0.20774078,0.138443,-0.06690674,0.11363526,-0.007434082,65.0
142,-0.074599266,0.00806427,0.0439682,-0.06690674,0.11363526,-0.007434082,65.0
143,-0.074599266,0.00806427,0.0439682,-0.10195313,0.11469727,-0.043542482,65.0
144,-0.02056837,0.11433411,-0.009170532,-0.10195313,0.11469727,-0.043542482,65.0
145,-0.02056837,0.11433411,-0.009170532,-0.19647217,0.087084964,-0.078588866,65.0
146,0.024133682,0.10066986,-0.0012359619,-0.19647217,0.087084964,-0.078588866,65.0
147,0.024133682,0.10066986,-0.0012359619,-0.2623169,0.03186035,-0.13699952,65.0
148,0.0895462,-0.0058288574,0.018165588,-0.2623169,0.03186035,-0.13699952,65.0
149,0.0895462,-0.0058288574,0.018165588,-0.28355715,-0.03079834,-0.21240234,65.0
150,0.07473755,-0.01159668,-0.07111359,-0.28355715,-0.03079834,-0.21240234,65.0
151,0.07473755,-0.01159668,-0.07111359,-0.3079834,0.03079834,-0.2442627,65.0
152,-0.09671593,0.12297058,-0.30038452,-0.3079834,0.03079834,-0.2442627,65.0
153,-0.09671593,0.12297058,-0.30038452,-0.27718505,0.15823975,-0.2623169,65.0
154,-0.28451395,0.22957611,-0.52183914,-0.27718505,0.15823975,-0.2623169,65.0
155,-0.28451395,0.22957611,-0.52183914,-0.14655761,0.29417726,-0.32709962,65.0
156,-0.3587637,0.33847046,-0.5865021,-0.14655761,0.29417726,-0.32709962,65.0
157,-0.3587637,0.33847046,-0.5865021,-0.18691407,0.33240968,-0.37701416,65.0
158,-0.28071213,0.41229248,-0.47811127,-0.18691407,0.33240968,-0.37701416,65.0
159,-0.28071213,0.41229248,-0.47811127,-0.41312256,0.33984375,-0.35152587,65.0
160,-0.111935616,0.30443573,-0.23085403,-0.41312256,0.33984375,-0.35152587,65.0
161,-0.111935616,0.30443573,-0.23085403,-0.74871826,0.32603762,-0.29205322,65.0
162,0.040273666,-0.054603577,0.07494736,-0.74871826,0.32603762,-0.29205322,65.0
163,0.040273666,-0.054603577,0.07494736,-1.0662597,0.36002198,-0.21346436,65.0
164,0.06945038,-0.6765518,0.3106537,-1.0662597,0.36002198,-0.21346436,65.0
165,0.06945038,-0.6765518,0.3106537,-1.2627319,0.4248047,-0.22939454,65.0
166,-0.13826275,-1.3266678,0.3301735,-1.2627319,0.4248047,-0.22939454,65.0
167,-0.13826275,-1.3266678,0.3301735,-1.3869873,0.5809204,-0.25913087,65.0
168,-0.62423325,-1.8630219,0.20304108,-1.3869873,0.5809204,-0.25913087,65.0
169,-0.62423325,-1.8630219,0.20304108,-1.2478638,0.7519043,-0.23151855,65.0
170,-1.2021089,-2.2833405,0.053951263,-1.2478638,0.7519043,-0.23151855,65.0
171,-1.2021089,-2.2833405,0.053951263,-0.7593384,0.84323734,-0.25063476,65.0
172,-1.6634693,-2.1587296,-0.15216064,-0.7593384,0.84323734,-0.25063476,65.0
173,-1.6634693,-2.1587296,-0.15216064,-0.35152587,0.9653687,-0.3069214,65.0
174,-1.8743057,-1.4093933,-0.42767334,-0.35152587,0.9653687,-0.3069214,65.0
175,-1.8743057,-1.4093933,-0.42767334,-0.13168946,1.0492676,-0.39294434,65.0
176,-1.8925476,-0.6625824,-0.56804276,-0.13168946,1.0492676,-0.39294434,65.0
177,-1.8925476,-0.6625824,-0.56804276,0.032922365,1.1267945,-0.4959595,65.0
178,-1.8643675,-0.14233398,-0.4471588,0.032922365,1.1267945,-0.4959595,65.0
179,-1.8643675,-0.14233398,-0.4471588,0.16036378,1.1087402,-0.5703003,65.0
180,-1.7306061,0.2455368,-0.2777214,0.16036378,1.1087402,-0.5703003,65.0
181,-1.7306061,0.2455368,-0.2777214,0.1178833,1.0439576,-0.5033936,65.0
182,-1.5047607,0.3492508,-0.19236755,0.1178833,1.0439576,-0.5033936,65.0
183,-1.5047607,0.3492508,-0.19236755,0.17629395,0.96430665,-0.4248047,65.0
184,-1.3622313,0.23739624,-0.14241028,0.17629395,0.96430665,-0.4248047,65.0
185,-1.3622313,0.23739624,-0.14241028,0.29417726,0.8782837,-0.41206056,65.0
186,-1.2794342,0.36055756,-0.1710701,0.29417726,0.8782837,-0.41206056,65.0
187,-1.2794342,0.36055756,-0.1710701,0.2538208,0.7975708,-0.38551027,65.0
188,-1.1388798,0.67443085,-0.2755127,0.2538208,0.7975708,-0.38551027,65.0
189,-1.1388798,0.67443085,-0.2755127,0.090270996,0.7688965,-0.35152587,65.0
190,-0.93927765,0.63217163,-0.29801178,0.090270996,0.7688965,-0.35152587,65.0
191,-0.93927765,0.63217163,-0.29801178,0.11363526,0.7880127,-0.3536499,65.0
192,-0.82886314,0.22045898,-0.12903595,0.11363526,0.7880127,-0.3536499,65.0
193,-0.82886314,0.22045898,-0.12903595,0.3451538,0.77951664,-0.35789797,65.0
194,-0.8283243,-0.021743774,0.071453094,0.3451538,0.77951664,-0.35789797,65.0
195,-0.8283243,-0.021743774,0.071453094,0.52250975,0.71154785,-0.36851808,65.0
196,-0.88814735,0.081459045,0.1160965,0.52250975,0.71154785,-0.36851808,65.0
197,-0.88814735,0.081459045,0.1160965,0.5787964,0.66269535,-0.38338622,65.0
198,-0.96640205,0.34209442,0.055343628,0.5787964,0.66269535,-0.38338622,65.0
199,-0.96640205,0.34209442,0.055343628,0.5256958,0.63720703,-0.39506838,65.0
200,-0.97949314,0.47158813,0.039051056,0.5256958,0.63720703,-0.39506838,65.0
201,-0.97949314,0.47158813,0.039051056,0.44923097,0.59897465,-0.36533204,65.0
202,-0.9444828,0.30884552,0.15917206,0.44923097,0.59897465,-0.36533204,65.0
203,-0.9444828,0.30884552,0.15917206,0.5256958,0.5671143,-0.32816163,65.0
204,-1.012434,0.06892395,0.29856873,0.5256958,0.5671143,-0.32816163,65.0
205,-1.012434,0.06892395,0.29856873,0.725354,0.5299439,-0.32285157,65.0
206,-1.1215563,0.03328705,0.39409256,0.725354,0.5299439,-0.32285157,65.0
207,-1.1215563,0.03328705,0.39409256,0.8262451,0.4163086,-0.31223145,65.0
208,-0.9991131,0.11924744,0.55792236,0.8262451,0.4163086,-0.31223145,65.0
209,-0.9991131,0.11924744,0.55792236,0.61065674,0.11151123,-0.36002198,65.0
210,-0.5901842,0.13881683,0.72579193,0.61065674,0.11151123,-0.36002198,65.0
211,-0.5901842,0.13881683,0.72579193,0.29736328,-0.16567384,-0.30161133,65.0
212,-0.11113739,0.0418396,0.755661,0.29736328,-0.16567384,-0.30161133,65.0
213,-0.11113739,0.0418396,0.755661,0.1274414,-0.2548828,-0.20921631,65.0
214,0.26690102,-0.087776184,0.66151047,0.1274414,-0.2548828,-0.20921631,65.0
215,0.26690102,-0.087776184,0.66151047,0.10195313,-0.21452637,-0.107263185,65.0
216,0.31322765,-0.21896362,0.314682,0.10195313,-0.21452637,-0.107263185,65.0
217,0.31322765,-0.21896362,0.314682,0.12531738,-0.04248047,0.014868164,65.0
218,0.020357132,-0.49131775,-0.18785477,0.12531738,-0.04248047,0.014868164,65.0
219,0.020357132,-0.49131775,-0.18785477,0.29630128,0.06584473,0.022302246,65.0
220,0.020357132,-0.49131775,-0.18785477,0.29630128,0.06584473,0.022302246,66.0
221,-0.20894623,-0.89839935,-0.52119446,0.29630128,0.06584473,0.022302246,66.0
222,-0.20894623,-0.89839935,-0.52119446,0.4343628,-0.0031860352,-0.047790527,66.0
223,-0.12920475,-1.1830597,-0.72535324,0.4343628,-0.0031860352,-0.047790527,66.0
224,-0.12920475,-1.1830597,-0.72535324,0.49383545,-0.06478272,-0.1263794,66.0
225,0.047063828,-1.1110458,-0.9020119,0.49383545,-0.06478272,-0.1263794,66.0
226,0.047063828,-1.1110458,-0.9020119,0.5140137,-0.023364259,-0.1529297,66.0
227,0.11416435,-0.64888,-0.98213196,0.5140137,-0.023364259,-0.1529297,66.0
228,0.11416435,-0.64888,-0.98213196,0.49383545,0.009558106,-0.15611573,66.0
229,0.009239197,-0.040222168,-1.0000877,0.49383545,0.009558106,-0.15611573,66.0
230,0.009239197,-0.040222168,-1.0000877,0.38551027,0.011682129,-0.14230958,66.0
231,-0.22643471,0.44293213,-1.0777588,0.38551027,0.011682129,-0.14230958,66.0
232,-0.22643471,0.44293213,-1.0777588,0.22833252,0.033984374,-0.13062744,66.0
233,-0.4894247,0.7109375,-1.1925163,0.22833252,0.033984374,-0.13062744,66.0
234,-0.4894247,0.7109375,-1.1925163,0.121069334,0.07115479,-0.1083252,66.0
235,-0.6912708,0.79577637,-1.2101784,0.121069334,0.07115479,-0.1083252,66.0
236,-0.6912708,0.79577637,-1.2101784,0.11044922,0.081774905,-0.09664307,66.0
237,-0.80700874,0.81650543,-1.0377121,0.11044922,0.081774905,-0.09664307,66.0
238,-0.80700874,0.81650543,-1.0377121,0.12956543,0.0361084,-0.09451904,66.0
239,-0.7875252,0.846611,-0.74541473,0.12956543,0.0361084,-0.09451904,66.0
240,-0.7875252,0.846611,-0.74541473,0.1539917,-0.07540283,-0.04991455,66.0
241,-0.5696564,0.84337616,-0.40332413,0.1539917,-0.07540283,-0.04991455,66.0
242,-0.5696564,0.84337616,-0.40332413,0.23258057,-0.15186767,-0.021240234,66.0
243,-0.17891884,0.78019714,-0.047416687,0.23258057,-0.15186767,-0.021240234,66.0
244,-0.17891884,0.78019714,-0.047416687,0.3058594,-0.19116211,-0.0053100586,66.0
245,0.2161789,0.7238388,0.25689316,0.3058594,-0.19116211,-0.0053100586,66.0
246,0.2161789,0.7238388,0.25689316,0.26337892,-0.19328614,-0.0180542,66.0
247,0.42963314,0.6347122,0.473423,0.26337892,-0.19328614,-0.0180542,66.0
248,0.42963314,0.6347122,0.473423,0.20603028,-0.16036378,-0.032922365,66.0
249,0.3993101,0.47683716,0.609108,0.20603028,-0.16036378,-0.032922365,66.0
250,0.3993101,0.47683716,0.609108,0.16567384,-0.07115479,-0.038232423,66.0
251,0.17321968,0.38806152,0.6771927,0.16567384,-0.07115479,-0.038232423,66.0
252,0.17321968,0.38806152,0.6771927,0.08283692,0.029736329,-0.02442627,66.0
253,-0.12240982,0.32930756,0.7321472,0.08283692,0.029736329,-0.02442627,66.0
254,-0.12240982,0.32930756,0.7321472,0.08814698,0.10301514,-0.015930176,66.0
255,-0.40272522,0.2426529,0.8082161,0.08814698,0.10301514,-0.015930176,66.0
256,-0.40272522,0.2426529,0.8082161,0.21983643,0.083898924,-0.0180542,66.0
257,-0.46558857,0.24327087,0.9524536,0.21983643,0.083898924,-0.0180542,66.0
258,-0.46558857,0.24327087,0.9524536,0.25913087,-0.052038576,-0.047790527,66.0
259,-0.1886816,0.414505,1.0912743,0.25913087,-0.052038576,-0.047790527,66.0
260,-0.1886816,0.414505,1.0912743,0.2081543,-0.14655761,-0.115759276,66.0
261,0.22968292,0.6568985,1.1191483,0.2081543,-0.14655761,-0.115759276,66.0
262,0.22968292,0.6568985,1.1191483,0.059472658,-0.11682129,-0.17947999,66.0
263,0.5760555,0.650177,1.1316338,0.059472658,-0.11682129,-0.17947999,66.0
264,0.5760555,0.650177,1.1316338,-0.1709839,-0.12000733,-0.28568116,66.0
265,0.9088907,0.23574066,1.2698822,-0.1709839,-0.12000733,-0.28568116,66.0
266,0.9088907,0.23574066,1.2698822,-0.37382814,-0.17416993,-0.4439209,66.0
267,1.23069,-0.22888947,1.3953094,-0.37382814,-0.17416993,-0.4439209,66.0
268,1.23069,-0.22888947,1.3953094,-0.3727661,-0.17416993,-0.50445557,66.0
269,1.3992128,-0.43901825,1.1413803,-0.3727661,-0.17416993,-0.50445557,66.0
270,1.3992128,-0.43901825,1.1413803,-0.24744873,-0.03079834,-0.5214478,66.0
271,1.352561,-0.36140442,0.45099258,-0.24744873,-0.03079834,-0.5214478,66.0
272,1.352561,-0.36140442,0.45099258,0.011682129,0.16036378,-0.37807617,66.0
273,1.2211113,-0.29325104,-0.28069687,0.011682129,0.16036378,-0.37807617,66.0
274,1.2211113,-0.29325104,-0.28069687,0.3706421,0.16673584,-0.42692873,66.0
275,1.1929541,-0.2651062,-0.7689667,0.3706421,0.16673584,-0.42692873,66.0
276,1.1929541,-0.2651062,-0.7689667,0.49277344,0.06478272,-0.5161377,66.0
277,1.2452087,-0.039390564,-1.0648308,0.49277344,0.06478272,-0.5161377,66.0
278,1.2452087,-0.039390564,-1.0648308,0.35789797,0.004248047,-0.67225343,66.0
279,1.2148438,0.1450119,-1.2057343,0.35789797,0.004248047,-0.67225343,66.0
280,1.2148438,0.1450119,-1.2057343,0.22514649,0.0180542,-0.8262451,66.0
281,1.0109377,0.027694702,-1.2385635,0.22514649,0.0180542,-0.8262451,66.0
282,1.0109377,0.027694702,-1.2385635,0.046728518,0.008496094,-0.9430664,66.0
283,0.6100683,-0.27563477,-1.201004,0.046728518,0.008496094,-0.9430664,66.0
284,0.6100683,-0.27563477,-1.201004,-0.14124756,0.014868164,-0.96643066,66.0
285,0.079582214,-0.5343628,-1.1766129,-0.14124756,0.014868164,-0.96643066,66.0
286,0.079582214,-0.5343628,-1.1766129,-0.23364258,0.038232423,-0.90908206,66.0
287,-0.4445858,-0.7063751,-1.2344894,-0.23364258,0.038232423,-0.90908206,66.0
288,-0.4445858,-0.7063751,-1.2344894,-0.23364258,0.08920898,-0.8050049,66.0
289,-0.93516064,-0.7800522,-1.2711716,-0.23364258,0.08920898,-0.8050049,66.0
290,-0.93516064,-0.7800522,-1.2711716,-0.20603028,0.11151123,-0.7126099,66.0
291,-1.3047333,-0.6686096,-1.150238,-0.20603028,0.11151123,-0.7126099,66.0
292,-1.3047333,-0.6686096,-1.150238,-0.15186767,0.04991455,-0.63826907,66.0
293,-1.3933105,-0.4165802,-0.8950691,-0.15186767,0.04991455,-0.63826907,66.0
294,-1.3933105,-0.4165802,-0.8950691,-0.12956543,0.0010620117,-0.6414551,66.0
295,-1.1967411,-0.1835556,-0.5387268,-0.12956543,0.0010620117,-0.6414551,66.0
296,-1.1967411,-0.1835556,-0.5387268,-0.18797608,-0.0053100586,-0.6605713,66.0
297,-0.92259026,-0.13296509,-0.2857933,-0.18797608,-0.0053100586,-0.6605713,66.0
298,-0.92259026,-0.13296509,-0.2857933,-0.20709229,-0.011682129,-0.6786255,66.0
299,-0.6721792,-0.025733948,0.32762527,-0.20709229,-0.011682129,-0.6786255,66.0
300,-0.6721792,-0.025733948,0.32762527,-0.27293703,0.004248047,-0.6595093,66.0
301,-0.51581955,-0.10259247,0.47224426,-0.27293703,0.004248047,-0.6595093,66.0
302,-0.51581955,-0.10259247,0.47224426,-0.26550293,0.009558106,-0.635083,66.0
303,-0.38144207,-0.18907928,1.1081085,-0.26550293,0.009558106,-0.635083,66.0
304,-0.38144207,-0.18907928,1.1081085,-0.14230958,0.03717041,-0.5012695,66.0
305,-0.3010025,-0.15553284,1.0687866,-0.14230958,0.03717041,-0.5012695,66.0
306,-0.3010025,-0.15553284,1.0687866,-0.07965088,0.083898924,-0.4333008,66.0
307,-0.43449116,0.15876007,1.1247292,-0.07965088,0.083898924,-0.4333008,66.0
308,-0.43449116,0.15876007,1.1247292,0.083898924,0.20072022,-0.2516968,66.0
309,-0.45691967,0.24141693,0.94654846,0.083898924,0.20072022,-0.2516968,66.0
310,-0.45691967,0.24141693,0.94654846,0.06584473,0.20072022,-0.2166504,66.0
311,-0.55755234,0.328331,1.0491562,0.06584473,0.20072022,-0.2166504,66.0
312,-0.55755234,0.328331,1.0491562,0.02442627,0.16248779,-0.13699952,66.0
313,-0.48473835,0.2188797,0.96962357,0.02442627,0.16248779,-0.13699952,66.0
314,-0.48473835,0.2188797,0.96962357,0.0637207,0.1539917,-0.1178833,66.0
315,-0.4068699,0.048484802,1.1571083,0.0637207,0.1539917,-0.1178833,66.0
316,-0.4068699,0.048484802,1.1571083,0.20284425,0.027612304,-0.083898924,66.0
317,-0.25622082,0.043632507,1.0249176,0.20284425,0.027612304,-0.083898924,66.0
318,-0.25622082,0.043632507,1.0249176,0.10407715,-0.03079834,-0.10195313,66.0
319,0.3078413,-0.19485474,0.8930054,0.10407715,-0.03079834,-0.10195313,66.0
320,0.3078413,-0.19485474,0.8930054,-0.0541626,0.043542482,-0.08814698,66.0
321,0.41079903,-0.42586517,0.63936615,-0.0541626,0.043542482,-0.08814698,66.0
322,0.41079903,-0.42586517,0.63936615,0.13699952,0.12531738,-0.04141846,66.0
323,0.7443619,-1.4115448,0.17555237,0.13699952,0.12531738,-0.04141846,66.0
324,0.7443619,-1.4115448,0.17555237,0.38551027,0.02442627,-0.07327881,66.0
325,0.7279482,-1.3219604,0.016490936,0.38551027,0.02442627,-0.07327881,66.0
326,0.7279482,-1.3219604,0.016490936,0.31329346,-0.04885254,-0.093457036,66.0
327,0.8329201,-1.3183823,-0.4981575,0.31329346,-0.04885254,-0.093457036,66.0
328,0.8329201,-1.3183823,-0.4981575,-0.053100586,-0.13699952,-0.081774905,66.0
329,0.7097807,-1.153717,-0.53567123,-0.053100586,-0.13699952,-0.081774905,66.0
330,0.7097807,-1.153717,-0.53567123,-0.12956543,-0.14337158,-0.047790527,66.0
331,0.44914722,-1.0185318,-0.653389,-0.12956543,-0.14337158,-0.047790527,66.0
332,0.44914722,-1.0185318,-0.653389,-0.17947999,-0.19222413,0.14549561,66.0
333,0.28966522,-0.6811447,-0.6295929,-0.17947999,-0.19222413,0.14549561,66.0
334,0.28966522,-0.6811447,-0.6295929,-0.18372802,-0.17523193,0.26125488,66.0
335,0.063323975,0.29237366,-1.2160416,-0.18372802,-0.17523193,0.26125488,66.0
336,0.063323975,0.29237366,-1.2160416,-0.08602295,-0.10938721,0.44923097,66.0
337,0.0049552917,0.55126953,-1.2846146,-0.08602295,-0.10938721,0.44923097,66.0
338,0.0049552917,0.55126953,-1.2846146,-0.04248047,-0.11151123,0.48215333,66.0
339,-0.071866035,1.1565933,-1.8329163,-0.04248047,-0.11151123,0.48215333,66.0
340,-0.071866035,1.1565933,-1.8329163,0.038232423,-0.13912354,0.44923097,66.0
341,-0.050754547,1.1145554,-1.5822525,0.038232423,-0.13912354,0.44923097,66.0
342,-0.050754547,1.1145554,-1.5822525,0.06796875,-0.15930176,0.40993652,66.0
343,0.074985504,1.1428299,-1.059452,0.06796875,-0.15930176,0.40993652,66.0
344,0.074985504,1.1428299,-1.059452,0.08920898,-0.21558838,0.2347046,66.0
345,0.12599182,0.9218445,-0.63744354,0.08920898,-0.21558838,0.2347046,66.0
346,0.12599182,0.9218445,-0.63744354,0.09133301,-0.20921631,0.17735596,66.0
347,0.12612247,0.42482758,0.1800003,0.09133301,-0.20921631,0.17735596,66.0
348,0.12612247,0.42482758,0.1800003,0.16142578,-0.18372802,0.06903076,66.0
349,0.07768059,0.22511292,0.36965942,0.16142578,-0.18372802,0.06903076,66.0
350,0.07768059,0.22511292,0.36965942,0.18585205,-0.16036378,0.050976563,66.0
351,-0.02587986,0.019432068,0.64772797,0.18585205,-0.16036378,0.050976563,66.0
352,-0.02587986,0.019432068,0.64772797,0.20072022,-0.07540283,0.019116212,66.0
353,-0.13723183,0.010955811,0.73015594,0.20072022,-0.07540283,0.019116212,66.0
354,-0.13723183,0.010955811,0.73015594,0.23789063,0.06584473,-0.019116212,66.0
355,-0.13723183,0.010955811,0.73015594,0.23789063,0.06584473,-0.019116212,67.0
356,-0.30899143,0.100112915,0.7197113,0.23789063,0.06584473,-0.019116212,67.0
357,-0.30899143,0.100112915,0.7197113,0.46516114,0.23045655,-0.08920898,67.0
358,-0.32832146,0.1654892,0.65377045,0.46516114,0.23045655,-0.08920898,67.0
359,-0.32832146,0.1654892,0.65377045,0.55755615,0.22833252,-0.11682129,67.0
360,-0.3153181,0.32317352,0.77970505,0.55755615,0.22833252,-0.11682129,67.0
361,-0.3153181,0.32317352,0.77970505,0.5214478,0.15611573,-0.20496826,67.0
362,-0.17184639,0.44976044,0.922554,0.5214478,0.15611573,-0.20496826,67.0
363,-0.17184639,0.44976044,0.922554,0.39294434,0.1444336,-0.2548828,67.0
364,-0.06924057,0.3982315,0.96928024,0.39294434,0.1444336,-0.2548828,67.0
365,-0.06924057,0.3982315,0.96928024,0.2538208,0.19328614,-0.2824951,67.0
366,-0.13725281,0.22663116,1.0120087,0.2538208,0.19328614,-0.2824951,67.0
367,-0.13725281,0.22663116,1.0120087,0.17841797,0.15611573,-0.26762697,67.0
368,-0.19997597,0.14850616,1.1728745,0.17841797,0.15611573,-0.26762697,67.0
369,-0.19997597,0.14850616,1.1728745,0.11682129,0.043542482,-0.26762697,67.0
370,0.042692184,0.33141327,1.2424393,0.11682129,0.043542482,-0.26762697,67.0
371,0.042692184,0.33141327,1.2424393,0.059472658,-0.04460449,-0.2814331,67.0
372,0.4565897,0.62592316,0.8970871,0.059472658,-0.04460449,-0.2814331,67.0
373,0.4565897,0.62592316,0.8970871,0.11044922,0.04460449,-0.32603762,67.0
374,0.7184582,0.79289246,0.11659622,0.11044922,0.04460449,-0.32603762,67.0
375,0.7184582,0.79289246,0.11659622,0.1359375,0.22727051,-0.38869628,67.0
376,0.7230215,0.5641098,-0.6473007,0.1359375,0.22727051,-0.38869628,67.0
377,0.7230215,0.5641098,-0.6473007,0.3090454,0.24532472,-0.4609131,67.0
378,0.7052727,0.10243988,-0.9570999,0.3090454,0.24532472,-0.4609131,67.0
379,0.7052727,0.10243988,-0.9570999,0.3355957,0.09239502,-0.62552494,67.0
380,0.8196621,-0.19330597,-0.88924026,0.3355957,0.09239502,-0.62552494,67.0
381,0.8196621,-0.19330597,-0.88924026,0.20178223,-0.06478272,-0.78164065,67.0
382,0.97156143,-0.3395691,-0.7488899,0.20178223,-0.06478272,-0.78164065,67.0
383,0.97156143,-0.3395691,-0.7488899,0.14124756,-0.10301514,-0.87191164,67.0
384,0.94540024,-0.44309998,-0.73072815,0.14124756,-0.10301514,-0.87191164,67.0
385,0.94540024,-0.44309998,-0.73072815,0.0637207,-0.0998291,-0.91757816,67.0
386,0.6265478,-0.53167725,-0.82458496,0.0637207,-0.0998291,-0.91757816,67.0
387,0.6265478,-0.53167725,-0.82458496,-0.090270996,-0.098767094,-0.8963379,67.0
388,0.09059429,-0.5995941,-0.9585953,-0.090270996,-0.098767094,-0.8963379,67.0
389,0.09059429,-0.5995941,-0.9585953,-0.2782471,-0.06478272,-0.79969484,67.0
390,-0.49595737,-0.69628906,-1.0466766,-0.2782471,-0.06478272,-0.79969484,67.0
391,-0.49595737,-0.69628906,-1.0466766,-0.25700685,-0.033984374,-0.62977296,67.0
392,-0.9974127,-0.68813324,-1.1137314,-0.25700685,-0.033984374,-0.62977296,67.0
393,-0.9974127,-0.68813324,-1.1137314,-0.1731079,-0.05628662,-0.4970215,67.0
394,-1.3002243,-0.45220184,-1.2072296,-0.1731079,-0.05628662,-0.4970215,67.0
395,-1.3002243,-0.45220184,-1.2072296,-0.14655761,-0.060534667,-0.4343628,67.0
396,-1.3381414,-0.05052948,-1.2105331,-0.14655761,-0.060534667,-0.4343628,67.0
397,-1.3381414,-0.05052948,-1.2105331,-0.10620117,-0.14549561,-0.3175415,67.0
398,-1.1523371,0.33824158,-1.0372887,-0.10620117,-0.14549561,-0.3175415,67.0
399,-1.1523371,0.33824158,-1.0372887,-0.1444336,-0.21877442,-0.29523927,67.0
400,-0.82614136,0.49021912,-0.6645241,-0.1444336,-0.21877442,-0.29523927,67.0
401,-0.82614136,0.49021912,-0.6645241,-0.22408448,-0.29736328,-0.2803711,67.0
402,-0.4725952,0.32810974,-0.05303192,-0.22408448,-0.29736328,-0.2803711,67.0
403,-0.4725952,0.32810974,-0.05303192,-0.21983643,-0.33878174,-0.270813,67.0
404,-0.18763447,0.040771484,0.67956924,-0.21983643,-0.33878174,-0.270813,67.0
405,-0.18763447,0.040771484,0.67956924,-0.2516968,-0.32603762,-0.22727051,67.0
406,0.011648178,-0.11231995,1.306488,-0.2516968,-0.32603762,-0.22727051,67.0
407,0.011648178,-0.11231995,1.306488,-0.23258057,-0.23682861,-0.14337158,67.0
408,0.1285448,-0.03139496,1.5962029,-0.23258057,-0.23682861,-0.14337158,67.0
409,0.1285448,-0.03139496,1.5962029,-0.16992188,-0.098767094,0.004248047,67.0
410,0.08169365,0.16873169,1.4832764,-0.16992188,-0.098767094,0.004248047,67.0
411,0.08169365,0.16873169,1.4832764,-0.0998291,-0.008496094,0.1083252,67.0
412,-0.047169685,0.2757721,1.2097893,-0.0998291,-0.008496094,0.1083252,67.0
413,-0.047169685,0.2757721,1.2097893,-0.16779785,-0.06796875,0.15611573,67.0
414,-0.075992584,0.2338028,1.0067711,-0.16779785,-0.06796875,0.15611573,67.0
415,-0.075992584,0.2338028,1.0067711,-0.3451538,-0.13806152,0.16354981,67.0
416,0.036190987,0.10230255,0.8948822,-0.3451538,-0.13806152,0.16354981,67.0
417,0.036190987,0.10230255,0.8948822,-0.53950197,-0.18479005,0.10938721,67.0
418,0.1808815,-0.03866577,0.73876953,-0.53950197,-0.18479005,0.10938721,67.0
419,0.1808815,-0.03866577,0.73876953,-0.81668705,-0.2538208,0.012744141,67.0
420,0.22556496,-0.2026825,0.51322174,-0.81668705,-0.2538208,0.012744141,67.0
421,0.22556496,-0.2026825,0.51322174,-1.2510499,-0.4088745,-0.1359375,67.0
422,0.30530548,-0.5952301,0.24696732,-1.2510499,-0.4088745,-0.1359375,67.0
423,0.30530548,-0.5952301,0.24696732,-1.896753,-0.5501221,-0.3525879,67.0
424,0.5060482,-1.1285324,-0.14173126,-1.896753,-0.5501221,-0.3525879,67.0
425,0.5060482,-1.1285324,-0.14173126,-2.0178223,-0.63933104,0.4619751,67.0
426,0.7163868,-2.0485382,-0.86457825,-2.0178223,-0.63933104,0.4619751,67.0
427,0.7163868,-2.0485382,-0.86457825,-2.5605104,-0.45666504,-0.44073486,67.0
428,0.7995987,-2.883278,-1.733448,-2.5605104,-0.45666504,-0.44073486,67.0
429,0.7995987,-2.883278,-1.733448,-2.7580445,-0.452417,-0.74022216,67.0
430,0.7978945,-3.224617,-2.448391,-2.7580445,-0.452417,-0.74022216,67.0
431,0.7978945,-3.224617,-2.448391,-2.817517,-0.5872925,-0.57242435,67.0
432,0.82164097,-3.3649597,-2.977478,-2.817517,-0.5872925,-0.57242435,67.0
433,0.82164097,-3.3649597,-2.977478,-2.4967897,-0.7858887,-0.8963379,67.0
434,0.97496414,-3.1594315,-3.2873154,-2.4967897,-0.7858887,-0.8963379,67.0
435,0.97496414,-3.1594315,-3.2873154,-2.2196045,-1.0471436,-0.96218264,67.0
436,1.4348545,-2.7601776,-3.2957726,-2.2196045,-1.0471436,-0.96218264,67.0
437,1.4348545,-2.7601776,-3.2957726,-2.1049073,-1.4634522,-1.2945923,67.0
438,2.1746902,-2.4357452,-3.0294914,-2.1049073,-1.4634522,-1.2945923,67.0
439,2.1746902,-2.4357452,-3.0294914,-1.9094971,-1.9179932,-1.5749635,67.0
440,3.034955,-2.1590805,-2.616867,-1.9094971,-1.9179932,-1.5749635,67.0
441,3.034955,-2.1590805,-2.616867,-1.6822265,-2.3332398,-1.8287842,67.0
442,3.8353987,-1.977005,-2.172779,-1.6822265,-2.3332398,-1.8287842,67.0
443,3.8353987,-1.977005,-2.172779,-1.3965454,-2.6550293,-1.9987061,67.0
444,4.4447594,-1.7442093,-1.8515663,-1.3965454,-2.6550293,-1.9987061,67.0
445,4.4447594,-1.7442093,-1.8515663,-0.91014403,-2.8260133,-2.1877441,67.0
446,4.8717012,-1.1742706,-1.6541405,-0.91014403,-2.8260133,-2.1877441,67.0
447,4.8717012,-1.1742706,-1.6541405,-0.4630371,-2.9194703,-2.3332398,67.0
448,5.233213,-0.45760345,-1.3657074,-0.4630371,-2.9194703,-2.3332398,67.0
449,5.233213,-0.45760345,-1.3657074,-0.124255374,-3.1010742,-2.2684572,67.0
450,5.6806865,-0.14237976,-0.99523926,-0.124255374,-3.1010742,-2.2684572,67.0
451,5.6806865,-0.14237976,-0.99523926,0.15505372,-3.3633912,-2.4681153,67.0
452,6.2716613,-0.16975403,-0.8094597,0.15505372,-3.3633912,-2.4681153,67.0
453,6.2716613,-0.16975403,-0.8094597,0.19647217,-3.6342041,-2.8706176,67.0
454,6.991963,0.08552551,-0.91197205,0.19647217,-3.6342041,-2.8706176,67.0
455,6.991963,0.08552551,-0.91197205,-0.13168946,-3.8986452,-3.2136476,67.0
456,7.692252,0.65057373,-1.204052,-0.13168946,-3.8986452,-3.2136476,67.0
457,7.692252,0.65057373,-1.204052,-0.91864014,-4.0802493,-3.4122436,67.0
458,8.0352955,1.0990143,-1.5564919,-0.91864014,-4.0802493,-3.4122436,67.0
459,8.0352955,1.0990143,-1.5564919,-2.0135744,-4.1599,-3.617212,67.0
460,7.989443,1.2325592,-1.9616013,-2.0135744,-4.1599,-3.617212,67.0
461,7.989443,1.2325592,-1.9616013,-3.1148803,-4.0409546,-3.6480103,67.0
462,8.154922,1.1204987,-2.7990417,-3.1148803,-4.0409546,-3.6480103,67.0
463,8.154922,1.1204987,-2.7990417,-4.169458,-3.7552736,-3.712793,67.0
464,8.507445,1.0274811,-3.9178734,-4.169458,-3.7552736,-3.712793,67.0
465,8.507445,1.0274811,-3.9178734,-4.984021,-3.25188,-3.706421,67.0
466,8.243053,0.98168945,-4.8321,-4.984021,-3.25188,-3.706421,67.0
467,8.243053,0.98168945,-4.8321,-5.667957,-2.622107,-3.3910034,67.0
468,7.2491417,0.887558,-5.3945236,-5.667957,-2.622107,-3.3910034,67.0
469,7.2491417,0.887558,-5.3945236,-6.158606,-1.8680786,-2.9322145,67.0
470,6.075205,0.85884094,-5.4313545,-6.158606,-1.8680786,-2.9322145,67.0
471,6.075205,0.85884094,-5.4313545,-6.1150637,-1.3360108,-2.5891845,67.0
472,4.612459,0.92780304,-4.8120613,-6.1150637,-1.3360108,-2.5891845,67.0
473,4.612459,0.92780304,-4.8120613,-5.4959106,-0.9451904,-2.1909301,67.0
474,2.4353657,0.69194794,-4.0005264,-5.4959106,-0.9451904,-2.1909301,67.0
475,2.4353657,0.69194794,-4.0005264,-4.625061,-0.6690674,-2.0210083,67.0
476,-0.55602837,0.16474152,-3.3188286,-4.625061,-0.6690674,-2.0210083,67.0
477,-0.55602837,0.16474152,-3.3188286,-3.6342041,-0.3334717,-1.8840088,67.0
478,-3.2863503,-0.11453247,-2.5478134,-3.6342041,-0.3334717,-1.8840088,67.0
479,-3.2863503,-0.11453247,-2.5478134,-2.4574952,-0.1996582,-1.8001099,67.0
480,-4.0151644,0.27539062,-1.890007,-2.4574952,-0.1996582,-1.8001099,67.0
481,-4.0151644,0.27539062,-1.890007,-1.2627319,-0.08602295,-1.6801026,67.0
482,-2.9192972,1.1520004,-1.5847702,-1.2627319,-0.08602295,-1.6801026,67.0
483,-2.9192972,1.1520004,-1.5847702,-1.2627319,-0.08602295,-1.6801026,70.0
484,-2.9192972,1.1520004,-1.5847702,-0.98873293,0.021240234,-1.540979,70.0
485,-1.6165771,1.9274979,-1.5764465,-0.98873293,0.021240234,-1.540979,70.0
486,-1.6165771,1.9274979,-1.5764465,-1.4719483,0.12000733,-1.356189,70.0
487,-1.0374641,2.1824265,-1.6325912,-1.4719483,0.12000733,-1.356189,70.0
488,-1.0374641,2.1824265,-1.6325912,-2.0464966,0.25594482,-1.085376,70.0
489,-1.165946,2.04068,-1.4928894,-2.0464966,0.25594482,-1.085376,70.0
490,-1.165946,2.04068,-1.4928894,-2.4819214,0.34727785,-0.8219971,70.0
491,-1.6234436,1.7292404,-1.1219254,-2.4819214,0.34727785,-0.8219971,70.0
492,-1.6234436,1.7292404,-1.1219254,-2.7028198,0.37382814,-0.5798584,70.0
493,-1.9549446,1.3161316,-0.6962967,-2.7028198,0.37382814,-0.5798584,70.0
494,-1.9549446,1.3161316,-0.6962967,-2.628479,0.32285157,-0.4258667,70.0
495,-1.9081211,0.9484863,-0.3099289,-2.628479,0.32285157,-0.4258667,70.0
496,-1.9081211,0.9484863,-0.3099289,-2.247217,0.20921631,-0.36320803,70.0
497,-1.5108843,0.7030182,0.038093567,-2.247217,0.20921631,-0.36320803,70.0
498,-1.5108843,0.7030182,0.038093567,-1.5664673,0.046728518,-0.3727661,70.0
499,-0.9246006,0.5783539,0.34971237,-1.5664673,0.046728518,-0.3727661,70.0
500,-0.9246006,0.5783539,0.34971237,-0.7540283,-0.15505372,-0.51188964,70.0
501,-0.29660225,0.6128082,0.615242,-0.7540283,-0.15505372,-0.51188964,70.0
502,-0.29660225,0.6128082,0.615242,-0.18903808,-0.3812622,-0.6510132,70.0
503,0.33244514,0.6771469,0.74004364,-0.18903808,-0.3812622,-0.6510132,70.0
504,0.33244514,0.6771469,0.74004364,0.19116211,-0.58623046,-0.86978763,70.0
505,1.0491343,0.6326065,0.71045685,0.19116211,-0.58623046,-0.86978763,70.0
506,1.0491343,0.6326065,0.71045685,0.4619751,-0.76464844,-1.0651978,70.0
507,1.5520391,0.6546707,0.7346611,0.4619751,-0.76464844,-1.0651978,70.0
508,1.5520391,0.6546707,0.7346611,0.58198243,-0.93775636,-1.1958252,70.0
509,1.3066216,0.85739136,0.9739227,0.58198243,-0.93775636,-1.1958252,70.0
510,1.3066216,0.85739136,0.9739227,0.60109866,-1.09281,-1.1692749,70.0
511,0.44313717,1.0797501,1.2016716,0.60109866,-1.09281,-1.1692749,70.0
512,0.44313717,1.0797501,1.2016716,0.68924564,-1.1108643,-0.9303223,70.0
513,-0.16290951,1.0821152,1.1433563,0.68924564,-1.1108643,-0.9303223,70.0
514,-0.16290951,1.0821152,1.1433563,0.77314454,-1.0099732,-0.6138428,70.0
515,-0.06517887,0.87047577,0.774086,0.77314454,-1.0099732,-0.6138428,70.0
516,-0.06517887,0.87047577,0.774086,0.77951664,-0.7625244,-0.31435546,70.0
517,0.15062714,0.6543274,0.32852173,0.77951664,-0.7625244,-0.31435546,70.0
518,0.15062714,0.6543274,0.32852173,0.58304447,-0.47578126,0.0,70.0
519,0.25551224,0.4774933,-0.035095215,0.58304447,-0.47578126,0.0,70.0
520,0.25551224,0.4774933,-0.035095215,0.35683593,-0.20284425,0.34090576,70.0
521,0.88313293,0.19081879,-0.30771637,0.35683593,-0.20284425,0.34090576,70.0
522,0.88313293,0.19081879,-0.30771637,0.42161867,-0.0010620117,0.6701294,70.0
523,1.3936033,-0.16950226,-0.3522644,0.42161867,-0.0010620117,0.6701294,70.0
524,1.3936033,-0.16950226,-0.3522644,0.82730716,0.30479738,1.0120972,70.0
525,1.2013931,-0.56663513,-0.35170746,0.82730716,0.30479738,1.0120972,70.0
526,1.2013931,-0.56663513,-0.35170746,1.4007934,0.5671143,1.363623,70.0
527,1.342413,-0.9799652,-0.639946,1.4007934,0.5671143,1.363623,70.0
528,1.342413,-0.9799652,-0.639946,2.0263183,0.9430664,1.7034668,70.0
529,1.7883472,-1.0956192,-0.9938278,2.0263183,0.9430664,1.7034668,70.0
530,1.7883472,-1.0956192,-0.9938278,2.451123,1.2977784,2.0252564,70.0
531,1.7412243,-0.9650574,-1.123455,2.451123,1.2977784,2.0252564,70.0
532,1.7412243,-0.9650574,-1.123455,2.608301,1.5972656,2.3321779,70.0
533,1.3110209,-0.9155655,-1.1194916,2.608301,1.5972656,2.3321779,70.0
534,1.3110209,-0.9155655,-1.1194916,2.5817506,1.8319702,2.6125488,70.0
535,0.77223015,-1.0302277,-1.0694809,2.5817506,1.8319702,2.6125488,70.0
536,0.77223015,-1.0302277,-1.0694809,2.6040528,1.9721558,2.89823,70.0
537,0.12734222,-1.1166763,-0.7266159,2.6040528,1.9721558,2.89823,70.0
538,0.12734222,-1.1166763,-0.7266159,2.5530763,1.9732178,2.987439,70.0
539,-0.6936836,-1.1073303,0.033294678,2.5530763,1.9732178,2.987439,70.0
540,-0.6936836,-1.1073303,0.033294678,2.0061402,1.6907227,3.0076172,70.0
541,-1.5382605,-1.3321533,0.82993317,2.0061402,1.6907227,3.0076172,70.0
542,-1.5382605,-1.3321533,0.82993317,1.6737305,1.4124756,3.0277956,70.0
543,-2.0579405,-1.779068,1.2127762,1.6737305,1.4124756,3.0277956,70.0
544,-2.0579405,-1.779068,1.2127762,1.5027466,1.1522827,3.0617797,70.0
545,-2.1612701,-2.0567627,1.1753006,1.5027466,1.1522827,3.0617797,70.0
546,-2.1612701,-2.0567627,1.1753006,1.2924683,1.0386475,2.9205322,70.0
547,-1.9969845,-2.194893,1.0132523,1.2924683,1.0386475,2.9205322,70.0
548,-1.9969845,-2.194893,1.0132523,1.3806152,1.0397094,2.8291993,70.0
549,-1.6138353,-2.2367249,0.9461136,1.3806152,1.0397094,2.8291993,70.0
550,-1.6138353,-2.2367249,0.9461136,1.5802735,1.1151123,2.6964478,70.0
551,-1.0980873,-2.058609,0.9996414,1.5802735,1.1151123,2.6964478,70.0
552,-1.0980873,-2.058609,0.9996414,1.6206299,1.1894531,2.52865,70.0
553,-0.64649963,-1.71035,1.1213341,1.6206299,1.1894531,2.52865,70.0
554,-0.64649963,-1.71035,1.1213341,1.5123047,1.2298096,2.3746583,70.0
555,-0.56845665,-1.3074799,1.2184677,1.5123047,1.2298096,2.3746583,70.0
556,-0.56845665,-1.3074799,1.2184677,1.2276856,1.2319336,2.2270386,70.0
557,-1.058135,-0.90821075,1.2019615,1.2276856,1.2319336,2.2270386,70.0
558,-1.058135,-0.90821075,1.2019615,0.7678345,1.2255615,2.083667,70.0
559,-1.7476559,-0.5422287,1.0659256,0.7678345,1.2255615,2.083667,70.0
560,-1.7476559,-0.5422287,1.0659256,0.25063476,1.1862671,1.9201173,70.0
561,-2.049468,-0.20990753,0.86112595,0.25063476,1.1862671,1.9201173,70.0
562,-2.049468,-0.20990753,0.86112595,-0.23789063,1.0503296,1.6248779,70.0
563,-1.954174,-0.038139343,0.7215195,-0.23789063,1.0503296,1.6248779,70.0
564,-1.954174,-0.038139343,0.7215195,-0.6425171,0.8315552,1.2106934,70.0
565,-1.66362,-0.19844055,0.6076851,-0.6425171,0.8315552,1.2106934,70.0
566,-1.66362,-0.19844055,0.6076851,-0.9218262,0.57561034,0.66588134,70.0
567,-1.0725956,-0.51236725,0.31072235,-0.9218262,0.57561034,0.66588134,70.0
568,-1.0725956,-0.51236725,0.31072235,-1.2393677,0.2803711,0.0053100586,70.0
569,-0.30703926,-0.7494354,-0.13487244,-1.2393677,0.2803711,0.0053100586,70.0
570,-0.30703926,-0.7494354,-0.13487244,-1.5558472,-0.033984374,-0.8315552,70.0
571,-0.27186394,-0.8439789,-0.31912994,-1.5558472,-0.033984374,-0.8315552,70.0
572,-0.27186394,-0.8439789,-0.31912994,-1.7937378,-0.42374268,-1.5600952,70.0
573,-1.2194195,-0.6918335,-0.15633011,-1.7937378,-0.42374268,-1.5600952,70.0
574,-1.2194195,-0.6918335,-0.15633011,-2.0507448,-0.78376466,-2.0178223,70.0
575,-1.8559313,-0.3376007,-0.12922668,-2.0507448,-0.78376466,-2.0178223,70.0
576,-1.8559313,-0.3376007,-0.12922668,-2.3215578,-1.0598878,-2.3704102,70.0
577,-1.004447,-0.07014465,-0.44273758,-2.3215578,-1.0598878,-2.3704102,70.0
578,-1.004447,-0.07014465,-0.44273758,-2.2376587,-1.3137085,-2.72937,70.0
579,0.9868603,-0.005630493,-0.73721313,-2.2376587,-1.3137085,-2.72937,70.0
580,0.9868603,-0.005630493,-0.73721313,-1.8330323,-1.5696534,-3.1255004,70.0
581,2.8227034,0.08558655,-0.63528824,-1.8330323,-1.5696534,-3.1255004,70.0
582,2.8227034,0.08558655,-0.63528824,-1.4783204,-1.9243653,-3.5694215,70.0
583,3.7017784,0.3358612,-0.43530273,-1.4783204,-1.9243653,-3.5694215,70.0
584,3.7017784,0.3358612,-0.43530273,-1.1565307,-2.182434,-3.9379394,70.0
585,3.5312471,0.7523575,-0.7019539,-1.1565307,-2.182434,-3.9379394,70.0
586,3.5312471,0.7523575,-0.7019539,-1.0227174,-2.1845582,-4.1184816,70.0
587,2.6566505,1.376297,-1.3478317,-1.0227174,-2.1845582,-4.1184816,70.0
588,2.6566505,1.376297,-1.3478317,-1.2446778,-2.0592408,-4.1811404,70.0
589,1.559988,1.9864883,-1.9044495,-1.2446778,-2.0592408,-4.1811404,70.0
590,1.559988,1.9864883,-1.9044495,-1.453894,-1.635498,-3.9273193,70.0
591,0.60458183,2.2768402,-2.1304321,-1.453894,-1.635498,-3.9273193,70.0
592,0.60458183,2.2768402,-2.1304321,-1.6907227,-1.2935303,-3.619336,70.0
593,0.15577221,2.3062592,-1.9760742,-1.6907227,-1.2935303,-3.619336,70.0
594,0.15577221,2.3062592,-1.9760742,-1.9264892,-1.0067872,-3.1977174,70.0
595,0.33047676,2.180359,-1.5176506,-1.9264892,-1.0067872,-3.1977174,70.0
596,0.33047676,2.180359,-1.5176506,-2.0581787,-0.7678345,-2.889734,70.0
597,0.8706684,1.8065567,-1.0987625,-2.0581787,-0.7678345,-2.889734,70.0
598,0.8706684,1.8065567,-1.0987625,-1.7013428,-0.6903076,-2.52865,70.0
599,1.4457655,1.4057541,-0.9154968,-1.7013428,-0.6903076,-2.52865,70.0
600,1.4457655,1.4057541,-0.9154968,-1.1979493,-0.58410645,-2.262085,70.0
601,1.5938807,1.1859818,-0.7747078,-1.1979493,-0.58410645,-2.262085,70.0
602,1.5938807,1.1859818,-0.7747078,-0.5703003,-0.5522461,-1.987024,70.0
603,1.0793285,1.1239319,-0.45837784,-0.5703003,-0.5522461,-1.987024,70.0
604,1.0793285,1.1239319,-0.45837784,0.023364259,-0.5979126,-1.7990478,70.0
605,0.079722404,1.2937622,-0.08945465,0.023364259,-0.5979126,-1.7990478,70.0
606,0.079722404,1.2937622,-0.08945465,0.20496826,-0.63614506,-1.5919555,70.0
607,-0.8339386,1.6073151,0.1119194,0.20496826,-0.63614506,-1.5919555,70.0
608,-0.8339386,1.6073151,0.1119194,-0.11257324,-0.61065674,-1.4039795,70.0
609,-1.0902586,1.7282333,0.1588974,-0.11257324,-0.61065674,-1.4039795,70.0
610,-1.0902586,1.7282333,0.1588974,-0.68712157,-0.53525394,-1.2149414,70.0
611,-0.70049095,1.5638275,0.11998749,-0.68712157,-0.53525394,-1.2149414,70.0
612,-0.70049095,1.5638275,0.11998749,-1.2351197,-0.41099855,-0.98236084,70.0
613,-0.15112782,1.1583328,-0.03358841,-1.2351197,-0.41099855,-0.98236084,70.0
614,-0.15112782,1.1583328,-0.03358841,-1.5271729,-0.21240234,-0.6924316,70.0
615,0.17057705,0.62566376,-0.1785202,-1.5271729,-0.21240234,-0.6924316,70.0
616,0.17057705,0.62566376,-0.1785202,-1.6206299,-0.008496094,-0.29736328,70.0
617,0.31729698,0.24238586,-0.17499161,-1.6206299,-0.008496094,-0.29736328,70.0
618,0.31729698,0.24238586,-0.17499161,-1.5643433,0.08496094,0.17947999,70.0
619,0.31729698,0.24238586,-0.17499161,-1.5643433,0.08496094,0.17947999,72.0
620,0.46661758,0.14543152,-0.041175842,-1.5643433,0.08496094,0.17947999,72.0
621,0.46661758,0.14543152,-0.041175842,-1.3625611,0.16779785,0.7412842,72.0
622,0.36439514,0.13518524,0.16519165,-1.3625611,0.16779785,0.7412842,72.0
623,0.36439514,0.13518524,0.16519165,-0.7168579,0.18585205,1.3126465,72.0
624,0.05741024,-0.098983765,0.1628418,-0.7168579,0.18585205,1.3126465,72.0
625,0.05741024,-0.098983765,0.1628418,0.3536499,0.3345337,1.8712647,72.0
626,-3.1826735,-0.5834732,-0.20388031,0.3536499,0.3345337,1.8712647,72.0
627,-3.1826735,-0.5834732,-0.20388031,1.5186768,0.5979126,2.2865112,72.0
628,1.0711222,-1.0057907,-0.713604,1.5186768,0.5979126,2.2865112,72.0
629,1.0711222,-1.0057907,-0.713604,2.5668824,0.9653687,2.4957275,72.0
630,1.5098028,-1.1306076,-0.99848175,2.5668824,0.9653687,2.4957275,72.0
631,1.5098028,-1.1306076,-0.99848175,3.3623292,1.3062744,2.636975,72.0
632,1.5606871,-0.9875412,-0.89394,3.3623292,1.3062744,2.636975,72.0
633,1.5606871,-0.9875412,-0.89394,3.8551025,1.453894,2.71875,72.0
634,1.1274309,-0.7948456,-0.5946312,3.8551025,1.453894,2.71875,72.0
635,1.1274309,-0.7948456,-0.5946312,4.055823,1.5208008,2.794153,72.0
636,0.44112873,-0.7475128,-0.24229431,4.055823,1.5208008,2.794153,72.0
637,0.44112873,-0.7475128,-0.24229431,4.1121097,1.5186768,2.7739747,72.0
638,-0.19184875,-0.87672424,0.24575424,4.1121097,1.5186768,2.7739747,72.0
639,-0.19184875,-0.87672424,0.24575424,4.3786745,1.4592041,2.8483155,72.0
640,-0.5981941,-1.0719223,0.85149765,4.3786745,1.4592041,2.8483155,72.0
641,-0.5981941,-1.0719223,0.85149765,3.9082031,1.2797241,2.7792847,72.0
642,-0.7843046,-1.2860413,1.365181,3.9082031,1.2797241,2.7792847,72.0
643,-0.7843046,-1.2860413,1.365181,3.1849732,1.178833,2.812207,72.0
644,-0.8998184,-1.5492554,1.5919266,3.1849732,1.178833,2.812207,72.0
645,-0.8998184,-1.5492554,1.5919266,2.5445802,1.1363525,2.709192,72.0
646,-1.0289125,-1.6540756,1.5377998,2.5445802,1.1363525,2.709192,72.0
647,-1.0289125,-1.6540756,1.5377998,1.7300171,1.1267945,2.6529052,72.0
648,-1.086277,-1.5944519,1.3428116,1.7300171,1.1267945,2.6529052,72.0
649,-1.086277,-1.5944519,1.3428116,1.0726318,1.2075074,2.6837037,72.0
650,-1.0180941,-1.7008438,1.1645813,1.0726318,1.2075074,2.6837037,72.0
651,-1.0180941,-1.7008438,1.1645813,0.7699585,1.3073364,2.6582153,72.0
652,-0.9349222,-1.8951111,1.099205,0.7699585,1.3073364,2.6582153,72.0
653,-0.9349222,-1.8951111,1.099205,0.6573853,1.3891114,2.626355,72.0
654,-0.96019363,-1.9061279,1.1469307,0.6573853,1.3891114,2.626355,72.0
655,-0.96019363,-1.9061279,1.1469307,0.5235718,1.3784913,2.5488281,72.0
656,-1.1261139,-1.7295456,1.1934853,0.5235718,1.3784913,2.5488281,72.0
657,-1.1261139,-1.7295456,1.1934853,0.39506838,1.2977784,2.4681153,72.0
658,-1.3474007,-1.4632263,1.1288223,0.39506838,1.2977784,2.4681153,72.0
659,-1.3474007,-1.4632263,1.1288223,0.1985962,1.1947632,2.353418,72.0
660,-1.3891144,-1.182312,0.99590683,0.1985962,1.1947632,2.353418,72.0
661,-1.3891144,-1.182312,0.99590683,-0.03186035,0.99935305,2.1962402,72.0
662,-1.1458254,-0.87431335,0.8980789,-0.03186035,0.99935305,2.1962402,72.0
663,-1.1458254,-0.87431335,0.8980789,-0.26868898,0.7455322,1.9572877,72.0
664,-0.9737654,-0.5672455,0.8298149,-0.26868898,0.7455322,1.9572877,72.0
665,-0.9737654,-0.5672455,0.8298149,-0.4619751,0.4364868,1.5590333,72.0
666,-1.1096764,-0.36384583,0.7187004,-0.4619751,0.4364868,1.5590333,72.0
667,-1.1096764,-0.36384583,0.7187004,-0.53737795,0.15717773,1.0662597,72.0
668,-1.1618376,-0.27205658,0.42562103,-0.53737795,0.15717773,1.0662597,72.0
669,-1.1618376,-0.27205658,0.42562103,-0.7126099,-0.1359375,0.3993164,72.0
670,-1.1151628,-0.31006622,0.032268524,-0.7126099,-0.1359375,0.3993164,72.0
671,-1.1151628,-0.31006622,0.032268524,-1.0821899,-0.37489015,-0.44816896,72.0
672,-1.5331097,-0.42420197,-0.16901016,-1.0821899,-0.37489015,-0.44816896,72.0
673,-1.5331097,-0.42420197,-0.16901016,-1.5622193,-0.61702883,-1.171399,72.0
674,-2.2526474,-0.4220276,-0.16373444,-1.5622193,-0.61702883,-1.171399,72.0
675,-2.2526474,-0.4220276,-0.16373444,-1.9190552,-0.7625244,-1.62594,72.0
676,-2.3590517,-0.2751236,-0.17324829,-1.9190552,-0.7625244,-1.62594,72.0
677,-2.3590517,-0.2751236,-0.17324829,-2.0326905,-0.91120607,-1.9201173,72.0
678,-1.1987529,-0.13975525,-0.3239975,-2.0326905,-0.91120607,-1.9201173,72.0
679,-1.1987529,-0.13975525,-0.3239975,-1.8680786,-1.09281,-2.2185426,72.0
680,0.77805805,-0.08870697,-0.4980545,-1.8680786,-1.09281,-2.2185426,72.0
681,0.77805805,-0.08870697,-0.4980545,-1.4761963,-1.2829102,-2.5944946,72.0
682,2.418809,-0.09070587,-0.5713577,-1.4761963,-1.2829102,-2.5944946,72.0
683,2.418809,-0.09070587,-0.5713577,-1.0991821,-1.5006226,-2.9959352,72.0
684,2.9769783,-0.052070618,-0.6692352,-1.0991821,-1.5006226,-2.9959352,72.0
685,2.9769783,-0.052070618,-0.6692352,-0.8464233,-1.6163819,-3.3910034,72.0
686,2.5738926,0.22834778,-0.94392014,-0.8464233,-1.6163819,-3.3910034,72.0
687,2.5738926,0.22834778,-0.94392014,-0.814563,-1.6747925,-3.7361572,72.0
688,1.7930622,0.760582,-1.3269615,-0.814563,-1.6747925,-3.7361572,72.0
689,1.7930622,0.760582,-1.3269615,-0.9239502,-1.5176147,-3.885901,72.0
690,1.1488667,1.3503265,-1.5446396,-0.9239502,-1.5176147,-3.885901,72.0
691,1.1488667,1.3503265,-1.5446396,-1.0322754,-1.44115,-3.9591796,72.0
692,0.9710703,1.8008194,-1.5346985,-1.0322754,-1.44115,-3.9591796,72.0
693,0.9710703,1.8008194,-1.5346985,-1.3859253,-1.4337158,-3.9623659,72.0
694,1.2460337,1.9154205,-1.596447,-1.3859253,-1.4337158,-3.9623659,72.0
695,1.2460337,1.9154205,-1.596447,-1.2563599,-1.2021973,-3.7212892,72.0
696,1.6943979,1.7403717,-1.7198334,-1.2563599,-1.2021973,-3.7212892,72.0
697,1.6943979,1.7403717,-1.7198334,-1.0120972,-1.1214844,-3.611902,72.0
698,2.139515,1.552536,-1.5921249,-1.0120972,-1.1214844,-3.611902,72.0
699,2.139515,1.552536,-1.5921249,-0.5511841,-0.99722904,-3.4897707,72.0
700,2.2790928,1.5443115,-1.1507378,-0.5511841,-0.99722904,-3.4897707,72.0
701,2.2790928,1.5443115,-1.1507378,-0.21877442,-1.1087402,-3.2051513,72.0
702,1.9681721,1.7052536,-0.6368866,-0.21877442,-1.1087402,-3.2051513,72.0
703,1.9681721,1.7052536,-0.6368866,-0.11044922,-1.1905152,-2.8302612,72.0
704,1.3050556,1.9705734,-0.37134933,-0.11044922,-1.1905152,-2.8302612,72.0
705,1.3050556,1.9705734,-0.37134933,-0.33771974,-1.2064453,-2.366162,72.0
706,0.34112644,2.2048798,-0.3401451,-0.33771974,-1.2064453,-2.366162,72.0
707,0.34112644,2.2048798,-0.3401451,-0.9165161,-1.084314,-1.8298463,72.0
708,-0.7438717,2.3151398,-0.30922318,-0.9165161,-1.084314,-1.8298463,72.0
709,-0.7438717,2.3151398,-0.30922318,-1.6089478,-0.9133301,-1.2499878,72.0
710,-1.378789,2.1595078,-0.20611954,-1.6089478,-0.9133301,-1.2499878,72.0
711,-1.378789,2.1595078,-0.20611954,-2.0305665,-0.8995239,-0.6945557,72.0
712,-1.1682043,1.6294403,-0.22655487,-2.0305665,-0.8995239,-0.6945557,72.0
713,-1.1682043,1.6294403,-0.22655487,-2.0337524,-0.7338501,-0.24532472,72.0
714,-0.54430485,0.895401,-0.39243698,-2.0337524,-0.7338501,-0.24532472,72.0
715,-0.54430485,0.895401,-0.39243698,-1.8054199,-0.4991455,0.09664307,72.0
716,0.024822235,0.2598648,-0.56980896,-1.8054199,-0.4991455,0.09664307,72.0
717,0.024822235,0.2598648,-0.56980896,-1.450708,-0.34090576,0.39613038,72.0
718,0.73272324,-0.079582214,-0.7300682,-1.450708,-0.34090576,0.39613038,72.0
719,0.73272324,-0.079582214,-0.7300682,-0.98873293,-0.107263185,0.6669434,72.0
720,1.1404877,-0.114349365,-0.67432785,-0.98873293,-0.107263185,0.6669434,72.0
721,1.1404877,-0.114349365,-0.67432785,-0.3536499,0.3525879,0.8889038,72.0
722,0.7014284,-0.17817688,-0.39646912,-0.3536499,0.3525879,0.8889038,72.0
723,0.7014284,-0.17817688,-0.39646912,0.5235718,0.45772704,1.1820191,72.0
724,0.27734184,-0.46707916,-0.41539383,0.5235718,0.45772704,1.1820191,72.0
725,0.27734184,-0.46707916,-0.41539383,1.5707153,0.725354,1.3614991,72.0
726,0.4695902,-0.7092972,-0.827446,1.5707153,0.725354,1.3614991,72.0
727,0.4695902,-0.7092972,-0.827446,2.5891845,1.1236085,1.4273437,72.0
728,0.7461071,-0.74794006,-1.0640831,2.5891845,1.1236085,1.4273437,72.0
729,0.7461071,-0.74794006,-1.0640831,3.4940186,1.4921265,1.4528321,72.0
730,0.5520611,-0.71242523,-0.75837326,3.4940186,1.4921265,1.4528321,72.0
731,0.5520611,-0.71242523,-0.75837326,4.245923,1.7024049,1.454956,72.0
732,-0.081336975,-0.71086884,-0.054927826,4.245923,1.7024049,1.454956,72.0
733,-0.081336975,-0.71086884,-0.054927826,4.8087893,1.7523193,1.4677002,72.0
734,-0.67665386,-0.7609558,0.5909805,4.8087893,1.7523193,1.4677002,72.0
735,-0.67665386,-0.7609558,0.5909805,5.1104007,1.7013428,1.5101807,72.0
736,-0.9540434,-0.80812836,1.0320015,5.1104007,1.7013428,1.5101807,72.0
737,-0.9540434,-0.80812836,1.0320015,5.7518554,1.7937378,1.538855,72.0
738,-0.9540434,-0.80812836,1.0320015,5.7518554,1.7937378,1.538855,73.0
739,-1.0051422,-0.66213226,1.3914223,5.7518554,1.7937378,1.538855,73.0
740,-1.0051422,-0.66213226,1.3914223,5.8113284,1.7427613,1.6503662,73.0
741,-0.8476925,-0.25419617,1.8300552,5.8113284,1.7427613,1.6503662,73.0
742,-0.8476925,-0.25419617,1.8300552,5.1401367,1.9572877,1.8022339,73.0
743,-0.7186575,0.1736908,1.947712,5.1401367,1.9572877,1.8022339,73.0
744,-0.7186575,0.1736908,1.947712,2.3035035,1.6015137,1.8648926,73.0
745,-0.42753887,0.10799408,1.7746239,2.3035035,1.6015137,1.8648926,73.0
746,-0.42753887,0.10799408,1.7746239,1.1023682,2.0188844,2.3927124,73.0
747,-0.021938324,-0.4592209,1.4445419,1.1023682,2.0188844,2.3927124,73.0
748,-0.021938324,-0.4592209,1.4445419,-0.08283692,2.1155274,2.5849366,73.0
749,0.22687054,-1.071907,1.064827,-0.08283692,2.1155274,2.5849366,73.0
750,0.22687054,-1.071907,1.064827,-0.77951664,2.263147,2.980005,73.0
751,0.42408657,-1.6839066,0.772686,-0.77951664,2.263147,2.980005,73.0
752,0.42408657,-1.6839066,0.772686,-1.1501588,2.3651001,3.081958,73.0
753,0.31855392,-2.334526,0.71785736,-1.1501588,2.3651001,3.081958,73.0
754,0.31855392,-2.334526,0.71785736,-1.0949341,2.3183715,2.981067,73.0
755,-0.3034706,-2.70475,0.85206985,-1.0949341,2.3183715,2.981067,73.0
756,-0.3034706,-2.70475,0.85206985,-0.813501,2.2440307,2.8631837,73.0
757,-1.2838898,-2.5918045,0.96051407,-0.813501,2.2440307,2.8631837,73.0
758,-1.2838898,-2.5918045,0.96051407,-0.46622315,2.1017213,2.7028198,73.0
759,-1.9455442,-1.9665375,0.83351135,-0.46622315,2.1017213,2.7028198,73.0
760,-1.9455442,-1.9665375,0.83351135,-0.27718505,1.8903809,2.4829834,73.0
761,-1.9918728,-1.0637436,0.5385246,-0.27718505,1.8903809,2.4829834,73.0
762,-1.9918728,-1.0637436,0.5385246,-0.31329346,1.6928467,2.1962402,73.0
763,-1.8825731,-0.27760315,0.35258484,-0.31329346,1.6928467,2.1962402,73.0
764,-1.8825731,-0.27760315,0.35258484,-0.5341919,1.3753052,1.8022339,73.0
765,-1.8971348,0.23956299,0.412632,-0.5341919,1.3753052,1.8022339,73.0
766,-1.8971348,0.23956299,0.412632,-0.814563,0.99935305,1.2776002,73.0
767,-1.6882648,0.24119568,0.554924,-0.814563,0.99935305,1.2776002,73.0
768,-1.6882648,0.24119568,0.554924,-1.1852051,0.4343628,0.62127686,73.0
769,-1.3676891,-0.53326416,0.60419464,-1.1852051,0.4343628,0.62127686,73.0
770,-1.3676891,-0.53326416,0.60419464,-1.4751343,-0.06584473,-0.3175415,73.0
771,-1.7362413,-1.4550781,0.5775337,-1.4751343,-0.06584473,-0.3175415,73.0
772,-1.7362413,-1.4550781,0.5775337,-1.621692,-0.5979126,-1.2754761,73.0
773,-2.629508,-1.4157715,0.47930145,-1.621692,-0.5979126,-1.2754761,73.0
774,-2.629508,-1.4157715,0.47930145,-1.628064,-0.92501223,-1.6747925,73.0
775,-2.7810721,-0.51485443,0.3868599,-1.628064,-0.92501223,-1.6747925,73.0
776,-2.7810721,-0.51485443,0.3868599,-1.5579712,-1.263794,-2.0263183,73.0
777,-1.4686079,0.14629364,0.31449127,-1.5579712,-1.263794,-2.0263183,73.0
778,-1.4686079,0.14629364,0.31449127,-1.1352905,-1.6142578,-2.2196045,73.0
779,0.56273556,0.21337128,0.07667923,-1.1352905,-1.6142578,-2.2196045,73.0
780,0.56273556,0.21337128,0.07667923,-0.63614506,-1.9625977,-2.4659913,73.0
781,2.193841,-0.0025253296,-0.29720306,-0.63614506,-1.9625977,-2.4659913,73.0
782,2.193841,-0.0025253296,-0.29720306,-0.20496826,-2.2142944,-2.7548585,73.0
783,2.9107609,-0.17904663,-0.6102333,-0.20496826,-2.2142944,-2.7548585,73.0
784,2.9107609,-0.17904663,-0.6102333,0.13168946,-2.3385499,-3.0585938,73.0
785,2.7546587,-0.08882904,-0.809124,0.13168946,-2.3385499,-3.0585938,73.0
786,2.7546587,-0.08882904,-0.809124,0.3079834,-2.3852785,-3.3697631,73.0
787,2.0884438,0.3681717,-0.90086365,0.3079834,-2.3852785,-3.3697631,73.0
788,2.0884438,0.3681717,-0.90086365,0.30161133,-2.3449218,-3.6140258,73.0
789,1.6152983,0.8678055,-0.94486237,0.30161133,-2.3449218,-3.6140258,73.0
790,1.6152983,0.8678055,-0.94486237,0.22514649,-2.3141236,-3.6809328,73.0
791,0.87806606,1.579628,-0.8681221,0.22514649,-2.3141236,-3.6809328,73.0
792,0.87806606,1.579628,-0.8681221,-0.22833252,-2.2068603,-3.6862428,73.0
793,0.8761349,1.8120193,-0.9504318,-0.22833252,-2.2068603,-3.6862428,73.0
794,0.8761349,1.8120193,-0.9504318,-0.3462158,-2.1643798,-3.6798706,73.0
795,1.6263714,1.7300339,-0.7806206,-0.3462158,-2.1643798,-3.6798706,73.0
796,1.6263714,1.7300339,-0.7806206,-0.5692383,-2.0634887,-3.5566773,73.0
797,1.7437477,1.7728195,-0.81002045,-0.5692383,-2.0634887,-3.5566773,73.0
798,1.7437477,1.7728195,-0.81002045,-0.60109866,-2.0103881,-3.4833984,73.0
799,2.3102207,1.5255432,-0.588665,-0.60109866,-2.0103881,-3.4833984,73.0
800,2.3102207,1.5255432,-0.588665,-0.48321533,-1.7788696,-3.07771,73.0
801,1.9331007,1.6076431,-0.64348984,-0.48321533,-1.7788696,-3.07771,73.0
802,1.9331007,1.6076431,-0.64348984,-0.54375,-1.7353271,-2.988501,73.0
803,1.2558804,1.5670013,-0.6570511,-0.54375,-1.7353271,-2.988501,73.0
804,1.2558804,1.5670013,-0.6570511,-0.7041138,-1.2818482,-2.2950075,73.0
805,0.7193403,1.494606,-0.6576843,-0.7041138,-1.2818482,-2.2950075,73.0
806,0.7193403,1.494606,-0.6576843,-0.6595093,-1.1225464,-2.0316284,73.0
807,-0.115859985,1.0291901,-0.3534317,-0.6595093,-1.1225464,-2.0316284,73.0
808,-0.115859985,1.0291901,-0.3534317,-0.090270996,-0.8708496,-1.1278565,73.0
809,-0.2154665,0.9069443,-0.34848022,-0.090270996,-0.8708496,-1.1278565,73.0
810,-0.2154665,0.9069443,-0.34848022,0.08602295,-0.7582764,-0.81668705,73.0
811,0.063137054,1.1021652,-0.7650528,0.08602295,-0.7582764,-0.81668705,73.0
812,0.063137054,1.1021652,-0.7650528,0.2899292,-0.1985962,0.093457036,73.0
813,0.17566872,0.94770813,-0.88703156,0.2899292,-0.1985962,0.093457036,73.0
814,0.17566872,0.94770813,-0.88703156,0.26975098,-0.010620117,0.40993652,73.0
815,0.8307457,0.7107544,-1.5533142,0.26975098,-0.010620117,0.40993652,73.0
816,0.8307457,0.7107544,-1.5533142,0.16673584,0.7189819,1.1034302,73.0
817,1.0040617,0.35030365,-1.3049202,0.16673584,0.7189819,1.1034302,73.0
818,1.0040617,0.35030365,-1.3049202,0.1444336,1.1289185,1.270166,73.0
819,0.6844387,-0.04017639,-0.6877594,0.1444336,1.1289185,1.270166,73.0
820,0.6844387,-0.04017639,-0.6877594,0.4970215,1.6397461,1.7533814,73.0
821,0.31587315,-0.41319275,-0.1842041,0.4970215,1.6397461,1.7533814,73.0
822,0.31587315,-0.41319275,-0.1842041,0.7412842,1.6949707,1.9094971,73.0
823,-0.055138588,-0.93112946,0.0401268,0.7412842,1.6949707,1.9094971,73.0
824,-0.055138588,-0.93112946,0.0401268,1.3455689,2.0295045,2.0380006,73.0
825,-0.03345394,-1.3190384,-0.12838364,1.3455689,2.0295045,2.0380006,73.0
826,-0.03345394,-1.3190384,-0.12838364,1.9466676,2.3874023,2.095349,73.0
827,-0.2163744,-1.3992462,-0.33171082,1.9466676,2.3874023,2.095349,73.0
828,-0.2163744,-1.3992462,-0.33171082,2.9184082,2.6890137,2.0496826,73.0
829,-0.21394444,-1.458725,0.12340164,2.9184082,2.6890137,2.0496826,73.0
830,-0.21394444,-1.458725,0.12340164,3.2816162,2.7760987,2.0156982,73.0
831,-0.101673126,-1.2510834,0.43131256,3.2816162,2.7760987,2.0156982,73.0
832,-0.101673126,-1.2510834,0.43131256,3.7573974,2.913098,1.9201173,73.0
833,-0.111050606,-0.7397003,1.0904732,3.7573974,2.913098,1.9201173,73.0
834,-0.111050606,-0.7397003,1.0904732,3.541809,2.812207,1.7427613,73.0
835,-0.5749731,-0.2758026,2.0258598,3.541809,2.812207,1.7427613,73.0
836,-0.5749731,-0.2758026,2.0258598,2.814331,2.4702394,1.7767457,73.0
837,-1.3322449,-0.30810547,2.6375809,2.814331,2.4702394,1.7767457,73.0
838,-1.3322449,-0.30810547,2.6375809,1.9254273,2.1357057,1.8171021,73.0
839,-1.9030876,-0.5669327,2.6983566,1.9254273,2.1357057,1.8171021,73.0
840,-1.9030876,-0.5669327,2.6983566,1.1214844,1.7756836,2.0826051,73.0
841,-1.9605684,-0.7204361,2.1569748,1.1214844,1.7756836,2.0826051,73.0
842,-1.9605684,-0.7204361,2.1569748,0.46516114,1.5590333,2.3300538,73.0
843,-1.6995459,-0.8754959,1.4380798,0.46516114,1.5590333,2.3300538,73.0
844,-1.6995459,-0.8754959,1.4380798,0.11151123,1.4135376,2.537146,73.0
845,-1.3476372,-1.233551,0.93004227,0.11151123,1.4135376,2.537146,73.0
846,-1.3476372,-1.233551,0.93004227,-0.03186035,1.356189,2.6061769,73.0
847,-0.82455826,-1.7074356,0.70238495,-0.03186035,1.356189,2.6061769,73.0
848,-0.82455826,-1.7074356,0.70238495,0.11151123,1.3275146,2.6401613,73.0
849,-0.2627716,-1.9654465,0.5831375,0.11151123,1.3275146,2.6401613,73.0
850,-0.2627716,-1.9654465,0.5831375,0.3695801,1.3200806,2.5902467,73.0
851,-0.25461483,-1.8104172,0.50723267,0.3695801,1.3200806,2.5902467,73.0
852,-0.25461483,-1.8104172,0.50723267,0.57454836,1.2722901,2.4989135,73.0
853,-1.1494198,-1.2240753,0.53995514,0.57454836,1.2722901,2.4989135,73.0
854,-1.1494198,-1.2240753,0.53995514,0.5777344,1.1841431,2.434131,73.0
855,-2.1902628,-0.43665314,0.7088585,0.5777344,1.1841431,2.434131,73.0
856,-2.1902628,-0.43665314,0.7088585,0.3802002,0.9568726,2.3109376,73.0
857,-2.38031,0.21727753,0.9030838,0.3802002,0.9568726,2.3109376,73.0
858,-2.38031,0.21727753,0.9030838,0.21027832,0.65632325,2.075171,73.0
859,-1.9198246,0.6040726,0.9384308,0.21027832,0.65632325,2.075171,73.0
860,-1.9198246,0.6040726,0.9384308,0.053100586,0.32709962,1.6546143,73.0
861,-1.3685141,0.6587601,0.84994125,0.053100586,0.32709962,1.6546143,73.0
862,-1.3685141,0.6587601,0.84994125,-0.19222413,0.016992187,1.1236085,73.0
863,-0.5787344,0.2664032,0.6503868,-0.19222413,0.016992187,1.1236085,73.0
864,-0.5787344,0.2664032,0.6503868,-0.6403931,-0.3982544,0.40144044,73.0
865,0.004175186,-0.44882965,0.30350113,-0.6403931,-0.3982544,0.40144044,73.0
866,0.004175186,-0.44882965,0.30350113,-1.2043213,-0.7317261,-0.5734863,73.0
867,-0.6628094,-0.89551544,0.10958862,-1.2043213,-0.7317261,-0.5734863,73.0
868,-0.6628094,-0.89551544,0.10958862,-1.5898316,-1.0726318,-1.2372437,73.0
869,-0.6628094,-0.89551544,0.10958862,-1.5898316,-1.0726318,-1.2372437,73.0
870,-1.9935899,-0.69644165,0.26236725,-1.5898316,-1.0726318,-1.2372437,73.0
871,-1.9935899,-0.69644165,0.26236725,-1.7926759,-1.3200806,-1.6694825,73.0
872,-2.4117174,-0.2740631,0.5666809,-1.7926759,-1.3200806,-1.6694825,73.0
873,-2.4117174,-0.2740631,0.5666809,-1.7586914,-1.62594,-1.8840088,73.0
874,-1.1896768,-0.14040375,0.6067734,-1.7586914,-1.62594,-1.8840088,73.0
875,-1.1896768,-0.14040375,0.6067734,-1.3827393,-1.9424194,-2.0114503,73.0
876,0.8812175,-0.2794876,0.2763481,-1.3827393,-1.9424194,-2.0114503,73.0
877,0.8812175,-0.2794876,0.2763481,-0.90270996,-2.272705,-2.2259767,73.0
878,2.516693,-0.47787476,-0.1540184,-0.90270996,-2.272705,-2.2259767,73.0
879,2.516693,-0.47787476,-0.1540184,-0.36320803,-2.4925416,-2.4681153,73.0
880,3.1041994,-0.6046753,-0.5376816,-0.36320803,-2.4925416,-2.4681153,73.0
881,3.1041994,-0.6046753,-0.5376816,0.090270996,-2.5838745,-2.7559204,73.0
882,2.6387062,-0.45560455,-0.8736763,0.090270996,-2.5838745,-2.7559204,73.0
883,2.6387062,-0.45560455,-0.8736763,0.31223145,-2.537146,-2.984253,73.0
884,1.6051302,0.063591,-1.0783615,0.31223145,-2.537146,-2.984253,73.0
885,1.6051302,0.063591,-1.0783615,0.28461915,-2.4033325,-3.1286867,73.0
886,0.67001724,0.7161789,-1.0478821,0.28461915,-2.4033325,-3.1286867,73.0
887,0.67001724,0.7161789,-1.0478821,0.121069334,-2.3704102,-3.173291,73.0
888,0.3748083,1.2051315,-0.9402237,0.121069334,-2.3704102,-3.173291,73.0
889,0.3748083,1.2051315,-0.9402237,-0.2814331,-2.2270386,-3.1308105,73.0
890,0.8044491,1.3286209,-0.8207588,-0.2814331,-2.2270386,-3.1308105,73.0
891,0.8044491,1.3286209,-0.8207588,-0.29736328,-2.1134033,-3.0660279,73.0
892,1.5312424,1.1938171,-0.6794815,-0.29736328,-2.1134033,-3.0660279,73.0
893,1.5312424,1.1938171,-0.6794815,-0.32391357,-2.085791,-3.064966,73.0
894,2.0968933,1.0081177,-0.5070267,-0.32391357,-2.085791,-3.064966,73.0
895,2.0968933,1.0081177,-0.5070267,-0.06265869,-1.9392334,-3.000183,73.0
896,2.2953367,0.8173599,-0.3025093,-0.06265869,-1.9392334,-3.000183,73.0
897,2.2953367,0.8173599,-0.3025093,0.3695801,-1.8298463,-2.8653076,73.0
898,2.090005,0.8438034,-0.19751358,0.3695801,-1.8298463,-2.8653076,73.0
899,2.090005,0.8438034,-0.19751358,0.61702883,-1.6567383,-2.6433473,73.0
900,1.5340519,1.1498871,-0.30685043,0.61702883,-1.6567383,-2.6433473,73.0
901,1.5340519,1.1498871,-0.30685043,0.6223389,-1.3179566,-2.270581,73.0
902,0.8241043,1.5162277,-0.6287575,0.6223389,-1.3179566,-2.270581,73.0
903,0.8241043,1.5162277,-0.6287575,0.4704712,-0.9791748,-1.7650635,73.0
904,0.38673687,1.7732468,-1.0334396,0.4704712,-0.9791748,-1.7650635,73.0
905,0.38673687,1.7732468,-1.0334396,0.14549561,-0.7455322,-1.1618408,73.0
906,0.5975609,1.8158264,-1.4475174,0.14549561,-0.7455322,-1.1618408,73.0
907,0.5975609,1.8158264,-1.4475174,-0.2347046,-0.32285157,-0.47365722,73.0
908,1.134018,1.4783936,-1.7903137,-0.2347046,-0.32285157,-0.47365722,73.0
909,1.134018,1.4783936,-1.7903137,-0.45560303,0.4364868,0.22833252,73.0
910,1.2431755,0.808815,-1.8168945,-0.45560303,0.4364868,0.22833252,73.0
911,1.2431755,0.808815,-1.8168945,-0.4067505,1.0004151,0.8336792,73.0
912,1.0148773,0.18916321,-1.4783554,-0.4067505,1.0004151,0.8336792,73.0
913,1.0148773,0.18916321,-1.4783554,-0.2814331,1.2988404,1.4400879,73.0
914,0.96096134,-0.115112305,-1.0359688,-0.2814331,1.2988404,1.4400879,73.0
915,0.96096134,-0.115112305,-1.0359688,-0.15611573,1.8479004,1.893567,73.0
916,0.83592033,-0.31209564,-0.44880676,-0.15611573,1.8479004,1.893567,73.0
917,0.83592033,-0.31209564,-0.44880676,0.0722168,2.182434,2.264209,73.0
918,0.09677601,-0.6884079,0.27708817,0.0722168,2.182434,2.264209,73.0
919,0.09677601,-0.6884079,0.27708817,0.39294434,2.451123,2.5222778,73.0
920,-1.0174637,-1.2047424,0.7069969,0.39294434,2.451123,2.5222778,73.0
921,-1.0174637,-1.2047424,0.7069969,0.88253176,2.451123,2.6645875,73.0
922,-1.447113,-1.5932617,0.5678177,0.88253176,2.451123,2.6645875,73.0
923,-1.447113,-1.5932617,0.5678177,1.4623902,2.531836,2.72406,73.0
924,-1.0130615,-1.6217804,0.29232788,1.4623902,2.531836,2.72406,73.0
925,-1.0130615,-1.6217804,0.29232788,2.1452637,2.7346802,2.614673,73.0
926,-0.6661377,-1.34552,0.5862541,2.1452637,2.7346802,2.614673,73.0
927,-0.6661377,-1.34552,0.5862541,2.7304323,2.6603394,2.4128907,73.0
928,-0.66867733,-1.0052719,1.5132065,2.7304323,2.6603394,2.4128907,73.0
929,-0.66867733,-1.0052719,1.5132065,3.163733,2.3119996,2.1314576,73.0
930,-0.8422785,-0.7847595,2.5743713,3.163733,2.3119996,2.1314576,73.0
931,-0.8422785,-0.7847595,2.5743713,3.1308105,1.9296753,1.8351563,73.0
932,-1.317316,-0.7301636,3.2207756,3.1308105,1.9296753,1.8351563,73.0
933,-1.317316,-0.7301636,3.2207756,2.70813,1.453894,1.5728394,73.0
934,-1.9177446,-0.7116165,3.095955,2.70813,1.453894,1.5728394,73.0
935,-1.9177446,-0.7116165,3.095955,2.1303957,1.1267945,1.5292969,73.0
936,-2.2376385,-0.5183563,2.3494415,2.1303957,1.1267945,1.5292969,73.0
937,-2.2376385,-0.5183563,2.3494415,1.5165528,0.95368654,1.4889405,73.0
938,-2.1043196,-0.28255463,1.5853386,1.5165528,0.95368654,1.4889405,73.0
939,-2.1043196,-0.28255463,1.5853386,1.0577637,0.88253176,1.539917,73.0
940,-1.5777302,-0.2297287,1.0837593,1.0577637,0.88253176,1.539917,73.0
941,-1.5777302,-0.2297287,1.0837593,0.80394286,0.94731444,1.6641724,73.0
942,-1.0587301,-0.3560257,0.75268936,0.80394286,0.94731444,1.6641724,73.0
943,-1.0587301,-0.3560257,0.75268936,0.65419924,1.1044922,1.7831177,73.0
944,-0.94503117,-0.51873016,0.52428055,0.65419924,1.1044922,1.7831177,73.0
945,-0.94503117,-0.51873016,0.52428055,0.5734863,1.3264526,1.8882569,73.0
946,-1.242548,-0.549881,0.4274292,0.5734863,1.3264526,1.8882569,73.0
947,-1.242548,-0.549881,0.4274292,0.51082766,1.5069946,1.996582,73.0
948,-1.7373972,-0.3429718,0.43660736,0.51082766,1.5069946,1.996582,73.0
949,-1.7373972,-0.3429718,0.43660736,0.3982544,1.6195679,1.9997681,73.0
950,-2.3008184,0.06440735,0.49628448,0.3982544,1.6195679,1.9997681,73.0
951,-2.3008184,0.06440735,0.49628448,0.20921631,1.5930176,1.988086,73.0
952,-2.494585,0.5151825,0.5570488,0.20921631,1.5930176,1.988086,73.0
953,-2.494585,0.5151825,0.5570488,-0.06796875,1.4082276,1.9158691,73.0
954,-1.9528704,0.82344055,0.63240814,-0.06796875,1.4082276,1.9158691,73.0
955,-1.9528704,0.82344055,0.63240814,-0.3695801,1.1352905,1.6843506,73.0
956,-1.2220864,0.72493744,0.8268242,-0.3695801,1.1352905,1.6843506,73.0
957,-1.2220864,0.72493744,0.8268242,-0.59047854,0.6966797,1.2860962,73.0
958,-0.9407797,0.21800995,1.0690155,-0.59047854,0.6966797,1.2860962,73.0
959,-0.9407797,0.21800995,1.0690155,-0.68499756,0.26444092,0.6202149,73.0
960,-0.59724045,-0.2297821,0.99674225,-0.68499756,0.26444092,0.6202149,73.0
961,-0.59724045,-0.2297821,0.99674225,-0.84323734,-0.2793091,-0.11151123,73.0
962,0.23458576,-0.4360962,0.4634323,-0.84323734,-0.2793091,-0.11151123,73.0
963,0.23458576,-0.4360962,0.4634323,-1.178833,-0.7519043,-0.9696167,73.0
964,0.5229349,-0.5724106,-0.048259735,-1.178833,-0.7519043,-0.9696167,73.0
965,0.5229349,-0.5724106,-0.048259735,-1.4358399,-1.2085694,-1.7098389,73.0
966,-0.37624407,-0.5265579,0.022949219,-1.4358399,-1.2085694,-1.7098389,73.0
967,-0.37624407,-0.5265579,0.022949219,-1.5431031,-1.5983276,-2.1197755,73.0
968,-1.2574773,-0.28170776,0.47203064,-1.5431031,-1.5983276,-2.1197755,73.0
969,-1.2574773,-0.28170776,0.47203064,-1.5091187,-1.9137452,-2.2843874,73.0
970,-0.80723953,-0.04953766,0.60632324,-1.5091187,-1.9137452,-2.2843874,73.0
971,-0.80723953,-0.04953766,0.60632324,-1.2956543,-2.2036743,-2.2928834,73.0
972,0.69737244,0.138237,0.17012024,-1.2956543,-2.2036743,-2.2928834,73.0
973,0.69737244,0.138237,0.17012024,-1.0471436,-2.444751,-2.34917,73.0
974,2.0730467,0.22911835,-0.5629654,-1.0471436,-2.444751,-2.34917,73.0
975,2.0730467,0.22911835,-0.5629654,-0.7593384,-2.4946656,-2.3300538,73.0
976,2.6411157,0.12913513,-1.3778152,-0.7593384,-2.4946656,-2.3300538,73.0
977,2.6411157,0.12913513,-1.3778152,-0.6000366,-2.3343017,-2.3332398,73.0
978,2.4761372,-0.04813385,-2.0483475,-0.6000366,-2.3343017,-2.3332398,73.0
979,2.4761372,-0.04813385,-2.0483475,-0.64995116,-2.0008302,-2.4086425,73.0
980,1.8837786,-0.06806946,-2.233284,-0.64995116,-2.0008302,-2.4086425,73.0
981,1.8837786,-0.06806946,-2.233284,-0.9218262,-1.6737305,-2.5583863,73.0
982,1.2431679,0.10038757,-1.8665123,-0.9218262,-1.6737305,-2.5583863,73.0
983,1.2431679,0.10038757,-1.8665123,-1.2914063,-1.4655762,-2.631665,73.0
984,1.0113678,0.20521545,-1.3050003,-1.2914063,-1.4655762,-2.631665,73.0
985,1.0113678,0.20521545,-1.3050003,-1.4857544,-1.3997315,-2.7368042,73.0
986,1.3506956,0.13257599,-0.8807297,-1.4857544,-1.3997315,-2.7368042,73.0
987,1.3506956,0.13257599,-0.8807297,-1.354065,-1.3614991,-2.8270752,73.0
988,1.9843893,0.11349487,-0.6823654,-1.354065,-1.3614991,-2.8270752,73.0
989,1.9843893,0.11349487,-0.6823654,-1.0747559,-1.4167236,-2.8738039,73.0
990,2.5649529,0.28788757,-0.5622101,-1.0747559,-1.4167236,-2.8738039,73.0
991,2.5649529,0.28788757,-0.5622101,-0.63614506,-1.5346069,-2.9768188,73.0
992,2.8972387,0.5521622,-0.30696106,-0.63614506,-1.5346069,-2.9768188,73.0
993,2.8972387,0.5521622,-0.30696106,-0.30267334,-1.7650635,-3.0267334,73.0
994,2.9025192,0.74378204,0.022655487,-0.30267334,-1.7650635,-3.0267334,73.0
995,2.9025192,0.74378204,0.022655487,0.0053100586,-1.9615357,-2.969385,73.0
996,2.5255919,0.91459656,0.08587265,0.0053100586,-1.9615357,-2.969385,73.0
997,2.5255919,0.91459656,0.08587265,0.095581055,-1.9700317,-2.8217652,73.0
998,1.7999048,1.321106,-0.2704506,0.095581055,-1.9700317,-2.8217652,73.0
999,1.7999048,1.321106,-0.2704506,-0.14974366,-1.6864747,-2.4946656,73.0
1000,0.9535837,1.8498077,-0.86294174,-0.14974366,-1.6864747,-2.4946656,73.0
1001,0.9535837,1.8498077,-0.86294174,-0.5713623,-1.3296387,-1.9498535,73.0
1002,0.34040642,2.1302261,-1.3174667,-0.5713623,-1.3296387,-1.9498535,73.0
1003,0.34040642,2.1302261,-1.3174667,-0.9303223,-0.9324463,-1.3179566,73.0
1004,0.080869675,1.9288635,-1.4754333,-0.9303223,-0.9324463,-1.3179566,73.0
1005,0.080869675,1.9288635,-1.4754333,-1.0375855,-0.46516114,-0.57242435,73.0
1006,0.046628952,1.3306274,-1.549778,-1.0375855,-0.46516114,-0.57242435,73.0
1007,0.046628952,1.3306274,-1.549778,-0.7986328,-0.04991455,0.17841797,73.0
1008,0.40715218,0.64243317,-1.7584763,-0.7986328,-0.04991455,0.17841797,73.0
1009,0.40715218,0.64243317,-1.7584763,-0.30373535,0.26975098,0.90058595,73.0
1010,1.1615982,0.14535522,-1.9006271,-0.30373535,0.26975098,0.90058595,73.0
1011,1.1615982,0.14535522,-1.9006271,0.16461182,1.0004151,1.4634522,73.0
1012,1.3975401,-0.16725159,-1.5899582,0.16461182,1.0004151,1.4634522,73.0
1013,1.3975401,-0.16725159,-1.5899582,0.541626,1.8585205,1.9541016,73.0
1014,0.3538971,-0.47585297,-0.8373604,0.541626,1.8585205,1.9541016,73.0
1015,0.3538971,-0.47585297,-0.8373604,1.0248413,2.4171388,2.2992554,73.0
1016,-1.0911131,-0.8070526,-0.24222565,1.0248413,2.4171388,2.2992554,73.0
1017,-1.0911131,-0.8070526,-0.24222565,1.5760254,2.5806885,2.5881226,73.0
1018,-1.432497,-1.0152359,-0.07488251,1.5760254,2.5806885,2.5881226,73.0
1019,-1.432497,-1.0152359,-0.07488251,2.1378295,2.9417725,2.7665405,73.0
1020,-0.82551384,-0.94538116,0.19429398,2.1378295,2.9417725,2.7665405,73.0
1021,-0.82551384,-0.94538116,0.19429398,2.6614015,3.1987793,2.8100832,73.0
1022,-0.34793568,-0.72691345,0.9530182,2.6614015,3.1987793,2.8100832,73.0
1023,-0.34793568,-0.72691345,0.9530182,3.1042602,3.1403687,2.8493774,73.0
1024,-0.30635166,-0.5978775,1.969204,3.1042602,3.1403687,2.8493774,73.0
1025,-0.30635166,-0.5978775,1.969204,3.3793213,2.902478,2.805835,73.0
1026,-0.6204109,-0.54104614,2.9025345,3.3793213,2.902478,2.805835,73.0
1027,-0.6204109,-0.54104614,2.9025345,3.3336549,2.4574952,2.7389283,73.0
1028,-1.3339024,-0.498024,3.4236374,3.3336549,2.4574952,2.7389283,73.0
1029,-1.3339024,-0.498024,3.4236374,2.9258423,1.9498535,2.6730835,73.0
1030,-2.150362,-0.5312424,3.3230743,2.9258423,1.9498535,2.6730835,73.0
1031,-2.150362,-0.5312424,3.3230743,2.2928834,1.5069946,2.7229981,73.0
1032,-2.5378914,-0.55921173,2.7016487,2.2928834,1.5069946,2.7229981,73.0
1033,-2.5378914,-0.55921173,2.7016487,1.5303589,1.1809571,2.8281372,73.0
1034,-2.4222078,-0.6006012,1.9029808,1.5303589,1.1809571,2.8281372,73.0
1035,-2.4222078,-0.6006012,1.9029808,1.0195312,1.0014771,2.8610597,73.0
1036,-1.9870949,-0.784317,1.1738281,1.0195312,1.0014771,2.8610597,73.0
1037,-1.9870949,-0.784317,1.1738281,0.7720825,0.9685547,2.8823,73.0
1038,-1.4566193,-0.9919205,0.6034546,0.7720825,0.9685547,2.8823,73.0
1039,-1.4566193,-0.9919205,0.6034546,0.69136965,1.0662597,2.8398194,73.0
1040,-1.2970333,-0.98139954,0.34809875,0.69136965,1.0662597,2.8398194,73.0
1041,-1.2970333,-0.98139954,0.34809875,0.7604004,1.2011353,2.623169,73.0
1042,-1.6413126,-0.6173248,0.41801834,0.7604004,1.2011353,2.623169,73.0
1043,-1.6413126,-0.6173248,0.41801834,0.8772217,1.2786621,2.34386,73.0
1044,-2.1658087,0.027931213,0.5600357,0.8772217,1.2786621,2.34386,73.0
1045,-2.1658087,0.027931213,0.5600357,0.8241211,1.2988404,1.9785279,73.0
1046,-2.588482,0.69457245,0.6634979,0.8241211,1.2988404,1.9785279,73.0
1047,-2.588482,0.69457245,0.6634979,0.5543701,1.2595459,1.6376221,73.0
1048,-2.5755463,1.092804,0.7634773,0.5543701,1.2595459,1.6376221,73.0
1049,-2.5755463,1.092804,0.7634773,0.1539917,1.0747559,1.2468017,73.0
1050,-2.0940552,1.03656,0.79180145,0.1539917,1.0747559,1.2468017,73.0
1051,-2.0940552,1.03656,0.79180145,-0.33134767,0.8464233,0.7423462,73.0
1052,-1.6511354,0.7973404,0.62649536,-0.33134767,0.8464233,0.7423462,73.0
1053,-1.6511354,0.7973404,0.62649536,-0.84536135,0.5766724,0.2357666,73.0
1054,-1.124546,0.7309036,0.24001312,-0.84536135,0.5766724,0.2357666,73.0
1055,-1.124546,0.7309036,0.24001312,-1.4443359,0.24532472,-0.27399904,73.0
1056,-0.042153835,0.5362015,-0.34886932,-1.4443359,0.24532472,-0.27399904,73.0
1057,-0.042153835,0.5362015,-0.34886932,-1.4443359,0.24532472,-0.27399904,74.0
1058,-0.042153835,0.5362015,-0.34886932,-2.1038454,-0.14337158,-0.8666016,74.0
1059,0.6698537,-0.21971893,-0.6677551,-2.1038454,-0.14337158,-0.8666016,74.0
1060,0.6698537,-0.21971893,-0.6677551,-2.4351928,-0.48109132,-1.44646,74.0
1061,0.29192543,-1.2005386,-0.35004807,-2.4351928,-0.48109132,-1.44646,74.0
1062,0.29192543,-1.2005386,-0.35004807,-2.3119996,-0.9366943,-1.9594116,74.0
1063,-0.2696209,-1.6586227,0.26000977,-2.3119996,-0.9366943,-1.9594116,74.0
1064,-0.2696209,-1.6586227,0.26000977,-1.8723267,-1.4135376,-2.2334106,74.0
1065,0.12293863,-1.4894485,0.6120148,-1.8723267,-1.4135376,-2.2334106,74.0
1066,0.12293863,-1.4894485,0.6120148,-1.175647,-1.8670167,-2.3874023,74.0
1067,1.3451042,-1.1440353,0.4841652,-1.175647,-1.8670167,-2.3874023,74.0
1068,1.3451042,-1.1440353,0.4841652,-0.63720703,-2.3013794,-2.4670532,74.0
1069,2.4122162,-0.8843689,0.09170151,-0.63720703,-2.3013794,-2.4670532,74.0
1070,2.4122162,-0.8843689,0.09170151,-0.22514649,-2.6667116,-2.6911378,74.0
1071,2.6670895,-0.67154694,-0.42943573,-0.22514649,-2.6667116,-2.6911378,74.0
1072,2.6670895,-0.67154694,-0.42943573,0.09664307,-2.7654786,-2.8217652,74.0
1073,2.0928755,-0.30575562,-1.0497742,0.09664307,-2.7654786,-2.8217652,74.0
1074,2.0928755,-0.30575562,-1.0497742,0.11469727,-2.5944946,-2.8663697,74.0
1075,1.1869717,0.2346344,-1.598465,0.11469727,-2.5944946,-2.8663697,74.0
1076,1.1869717,0.2346344,-1.598465,-0.24744873,-2.2843874,-2.8642457,74.0
1077,0.4649582,0.73197937,-1.8192978,-0.24744873,-2.2843874,-2.8642457,74.0
1078,0.4649582,0.73197937,-1.8192978,-0.82730716,-1.983838,-2.8238893,74.0
1079,0.267169,0.9908829,-1.6881905,-0.82730716,-1.983838,-2.8238893,74.0
1080,0.267169,0.9908829,-1.6881905,-1.448584,-1.7565674,-2.7654786,74.0
1081,0.64872074,0.9432831,-1.4179688,-1.448584,-1.7565674,-2.7654786,74.0
1082,0.64872074,0.9432831,-1.4179688,-1.8956909,-1.5303589,-2.7835329,74.0
1083,1.3059759,0.6490402,-1.0344353,-1.8956909,-1.5303589,-2.7835329,74.0
1084,1.3059759,0.6490402,-1.0344353,-1.8829468,-1.4092896,-2.7261841,74.0
1085,2.0027761,0.3659973,-0.5866699,-1.8829468,-1.4092896,-2.7261841,74.0
1086,2.0027761,0.3659973,-0.5866699,-1.4984986,-1.3275146,-2.703882,74.0
1087,2.6481066,0.33276367,-0.2835083,-1.4984986,-1.3275146,-2.703882,74.0
1088,2.6481066,0.33276367,-0.2835083,-1.3062744,-1.3614991,-2.7006958,74.0
1089,3.12537,0.54720306,-0.30454254,-1.3062744,-1.3614991,-2.7006958,74.0
1090,3.12537,0.54720306,-0.30454254,-1.357251,-1.3530029,-2.5902467,74.0
1091,3.1818514,0.8432846,-0.59085083,-1.357251,-1.3530029,-2.5902467,74.0
1092,3.1818514,0.8432846,-0.59085083,-1.628064,-1.2149414,-2.3799684,74.0
1093,2.4985456,1.1317825,-0.85936356,-1.628064,-1.2149414,-2.3799684,74.0
1094,2.4985456,1.1317825,-0.85936356,-2.0443726,-0.91864014,-2.0125122,74.0
1095,1.2573452,1.2586594,-0.8895912,-2.0443726,-0.91864014,-2.0125122,74.0
1096,1.2573452,1.2586594,-0.8895912,-2.3088136,-0.7434082,-1.5048707,74.0
1097,0.22734833,1.0326691,-0.7596359,-2.3088136,-0.7434082,-1.5048707,74.0
1098,0.22734833,1.0326691,-0.7596359,-2.0082643,-0.6000366,-0.98448485,74.0
1099,-0.14080238,0.5832672,-0.7524719,-2.0082643,-0.6000366,-0.98448485,74.0
1100,-0.14080238,0.5832672,-0.7524719,-1.3073364,-0.36108398,-0.41949463,74.0
1101,-0.034711838,0.21378326,-0.97255707,-1.3073364,-0.36108398,-0.41949463,74.0
1102,-0.034711838,0.21378326,-0.97255707,-0.5968506,-0.13487549,0.1178833,74.0
1103,0.42401314,0.008804321,-1.3480644,-0.5968506,-0.13487549,0.1178833,74.0
1104,0.42401314,0.008804321,-1.3480644,-0.032922365,0.059472658,0.6446411,74.0
1105,1.130763,-0.054985046,-1.613987,-0.032922365,0.059472658,0.6446411,74.0
1106,1.130763,-0.054985046,-1.613987,0.39188233,0.6117188,1.0875,74.0
1107,1.4477015,-0.07496643,-1.4754791,0.39188233,0.6117188,1.0875,74.0
1108,1.4477015,-0.07496643,-1.4754791,0.81881106,1.1522827,1.5218629,74.0
1109,0.9118233,-0.15223694,-1.0020142,0.81881106,1.1522827,1.5218629,74.0
1110,0.9118233,-0.15223694,-1.0020142,1.3222046,1.6588624,1.8861328,74.0
1111,-0.16383934,-0.23592377,-0.5395012,1.3222046,1.6588624,1.8861328,74.0
1112,-0.16383934,-0.23592377,-0.5395012,1.8542725,2.0029542,2.18562,74.0
1113,-1.0233936,-0.3186798,-0.2312088,1.8542725,2.0029542,2.18562,74.0
1114,-1.0233936,-0.3186798,-0.2312088,2.3672242,2.269519,2.445813,74.0
1115,-1.2547255,-0.40229797,0.10031128,2.3672242,2.269519,2.445813,74.0
1116,-1.2547255,-0.40229797,0.10031128,2.8663697,2.461743,2.608301,74.0
1117,-1.0839806,-0.43669128,0.587059,2.8663697,2.461743,2.608301,74.0
1118,-1.0839806,-0.43669128,0.587059,3.2752442,2.5541382,2.710254,74.0
1119,-0.901804,-0.42716217,1.2260056,3.2752442,2.5541382,2.710254,74.0
1120,-0.901804,-0.42716217,1.2260056,3.541809,2.538208,2.7824707,74.0
1121,-0.96964836,-0.32089233,1.9414253,3.541809,2.538208,2.7824707,74.0
1122,-0.96964836,-0.32089233,1.9414253,3.4918945,2.3735962,2.8578737,74.0
1123,-1.3554668,-0.13842773,2.5876617,3.4918945,2.3735962,2.8578737,74.0
1124,-1.3554668,-0.13842773,2.5876617,3.1488647,2.0677369,2.9247804,74.0
1125,-1.9677477,-0.046447754,2.9722404,3.1488647,2.0677369,2.9247804,74.0
1126,-1.9677477,-0.046447754,2.9722404,2.5573242,1.7236451,3.0320435,74.0
1127,-2.3893719,-0.14793396,2.8889961,2.5573242,1.7236451,3.0320435,74.0
1128,-2.3893719,-0.14793396,2.8889961,1.8287842,1.3986695,3.1520507,74.0
1129,-2.3502913,-0.41029358,2.3519783,1.8287842,1.3986695,3.1520507,74.0
1130,-2.3502913,-0.41029358,2.3519783,1.2372437,1.1883911,3.2030275,74.0
1131,-2.0172443,-0.7368927,1.6234627,1.2372437,1.1883911,3.2030275,74.0
1132,-2.0172443,-0.7368927,1.6234627,0.86553955,1.1119263,3.1764772,74.0
1133,-1.5742569,-0.98392487,0.9935684,0.86553955,1.1119263,3.1764772,74.0
1134,-1.5742569,-0.98392487,0.9935684,0.6446411,1.1087402,3.1318727,74.0
1135,-1.2204647,-1.0400467,0.65244675,0.6446411,1.1087402,3.1318727,74.0
1136,-1.2204647,-1.0400467,0.65244675,0.5235718,1.1490967,2.9162843,74.0
1137,-1.2206717,-0.86447144,0.5999718,0.5235718,1.1490967,2.9162843,74.0
1138,-1.2206717,-0.86447144,0.5999718,0.5235718,1.2053833,2.6327271,74.0
1139,-1.6771107,-0.38765717,0.665596,0.5235718,1.2053833,2.6327271,74.0
1140,-1.6771107,-0.38765717,0.665596,0.55543214,1.2128174,2.2355347,74.0
1141,-2.3166027,0.3287201,0.6598549,0.55543214,1.2128174,2.2355347,74.0
1142,-2.3166027,0.3287201,0.6598549,0.46622315,1.2223755,1.7884277,74.0
1143,-2.6265001,0.9915848,0.52334213,0.46622315,1.2223755,1.7884277,74.0
1144,-2.6265001,0.9915848,0.52334213,0.12000733,1.1374146,1.2499878,74.0
1145,-2.5257854,1.2802963,0.3440895,0.12000733,1.1374146,1.2499878,74.0
1146,-2.5257854,1.2802963,0.3440895,-0.3971924,1.0651978,0.64782715,74.0
1147,-2.4304914,1.1474762,0.21146393,-0.3971924,1.0651978,0.64782715,74.0
1148,-2.4304914,1.1474762,0.21146393,-0.9505005,0.8846558,0.10513916,74.0
1149,-2.2679405,0.8111954,0.17987823,-0.9505005,0.8846558,0.10513916,74.0
1150,-2.2679405,0.8111954,0.17987823,-1.5303589,0.6488892,-0.39082032,74.0
1151,-1.1915989,0.3279724,0.078228,-1.5303589,0.6488892,-0.39082032,74.0
1152,-1.1915989,0.3279724,0.078228,-2.0358765,0.16885987,-0.9897949,74.0
1153,0.3191204,-0.4338379,-0.27950668,-2.0358765,0.16885987,-0.9897949,74.0
1154,0.3191204,-0.4338379,-0.27950668,-2.4776733,-0.16673584,-1.6153198,74.0
1155,0.8060045,-1.3583832,-0.49671555,-2.4776733,-0.16673584,-1.6153198,74.0
1156,0.8060045,-1.3583832,-0.49671555,-2.538208,-0.55755615,-2.1112792,74.0
1157,0.5890784,-1.9817657,-0.3307457,-2.538208,-0.55755615,-2.1112792,74.0
1158,0.5890784,-1.9817657,-0.3307457,-2.2365968,-0.98873293,-2.5020998,74.0
1159,0.8454695,-2.026085,-0.047943115,-2.2365968,-0.98873293,-2.5020998,74.0
1160,0.8454695,-2.026085,-0.047943115,-1.6333741,-1.4942505,-2.7368042,74.0
1161,1.7702961,-1.6328049,0.095897675,-1.6333741,-1.4942505,-2.7368042,74.0
1162,1.7702961,-1.6328049,0.095897675,-0.9526245,-1.9774659,-2.879114,74.0
1163,2.6572285,-1.1565018,0.11265564,-0.9526245,-1.9774659,-2.879114,74.0
1164,2.6572285,-1.1565018,0.11265564,-0.4439209,-2.4776733,-3.090454,74.0
1165,2.8980122,-0.832428,0.03951645,-0.4439209,-2.4776733,-3.090454,74.0
1166,2.8980122,-0.832428,0.03951645,0.09239502,-2.8589356,-3.3145387,74.0
1167,2.4272108,-0.5095825,-0.33451462,0.09239502,-2.8589356,-3.3145387,74.0
1168,2.4272108,-0.5095825,-0.33451462,0.47790527,-2.9003541,-3.3697631,74.0
1169,1.545394,0.070373535,-1.0409508,0.47790527,-2.9003541,-3.3697631,74.0
1170,1.545394,0.070373535,-1.0409508,0.4067505,-2.6635253,-3.3262208,74.0
1171,0.7632561,0.82411194,-1.7510338,0.4067505,-2.6635253,-3.3262208,74.0
1172,0.7632561,0.82411194,-1.7510338,-0.06478272,-2.3077514,-3.2773683,74.0
1173,0.40090084,1.4340363,-2.1511803,-0.06478272,-2.3077514,-3.2773683,74.0
1174,0.40090084,1.4340363,-2.1511803,-0.7678345,-1.8871949,-3.1520507,74.0
1175,0.5572443,1.6841888,-2.2110558,-0.7678345,-1.8871949,-3.1520507,74.0
1176,0.5572443,1.6841888,-2.2110558,-1.4220337,-1.4772583,-2.989563,74.0
1177,1.1222477,1.4925995,-1.9378624,-1.4220337,-1.4772583,-2.989563,74.0
1178,1.1222477,1.4925995,-1.9378624,-1.6939087,-1.177771,-2.8472536,74.0
1179,1.8875694,1.0695877,-1.3588333,-1.6939087,-1.177771,-2.8472536,74.0
1180,1.8875694,1.0695877,-1.3588333,-1.5855836,-0.97280276,-2.623169,74.0
1181,2.5431852,0.7633133,-0.6081505,-1.5855836,-0.97280276,-2.623169,74.0
1182,2.5431852,0.7633133,-0.6081505,-1.3891114,-0.8963379,-2.4925416,74.0
1183,2.7171288,0.71100616,0.029712677,-1.3891114,-0.8963379,-2.4925416,74.0
1184,2.7171288,0.71100616,0.029712677,-1.3232666,-0.9717407,-2.267395,74.0
1185,2.3758755,0.8726654,0.24185944,-1.3232666,-0.9717407,-2.267395,74.0
1186,2.3758755,0.8726654,0.24185944,-1.3232666,-0.9717407,-2.267395,74.0
1187,2.3758755,0.8726654,0.24185944,-1.4135376,-1.0004151,-1.9774659,74.0
1188,1.7160692,1.0824585,0.046707153,-1.4135376,-1.0004151,-1.9774659,74.0
1189,1.7160692,1.0824585,0.046707153,-1.5877075,-0.9759888,-1.5834595,74.0
1190,0.91562843,1.1933365,-0.2696762,-1.5877075,-0.9759888,-1.5834595,74.0
1191,0.91562843,1.1933365,-0.2696762,-1.7427613,-0.86766356,-1.1947632,74.0
1192,0.34488106,1.0825119,-0.54473114,-1.7427613,-0.86766356,-1.1947632,74.0
1193,0.34488106,1.0825119,-0.54473114,-1.6365601,-0.817749,-0.79969484,74.0
1194,0.3259163,0.755661,-0.79673386,-1.6365601,-0.817749,-0.79969484,74.0
1195,0.3259163,0.755661,-0.79673386,-1.2924683,-0.57561034,-0.41418457,74.0
1196,0.5877476,0.3334427,-1.0576744,-1.2924683,-0.57561034,-0.41418457,74.0
1197,0.5877476,0.3334427,-1.0576744,-0.8814697,-0.25806886,-0.046728518,74.0
1198,0.7667198,-0.022598267,-1.2934875,-0.8814697,-0.25806886,-0.046728518,74.0
1199,0.7667198,-0.022598267,-1.2934875,-0.46622315,0.06584473,0.32391357,74.0
1200,0.8292208,-0.15608978,-1.319725,-0.46622315,0.06584473,0.32391357,74.0
1201,0.8292208,-0.15608978,-1.319725,-0.15080567,0.47471926,0.73597413,74.0
1202,0.38321304,-0.103889465,-0.8557205,-0.15080567,0.47471926,0.73597413,74.0
1203,0.38321304,-0.103889465,-0.8557205,0.24957275,0.83049315,1.1034302,74.0
1204,-0.69874,-0.1164093,-0.23230743,0.24957275,0.83049315,1.1034302,74.0
1205,-0.69874,-0.1164093,-0.23230743,0.8517334,1.0216553,1.4666382,74.0
1206,-1.4116039,-0.30661774,-0.07995224,0.8517334,1.0216553,1.4666382,74.0
1207,-1.4116039,-0.30661774,-0.07995224,1.5781494,1.176709,1.7576294,74.0
1208,-0.88647366,-0.54094696,-0.45812607,1.5781494,1.176709,1.7576294,74.0
1209,-0.88647366,-0.54094696,-0.45812607,2.3226197,1.4114136,1.9764038,74.0
1210,0.6910534,-0.674942,-0.82218933,2.3226197,1.4114136,1.9764038,74.0
1211,0.6910534,-0.674942,-0.82218933,3.0161133,1.7873658,2.182434,74.0
1212,2.162096,-0.54280853,-0.5489998,3.0161133,1.7873658,2.182434,74.0
1213,2.162096,-0.54280853,-0.5489998,3.4653442,2.151636,2.3396118,74.0
1214,2.13583,-0.2320404,0.46900177,3.4653442,2.151636,2.3396118,74.0
1215,2.13583,-0.2320404,0.46900177,3.7042968,2.2355347,2.4543092,74.0
1216,0.57997704,-0.03591156,1.6659622,3.7042968,2.2355347,2.4543092,74.0
1217,0.57997704,-0.03591156,1.6659622,3.7393434,2.1463258,2.619983,74.0
1218,-1.3248491,0.018287659,2.3487968,3.7393434,2.1463258,2.619983,74.0
1219,-1.3248491,0.018287659,2.3487968,3.5014527,2.081543,2.7867188,74.0
1220,-2.7189732,0.09249878,2.2928467,3.5014527,2.081543,2.7867188,74.0
1221,-2.7189732,0.09249878,2.2928467,2.8578737,2.0422485,3.0086792,74.0
1222,-3.414217,0.16566467,2.0502434,2.8578737,2.0422485,3.0086792,74.0
1223,-3.414217,0.16566467,2.0502434,2.0369384,1.8255981,3.2019653,74.0
1224,-3.4396992,-0.024559021,2.0839577,2.0369384,1.8255981,3.2019653,74.0
1225,-3.4396992,-0.024559021,2.0839577,1.4156617,1.6100098,3.3134766,74.0
1226,-2.9541273,-0.55809784,2.0954628,1.4156617,1.6100098,3.3134766,74.0
1227,-2.9541273,-0.55809784,2.0954628,1.0906861,1.4942505,3.3315308,74.0
1228,-2.3602629,-1.0969162,1.8077545,1.0906861,1.4942505,3.3315308,74.0
1229,-2.3602629,-1.0969162,1.8077545,0.8793457,1.4305298,3.330469,74.0
1230,-1.8473291,-1.3828278,1.3700676,0.8793457,1.4305298,3.330469,74.0
1231,-1.8473291,-1.3828278,1.3700676,0.71367186,1.3922974,3.2317016,74.0
1232,-1.3976994,-1.454956,1.0397797,0.71367186,1.3922974,3.2317016,74.0
1233,-1.3976994,-1.454956,1.0397797,0.6244629,1.3944215,3.0288575,74.0
1234,-1.203413,-1.352356,0.92201996,0.6244629,1.3944215,3.0288575,74.0
1235,-1.203413,-1.352356,0.92201996,0.5968506,1.4007934,2.7431762,74.0
1236,-1.4927835,-1.0373383,0.91698456,0.5968506,1.4007934,2.7431762,74.0
1237,-1.4927835,-1.0373383,0.91698456,0.5628662,1.3806152,2.4553711,74.0
1238,-1.9606333,-0.4709854,0.8407898,0.5628662,1.3806152,2.4553711,74.0
1239,-1.9606333,-0.4709854,0.8407898,0.4609131,1.3126465,2.1431396,74.0
1240,-2.1690683,0.25505066,0.6101303,0.4609131,1.3126465,2.1431396,74.0
1241,-2.1690683,0.25505066,0.6101303,0.2803711,1.2266235,1.7480713,74.0
1242,-2.1794567,0.8863144,0.31189346,0.2803711,1.2266235,1.7480713,74.0
1243,-2.1794567,0.8863144,0.31189346,-0.11682129,1.0970582,1.3147706,74.0
1244,-2.2088609,1.2904129,-0.021362305,-0.11682129,1.0970582,1.3147706,74.0
1245,-2.2088609,1.2904129,-0.021362305,-0.74871826,0.9611206,0.7614624,74.0
1246,-2.0077991,1.225029,-0.36478043,-0.74871826,0.9611206,0.7614624,74.0
1247,-2.0077991,1.225029,-0.36478043,-1.6386842,0.6690674,0.21240234,74.0
1248,-1.2756362,0.27591705,-0.64587784,-1.6386842,0.6690674,0.21240234,74.0
1249,-1.2756362,0.27591705,-0.64587784,-2.4606812,0.36745605,-0.4980835,74.0
1250,-0.67761326,-1.3476868,-0.5982208,-2.4606812,0.36745605,-0.4980835,74.0
1251,-0.67761326,-1.3476868,-0.5982208,-2.8270752,0.0010620117,-1.5239868,74.0
1252,-0.8837042,-2.4371796,-0.11020279,-2.8270752,0.0010620117,-1.5239868,74.0
1253,-0.8837042,-2.4371796,-0.11020279,-2.6444092,-0.46516114,-2.2100465,74.0
1254,-1.0986137,-2.2567139,0.38643646,-2.6444092,-0.46516114,-2.2100465,74.0
1255,-1.0986137,-2.2567139,0.38643646,-2.2514648,-0.90058595,-2.5636964,74.0
1256,-0.20192528,-1.4391022,0.49367142,-2.2514648,-0.90058595,-2.5636964,74.0
1257,-0.20192528,-1.4391022,0.49367142,-1.5781494,-1.3275146,-2.803711,74.0
1258,1.4522905,-0.7738266,0.13303757,-1.5781494,-1.3275146,-2.803711,74.0
1259,1.4522905,-0.7738266,0.13303757,-1.0152832,-1.7140869,-2.9906251,74.0
1260,2.694975,-0.42212677,-0.4369812,-1.0152832,-1.7140869,-2.9906251,74.0
1261,2.694975,-0.42212677,-0.4369812,-0.6244629,-2.0305665,-3.2794921,74.0
1262,2.9581404,-0.2853546,-0.95173264,-0.6244629,-2.0305665,-3.2794921,74.0
1263,2.9581404,-0.2853546,-0.95173264,-0.29417726,-2.1346436,-3.4069335,74.0
1264,2.3931484,-0.17465973,-1.279953,-0.29417726,-2.1346436,-3.4069335,74.0
1265,2.3931484,-0.17465973,-1.279953,-0.13912354,-2.081543,-3.4632204,74.0
1266,1.5306444,0.09465027,-1.3341675,-0.13912354,-2.081543,-3.4632204,74.0
1267,1.5306444,0.09465027,-1.3341675,-0.1709839,-1.9519776,-3.5003908,74.0
1268,0.9310465,0.5193405,-1.150589,-0.1709839,-1.9519776,-3.5003908,74.0
1269,0.9310465,0.5193405,-1.150589,-0.36533204,-1.8638306,-3.511011,74.0
1270,0.946229,0.9063492,-0.9727783,-0.36533204,-1.8638306,-3.511011,74.0
1271,0.946229,0.9063492,-0.9727783,-0.6956177,-1.7491333,-3.4833984,74.0
1272,1.5930424,1.124321,-1.0515289,-0.6956177,-1.7491333,-3.4833984,74.0
1273,1.5930424,1.124321,-1.0515289,-1.089624,-1.5600952,-3.4823365,74.0
1274,2.467207,1.1426468,-1.2571526,-1.089624,-1.5600952,-3.4823365,74.0
1275,2.467207,1.1426468,-1.2571526,-1.4018555,-1.4124756,-3.4865844,74.0
1276,3.2024527,1.0281677,-1.2581024,-1.4018555,-1.4124756,-3.4865844,74.0
1277,3.2024527,1.0281677,-1.2581024,-1.450708,-1.3168945,-3.4186158,74.0
1278,3.6316528,0.9698944,-0.9067383,-1.450708,-1.3168945,-3.4186158,74.0
1279,3.6316528,0.9698944,-0.9067383,-1.359375,-1.3126465,-3.274182,74.0
1280,3.5085697,1.0898056,-0.3928604,-1.359375,-1.3126465,-3.274182,74.0
1281,3.5085697,1.0898056,-0.3928604,-1.2860962,-1.3668091,-3.0426636,74.0
1282,2.8270092,1.3308334,-0.12253952,-1.2860962,-1.3668091,-3.0426636,74.0
1283,2.8270092,1.3308334,-0.12253952,-1.3880494,-1.4061035,-2.6709595,74.0
1284,2.1213608,1.5157013,-0.2658882,-1.3880494,-1.4061035,-2.6709595,74.0
1285,2.1213608,1.5157013,-0.2658882,-1.5622193,-1.351941,-2.444751,74.0
1286,0.5937195,1.7434845,-0.44325256,-1.5622193,-1.351941,-2.444751,74.0
1287,0.5937195,1.7434845,-0.44325256,-2.241907,-1.1480347,-1.6684204,74.0
1288,0.13081074,1.6806412,-0.5732269,-2.241907,-1.1480347,-1.6684204,74.0
1289,0.13081074,1.6806412,-0.5732269,-2.3141236,-1.1554688,-1.3891114,74.0
1290,-0.02772522,1.2058868,-0.6727295,-2.3141236,-1.1554688,-1.3891114,74.0
1291,-0.02772522,1.2058868,-0.6727295,-1.8351563,-0.8612915,-0.62127686,74.0
1292,0.12471962,0.83935547,-0.78232574,-1.8351563,-0.8612915,-0.62127686,74.0
1293,0.12471962,0.83935547,-0.78232574,-1.5664673,-0.6903076,-0.36851808,74.0
1294,0.5794029,-0.13352203,-1.3875809,-1.5664673,-0.6903076,-0.36851808,74.0
1295,0.5794029,-0.13352203,-1.3875809,-0.6637573,-0.2538208,0.3525879,74.0
1296,0.59311295,-0.4026184,-1.4138222,-0.6637573,-0.2538208,0.3525879,74.0
1297,0.59311295,-0.4026184,-1.4138222,-0.38338622,0.058410645,0.57242435,74.0
1298,-0.20423317,-0.487854,-1.3659592,-0.38338622,0.058410645,0.57242435,74.0
1299,-0.20423317,-0.487854,-1.3659592,0.36002198,0.90058595,1.1809571,74.0
1300,-0.8443928,-0.39442444,-0.83075714,0.36002198,0.90058595,1.1809571,74.0
1301,-0.8443928,-0.39442444,-0.83075714,0.6223389,0.98448485,1.4029175,74.0
1302,-1.6877213,0.094566345,-0.6095276,0.6223389,0.98448485,1.4029175,74.0
1303,-1.6877213,0.094566345,-0.6095276,1.6567383,1.1108643,1.9902099,74.0
1304,-0.80614567,-0.14683533,-0.55371094,1.6567383,1.1108643,1.9902099,74.0
1305,-0.80614567,-0.14683533,-0.55371094,2.0454347,1.3105224,2.1282716,74.0
1306,2.7696953,-0.20629883,-1.0968742,2.0454347,1.3105224,2.1282716,74.0
1307,2.7696953,-0.20629883,-1.0968742,2.991687,2.1909301,2.5552003,74.0
1308,2.9890842,-0.4173813,-0.4222641,2.991687,2.1909301,2.5552003,74.0
1309,2.9890842,-0.4173813,-0.4222641,3.2030275,2.3916504,2.6475952,74.0
1310,2.1464062,-0.2981491,1.0865402,3.2030275,2.3916504,2.6475952,74.0
1311,2.1464062,-0.2981491,1.0865402,3.708545,2.4797974,2.8164551,74.0
1312,0.717638,-0.45435333,1.8399239,3.708545,2.4797974,2.8164551,74.0
1313,0.717638,-0.45435333,1.8399239,3.8083742,2.4245727,2.8727417,74.0
1314,-1.5388908,-0.34966278,2.5325851,3.8083742,2.4245727,2.8727417,74.0
1315,-1.5388908,-0.34966278,2.5325851,3.7489014,2.3098755,3.0012453,74.0
1316,-3.153122,-0.08837128,2.4946365,3.7489014,2.3098755,3.0012453,74.0
1317,-3.153122,-0.08837128,2.4946365,3.268872,2.2164185,3.1934693,74.0
1318,-3.9389162,0.17068481,2.2574158,3.268872,2.2164185,3.1934693,74.0
1319,-3.9389162,0.17068481,2.2574158,2.540332,1.9562256,3.432422,74.0
1320,-3.9327126,0.1622467,2.3034668,2.540332,1.9562256,3.432422,74.0
1321,-3.9327126,0.1622467,2.3034668,1.8648926,1.6832886,3.5768554,74.0
1322,-3.0912018,-0.39876556,2.2690086,1.8648926,1.6832886,3.5768554,74.0
1323,-3.0912018,-0.39876556,2.2690086,1.1225464,1.5250489,3.6681886,74.0
1324,-2.685522,-0.77500916,1.937645,1.1225464,1.5250489,3.6681886,74.0
1325,-2.685522,-0.77500916,1.937645,0.90802,1.4793824,3.6671264,74.0
1326,-2.1008348,-1.1834564,1.3967094,0.90802,1.4793824,3.6671264,74.0
1327,-2.1008348,-1.1834564,1.3967094,0.6053467,1.442212,3.519507,74.0
1328,-1.6409216,-1.3837128,1.0669518,0.6053467,1.442212,3.519507,74.0
1329,-1.6409216,-1.3837128,1.0669518,0.4609131,1.4379638,3.2731202,74.0
1330,-1.3336115,-1.3965683,1.0189438,0.4609131,1.4379638,3.2731202,74.0
1331,-1.3336115,-1.3965683,1.0189438,0.45560303,1.4305298,2.9407105,74.0
1332,-1.2980785,-1.0623016,0.9699173,0.45560303,1.4305298,2.9407105,74.0
1333,-1.2980785,-1.0623016,0.9699173,0.45029297,1.44646,2.5254638,74.0
1334,-1.650279,-0.34370422,0.7068405,0.45029297,1.44646,2.5254638,74.0
1335,-1.650279,-0.34370422,0.7068405,0.31966552,1.4655762,2.085791,74.0
1336,-2.179757,0.43247223,0.23891068,0.31966552,1.4655762,2.085791,74.0
1337,-2.179757,0.43247223,0.23891068,-0.0021240234,1.4846925,1.5292969,74.0
1338,-2.7165966,0.86559296,-0.2127533,-0.0021240234,1.4846925,1.5292969,74.0
1339,-2.7165966,0.86559296,-0.2127533,-0.5235718,1.4666382,1.0322754,74.0
1340,-3.0081406,0.94408417,-0.60479736,-0.5235718,1.4666382,1.0322754,74.0
1341,-3.0081406,0.94408417,-0.60479736,-1.263794,1.3243287,0.42905274,74.0
1342,-2.7118835,0.72340393,-0.7037239,-1.263794,1.3243287,0.42905274,74.0
1343,-2.7118835,0.72340393,-0.7037239,-2.0549927,1.0598878,-0.16779785,74.0
1344,-1.46488,-0.23368835,-0.4887848,-2.0549927,1.0598878,-0.16779785,74.0
1345,-1.46488,-0.23368835,-0.4887848,-2.6295412,0.5777344,-0.9303223,74.0
1346,-0.31821728,-1.7502899,-0.11774826,-2.6295412,0.5777344,-0.9303223,74.0
1347,-0.31821728,-1.7502899,-0.11774826,-2.7506104,0.10513916,-1.9434814,74.0
1348,-0.25230312,-2.5185776,0.11289215,-2.7506104,0.10513916,-1.9434814,74.0
1349,-0.25230312,-2.5185776,0.11289215,-2.5105958,-0.3706421,-2.4702394,74.0
1350,-0.5504508,-1.9870682,0.023208618,-2.5105958,-0.3706421,-2.4702394,74.0
1351,-0.5504508,-1.9870682,0.023208618,-2.3820922,-0.7614624,-2.8302612,74.0
1352,0.07090664,-1.0764313,-0.19905853,-2.3820922,-0.7614624,-2.8302612,74.0
1353,0.07090664,-1.0764313,-0.19905853,-1.9041871,-1.1490967,-2.9534547,74.0
1354,1.5259638,-0.5248642,-0.4483223,-1.9041871,-1.1490967,-2.9534547,74.0
1355,1.5259638,-0.5248642,-0.4483223,-1.4007934,-1.5059327,-3.074524,74.0
1356,2.6957955,-0.31616974,-0.6631508,-1.4007934,-1.5059327,-3.074524,74.0
1357,2.6957955,-0.31616974,-0.6631508,-1.0205933,-1.8372803,-3.2922363,74.0
1358,2.9252276,-0.3109436,-0.7809143,-1.0205933,-1.8372803,-3.2922363,74.0
1359,2.9252276,-0.3109436,-0.7809143,-0.62764895,-2.0146363,-3.3994997,74.0
1360,2.370883,-0.35554504,-0.89245605,-0.62764895,-2.0146363,-3.3994997,74.0
1361,2.370883,-0.35554504,-0.89245605,-0.31435546,-2.0295045,-3.4579103,74.0
1362,1.5113058,-0.18686676,-1.030983,-0.31435546,-2.0295045,-3.4579103,74.0
1363,1.5113058,-0.18686676,-1.030983,-0.20921631,-1.910559,-3.5025146,74.0
1364,0.9018421,0.28482056,-1.1924019,-0.20921631,-1.910559,-3.5025146,74.0
1365,0.9018421,0.28482056,-1.1924019,-0.3706421,-1.7894897,-3.533313,74.0
1366,0.9775524,0.8069687,-1.411171,-0.3706421,-1.7894897,-3.533313,74.0
1367,0.9775524,0.8069687,-1.411171,-0.7657105,-1.6068238,-3.544995,74.0
1368,1.7572126,1.0951843,-1.6266937,-0.7657105,-1.6068238,-3.544995,74.0
1369,1.7572126,1.0951843,-1.6266937,-1.1915772,-1.356189,-3.5853517,74.0
1370,2.8321981,1.0615082,-1.5964355,-1.1915772,-1.356189,-3.5853517,74.0
1371,2.8321981,1.0615082,-1.5964355,-1.3253907,-1.1427246,-3.6607544,74.0
1372,3.6772213,0.9174576,-1.162735,-1.3253907,-1.1427246,-3.6607544,74.0
1373,3.6772213,0.9174576,-1.162735,-1.2160034,-1.0290893,-3.6395142,74.0
1374,3.9772387,0.95680237,-0.54156494,-1.2160034,-1.0290893,-3.6395142,74.0
1375,3.9772387,0.95680237,-0.54156494,-1.0673218,-1.0290893,-3.5428712,74.0
1376,3.6435833,1.213295,-0.15932465,-1.0673218,-1.0290893,-3.5428712,74.0
1377,3.6435833,1.213295,-0.15932465,-1.1352905,-1.083252,-3.2890503,74.0
1378,2.804759,1.5880585,-0.17570114,-1.1352905,-1.083252,-3.2890503,74.0
1379,2.804759,1.5880585,-0.17570114,-1.4804443,-1.089624,-2.8419435,74.0
1380,1.6091881,1.95504,-0.35346222,-1.4804443,-1.089624,-2.8419435,74.0
1381,1.6091881,1.95504,-0.35346222,-2.1250856,-1.0227174,-2.266333,74.0
1382,0.28333378,2.125618,-0.36672974,-2.1250856,-1.0227174,-2.266333,74.0
1383,0.28333378,2.125618,-0.36672974,-2.6921997,-1.0375855,-1.6206299,74.0
1384,-0.5435848,1.9512024,-0.273571,-2.6921997,-1.0375855,-1.6206299,74.0
1385,-0.5435848,1.9512024,-0.273571,-2.710254,-1.0821899,-1.0280274,74.0
1386,-0.628191,1.458435,-0.35970306,-2.710254,-1.0821899,-1.0280274,74.0
1387,-0.628191,1.458435,-0.35970306,-2.3417358,-0.92501223,-0.46728516,74.0
1388,-0.42363453,0.7608795,-0.684185,-2.3417358,-0.92501223,-0.46728516,74.0
1389,-0.42363453,0.7608795,-0.684185,-1.8202881,-0.76464844,-0.009558106,74.0
1390,-0.05295849,-0.09664154,-1.152317,-1.8202881,-0.76464844,-0.009558106,74.0
1391,-0.05295849,-0.09664154,-1.152317,-1.0365235,-0.6510132,0.3355957,74.0
1392,0.53424454,-0.87879944,-1.4785309,-1.0365235,-0.6510132,0.3355957,74.0
1393,0.53424454,-0.87879944,-1.4785309,-0.115759276,-0.16779785,0.5766724,74.0
1394,0.4994049,-1.1477814,-1.2978287,-0.115759276,-0.16779785,0.5766724,74.0
1395,0.4994049,-1.1477814,-1.2978287,0.8464233,0.44816896,0.7582764,74.0
1396,-0.28325176,-0.90997314,-0.9665108,0.8464233,0.44816896,0.7582764,74.0
1397,-0.28325176,-0.90997314,-0.9665108,1.6981567,0.6701294,1.1034302,74.0
1398,-0.396389,-0.51569366,-0.97566223,1.6981567,0.6701294,1.1034302,74.0
1399,-0.396389,-0.51569366,-0.97566223,2.617859,1.0099732,1.3487549,74.0
1400,0.7187042,-0.13396454,-1.0970573,2.617859,1.0099732,1.3487549,74.0
1401,0.7187042,-0.13396454,-1.0970573,3.4865844,1.4326538,1.5611572,74.0
1402,2.1832886,0.233284,-0.83039093,3.4865844,1.4326538,1.5611572,74.0
1403,2.1832886,0.233284,-0.83039093,4.076001,1.9424194,1.8638306,74.0
1404,2.1832886,0.233284,-0.83039093,4.076001,1.9424194,1.8638306,75.0
1405,2.5512943,0.5729065,-0.0071105957,4.076001,1.9424194,1.8638306,75.0
1406,2.5512943,0.5729065,-0.0071105957,4.3096437,2.3109376,2.1909301,75.0
1407,1.2039509,0.79221344,1.0795288,4.3096437,2.3109376,2.1909301,75.0
1408,1.2039509,0.79221344,1.0795288,4.2225585,2.4840455,2.5541382,75.0
1409,-0.949131,0.75868225,1.8874397,4.2225585,2.4840455,2.5541382,75.0
1410,-0.949131,0.75868225,1.8874397,3.9039552,2.546704,2.9215944,75.0
1411,-2.644022,0.55085754,2.0922165,3.9039552,2.546704,2.9215944,75.0
1412,-2.644022,0.55085754,2.0922165,3.2964845,2.626355,3.260376,75.0
1413,-3.3118114,0.32376862,2.0506058,3.2964845,2.626355,3.260376,75.0
1414,-3.3118114,0.32376862,2.0506058,2.5721924,2.4967897,3.62146,75.0
1415,-3.0289164,0.060272217,2.2322922,2.5721924,2.4967897,3.62146,75.0
1416,-3.0289164,0.060272217,2.2322922,1.896753,2.2971313,3.882715,75.0
1417,-2.3233528,-0.3812256,2.4181824,1.896753,2.2971313,3.882715,75.0
1418,-2.3233528,-0.3812256,2.4181824,1.2425537,2.1357057,3.9443116,75.0
1419,-1.7358313,-1.0524979,2.2295418,1.2425537,2.1357057,3.9443116,75.0
1420,-1.7358313,-1.0524979,2.2295418,0.69986576,2.0167603,3.9103272,75.0
1421,-1.3257618,-1.6940002,1.7620544,0.69986576,2.0167603,3.9103272,75.0
1422,-1.3257618,-1.6940002,1.7620544,0.3430298,1.8755127,3.8551025,75.0
1423,-1.0089979,-2.0312119,1.3593025,0.3430298,1.8755127,3.8551025,75.0
1424,-1.0089979,-2.0312119,1.3593025,0.1709839,1.7661256,3.5375612,75.0
1425,-1.0023651,-2.037674,1.1206703,0.1709839,1.7661256,3.5375612,75.0
1426,-1.0023651,-2.037674,1.1206703,0.13806152,1.6981567,3.1106324,75.0
1427,-1.4825068,-1.7994766,0.93055725,0.13806152,1.6981567,3.1106324,75.0
1428,-1.4825068,-1.7994766,0.93055725,0.1731079,1.6726685,2.6475952,75.0
1429,-2.1137276,-1.2924652,0.67020035,0.1731079,1.6726685,2.6475952,75.0
1430,-2.1137276,-1.2924652,0.67020035,0.124255374,1.6142578,2.2079225,75.0
1431,-2.5120516,-0.6016693,0.37171936,0.124255374,1.6142578,2.2079225,75.0
1432,-2.5120516,-0.6016693,0.37171936,-0.04141846,1.5664673,1.7501954,75.0
1433,-2.7643776,0.073020935,0.077194214,-0.04141846,1.5664673,1.7501954,75.0
1434,-2.7643776,0.073020935,0.077194214,-0.27718505,1.4740723,1.2595459,75.0
1435,-3.0821443,0.76779175,-0.30075836,-0.27718505,1.4740723,1.2595459,75.0
1436,-3.0821443,0.76779175,-0.30075836,-0.814563,1.3912354,0.81987303,75.0
1437,-2.9202929,1.2057343,-0.58410263,-0.814563,1.3912354,0.81987303,75.0
1438,-2.9202929,1.2057343,-0.58410263,-1.5494751,1.0386475,0.50020754,75.0
1439,-1.8049355,0.6820755,-0.6371918,-1.5494751,1.0386475,0.50020754,75.0
1440,-1.8049355,0.6820755,-0.6371918,-2.1346436,0.6637573,-0.014868164,75.0
1441,-1.1331329,-0.7469406,-0.27817154,-2.1346436,0.6637573,-0.014868164,75.0
1442,-1.1331329,-0.7469406,-0.27817154,-2.2121704,0.2516968,-0.8050049,75.0
1443,-1.4962769,-1.8752518,0.4409485,-2.2121704,0.2516968,-0.8050049,75.0
1444,-1.4962769,-1.8752518,0.4409485,-1.8712647,-0.3419678,-1.4400879,75.0
1445,-1.4329224,-1.8176346,0.86306,-1.8712647,-0.3419678,-1.4400879,75.0
1446,-1.4329224,-1.8176346,0.86306,-1.4995606,-0.8666016,-1.8574585,75.0
1447,-0.39343262,-1.1286774,0.7128601,-1.4995606,-0.8666016,-1.8574585,75.0
1448,-0.39343262,-1.1286774,0.7128601,-1.1289185,-1.3402588,-2.2365968,75.0
1449,0.8361082,-0.6621933,0.25806808,-1.1289185,-1.3402588,-2.2365968,75.0
1450,0.8361082,-0.6621933,0.25806808,-0.8262451,-1.6790406,-2.5955567,75.0
1451,1.5370264,-0.5684509,-0.19707489,-0.8262451,-1.6790406,-2.5955567,75.0
1452,1.5370264,-0.5684509,-0.19707489,-0.6064087,-1.910559,-2.984253,75.0
1453,1.5169258,-0.5980377,-0.490242,-0.6064087,-1.910559,-2.984253,75.0
1454,1.5169258,-0.5980377,-0.490242,-0.46728516,-1.9742798,-3.263562,75.0
1455,1.0400295,-0.46242523,-0.654232,-0.46728516,-1.9742798,-3.263562,75.0
1456,1.0400295,-0.46242523,-0.654232,-0.4439209,-1.9381714,-3.4812744,75.0
1457,0.6114788,-0.09664917,-0.74565125,-0.4439209,-1.9381714,-3.4812744,75.0
1458,0.6114788,-0.09664917,-0.74565125,-0.55543214,-1.8659546,-3.6448243,75.0
1459,0.5743513,0.35782623,-0.85076904,-0.55543214,-1.8659546,-3.6448243,75.0
1460,0.5743513,0.35782623,-0.85076904,-0.75721437,-1.7746216,-3.7722657,75.0
1461,1.0400596,0.7166672,-1.01865,-0.75721437,-1.7746216,-3.7722657,75.0
1462,1.0400596,0.7166672,-1.01865,-1.0057251,-1.6684204,-3.8710327,75.0
1463,2.0057049,0.8775177,-1.2348404,-1.0057251,-1.6684204,-3.8710327,75.0
1464,2.0057049,0.8775177,-1.2348404,-1.2266235,-1.5845215,-3.9613037,75.0
1465,3.3205557,0.8976593,-1.3511314,-1.2266235,-1.5845215,-3.9613037,75.0
1466,3.3205557,0.8976593,-1.3511314,-1.3891114,-1.5197388,-4.0452027,75.0
1467,4.5365715,0.87483215,-1.0670242,-1.3891114,-1.5197388,-4.0452027,75.0
1468,4.5365715,0.87483215,-1.0670242,-1.4592041,-1.5845215,-4.0929933,75.0
1469,5.0863743,0.8802109,-0.5285225,-1.4592041,-1.5845215,-4.0929933,75.0
1470,5.0863743,0.8802109,-0.5285225,-1.4974365,-1.6588624,-3.9092653,75.0
1471,4.581172,1.0893021,-0.33486557,-1.4974365,-1.6588624,-3.9092653,75.0
1472,4.581172,1.0893021,-0.33486557,-1.4230957,-1.5993897,-3.612964,75.0
1473,3.268795,1.5805817,-0.69241333,-1.4230957,-1.5993897,-3.612964,75.0
1474,3.268795,1.5805817,-0.69241333,-1.8234742,-1.4305298,-3.087268,75.0
1475,1.7271824,2.0087662,-1.0067749,-1.8234742,-1.4305298,-3.087268,75.0
1476,1.7271824,2.0087662,-1.0067749,-2.2344728,-1.2776002,-2.4702394,75.0
1477,0.63189316,1.9901199,-0.89404297,-2.2344728,-1.2776002,-2.4702394,75.0
1478,0.63189316,1.9901199,-0.89404297,-2.2196045,-1.2860962,-1.7278931,75.0
1479,0.4854946,1.7444763,-0.7126732,-2.2196045,-1.2860962,-1.7278931,75.0
1480,0.4854946,1.7444763,-0.7126732,-1.9413575,-1.1023682,-0.994043,75.0
1481,0.68288994,1.4635468,-0.8078728,-1.9413575,-1.1023682,-0.994043,75.0
1482,0.68288994,1.4635468,-0.8078728,-1.6036377,-0.8241211,-0.32709962,75.0
1483,0.6078596,1.026001,-1.1261101,-1.6036377,-0.8241211,-0.32709962,75.0
1484,0.6078596,1.026001,-1.1261101,-1.1979493,-0.60216063,0.2984253,75.0
1485,0.54314804,0.39892578,-1.4483604,-1.1979493,-0.60216063,0.2984253,75.0
1486,0.54314804,0.39892578,-1.4483604,-0.8294312,-0.19753419,0.815625,75.0
1487,0.14935017,-0.22170258,-1.3560524,-0.8294312,-0.19753419,0.815625,75.0
1488,0.14935017,-0.22170258,-1.3560524,-0.43117675,0.51932377,1.0439576,75.0
1489,-1.1292753,-0.5928192,-0.9183769,-0.43117675,0.51932377,1.0439576,75.0
1490,-1.1292753,-0.5928192,-0.9183769,0.09239502,0.81987303,1.3243287,75.0
1491,-2.0061426,-0.74489594,-0.8499603,0.09239502,0.81987303,1.3243287,75.0
1492,-2.0061426,-0.74489594,-0.8499603,0.77526855,0.91757816,1.5484132,75.0
1493,-0.90122795,-0.831398,-1.2642593,0.77526855,0.91757816,1.5484132,75.0
1494,-0.90122795,-0.831398,-1.2642593,1.6811646,1.2882203,1.7055908,75.0
1495,1.490138,-0.7408371,-1.3814888,1.6811646,1.2882203,1.7055908,75.0
1496,1.490138,-0.7408371,-1.3814888,2.5392702,1.9084351,1.8617066,75.0
1497,2.789999,-0.3692932,-0.57787323,2.5392702,1.9084351,1.8617066,75.0
1498,2.789999,-0.3692932,-0.57787323,3.1063843,2.261023,2.0008302,75.0
1499,1.7535686,8.773804E-4,0.79896927,3.1063843,2.261023,2.0008302,75.0
1500,1.7535686,8.773804E-4,0.79896927,3.4972045,2.272705,2.1442018,75.0
1501,-0.5428238,0.07923889,1.8468666,3.4972045,2.272705,2.1442018,75.0
1502,-0.5428238,0.07923889,1.8468666,3.6788087,2.2089844,2.3343017,75.0
1503,-2.5030584,0.05328369,2.129776,3.6788087,2.2089844,2.3343017,75.0
1504,-2.5030584,0.05328369,2.129776,3.5481813,2.1399536,2.6008668,75.0
1505,-3.385333,0.154068,2.019081,3.5481813,2.1399536,2.6008668,75.0
1506,-3.385333,0.154068,2.019081,3.155237,1.9371094,2.9226563,75.0
1507,-3.2221584,0.28053284,2.089447,3.155237,1.9371094,2.9226563,75.0
1508,-3.2221584,0.28053284,2.089447,2.712378,1.634436,3.258252,75.0
1509,-2.4279823,0.20832825,2.3194351,2.712378,1.634436,3.258252,75.0
1510,-2.4279823,0.20832825,2.3194351,2.2461548,1.4156617,3.4738405,75.0
1511,-1.4937172,-0.18305969,2.2812576,2.2461548,1.4156617,3.4738405,75.0
1512,-1.4937172,-0.18305969,2.2812576,1.7087768,1.3052124,3.6458862,75.0
1513,-0.7403717,-0.7102661,1.8172302,1.7087768,1.3052124,3.6458862,75.0
1514,-0.7403717,-0.7102661,1.8172302,1.0768799,1.3030884,3.810498,75.0
1515,-0.25531006,-1.0824356,1.2145004,1.0768799,1.3030884,3.810498,75.0
1516,-0.25531006,-1.0824356,1.2145004,0.50233155,1.3338867,3.80625,75.0
1517,-0.24204159,-1.1741028,0.82146454,0.50233155,1.3338867,3.80625,75.0
1518,-0.24204159,-1.1741028,0.82146454,0.16992188,1.3976074,3.6363282,75.0
1519,-0.7942686,-0.88386536,0.63036346,0.16992188,1.3976074,3.6363282,75.0
1520,-0.7942686,-0.88386536,0.63036346,0.047790527,1.4698242,3.3145387,75.0
1521,-1.6853418,-0.27430725,0.5049286,0.047790527,1.4698242,3.3145387,75.0
1522,-1.6853418,-0.27430725,0.5049286,-0.052038576,1.5186768,2.8589356,75.0
1523,-2.3911934,0.17716217,0.37904358,-0.052038576,1.5186768,2.8589356,75.0
1524,-2.3911934,0.17716217,0.37904358,-0.29630128,1.4740723,2.3704102,75.0
1525,-2.6631012,0.09617615,0.19013977,-0.29630128,1.4740723,2.3704102,75.0
1526,-2.6631012,0.09617615,0.19013977,-0.55968016,1.5165528,1.6578003,75.0
1527,-2.912878,-0.16526031,-0.02584076,-0.55968016,1.5165528,1.6578003,75.0
1528,-2.912878,-0.16526031,-0.02584076,-0.8591675,1.4560181,0.8729736,75.0
1529,-3.119731,-0.14616394,-0.112773895,-0.8591675,1.4560181,0.8729736,75.0
1530,-3.119731,-0.14616394,-0.112773895,-1.265918,1.269104,0.24957275,75.0
1531,-2.4056234,-0.11867523,-0.06353378,-1.265918,1.269104,0.24957275,75.0
1532,-2.4056234,-0.11867523,-0.06353378,-1.6864747,0.7869507,-0.49171144,75.0
1533,-1.2664666,-0.52012634,0.01146698,-1.6864747,0.7869507,-0.49171144,75.0
1534,-1.2664666,-0.52012634,0.01146698,-1.9296753,0.3525879,-1.3083985,75.0
1535,-1.267519,-1.098732,0.29463577,-1.9296753,0.3525879,-1.3083985,75.0
1536,-1.267519,-1.098732,0.29463577,-1.812854,-0.2538208,-1.8234742,75.0
1537,-1.706337,-1.4065475,0.5991974,-1.812854,-0.2538208,-1.8234742,75.0
1538,-1.706337,-1.4065475,0.5991974,-1.2956543,-0.90802,-2.073047,75.0
1539,-0.887372,-1.3482437,0.33696365,-1.2956543,-0.90802,-2.073047,75.0
1540,-0.887372,-1.3482437,0.33696365,-0.6467652,-1.3699951,-2.2355347,75.0
1541,1.0553856,-1.1250381,-0.39398193,-0.6467652,-1.3699951,-2.2355347,75.0
1542,1.0553856,-1.1250381,-0.39398193,-0.16567384,-1.7735596,-2.4256349,75.0
1543,2.8899508,-0.95835876,-0.93405914,-0.16567384,-1.7735596,-2.4256349,75.0
1544,2.8899508,-0.95835876,-0.93405914,0.1263794,-2.077295,-2.7453003,75.0
1545,3.4527078,-0.8906479,-0.8657532,0.1263794,-2.077295,-2.7453003,75.0
1546,3.4527078,-0.8906479,-0.8657532,0.4322388,-2.247217,-3.0373535,75.0
1547,2.517476,-0.7160568,-0.40319824,0.4322388,-2.247217,-3.0373535,75.0
1548,2.517476,-0.7160568,-0.40319824,0.7805786,-2.2865112,-3.2051513,75.0
1549,0.9609165,-0.18071747,-0.06242752,0.7805786,-2.2865112,-3.2051513,75.0
1550,0.9609165,-0.18071747,-0.06242752,0.901648,-2.2142944,-3.2115235,75.0
1551,-0.20840263,0.64419556,-0.102199554,0.901648,-2.2142944,-3.2115235,75.0
1552,-0.20840263,0.64419556,-0.102199554,0.64570314,-2.1112792,-3.1371827,75.0
1553,-0.50304985,1.4067535,-0.4481659,0.64570314,-2.1112792,-3.1371827,75.0
1554,-0.50304985,1.4067535,-0.4481659,0.07327881,-1.9753418,-3.0299194,75.0
1555,0.07798004,1.8219604,-0.92767334,0.07327881,-1.9753418,-3.0299194,75.0
1556,0.07798004,1.8219604,-0.92767334,-0.6690674,-1.8245362,-2.9279664,75.0
1557,1.2529964,1.7827606,-1.3178215,-0.6690674,-1.8245362,-2.9279664,75.0
1558,1.2529964,1.7827606,-1.3178215,-1.3264526,-1.5887696,-2.893982,75.0
1559,2.5627365,1.3616943,-1.2843246,-1.3264526,-1.5887696,-2.893982,75.0
1560,2.5627365,1.3616943,-1.2843246,-1.6854126,-1.4061035,-2.9258423,75.0
1561,3.588581,0.895668,-0.68349075,-1.6854126,-1.4061035,-2.9258423,75.0
1562,3.588581,0.895668,-0.68349075,-1.8489624,-1.3784913,-2.9661987,75.0
1563,3.974039,0.669754,0.093639374,-1.8489624,-1.3784913,-2.9661987,75.0
1564,3.974039,0.669754,0.093639374,-1.8489624,-1.3784913,-2.9661987,75.0
1565,3.974039,0.669754,0.093639374,-1.9158691,-1.4018555,-2.9428346,75.0
1566,3.5612993,0.7134018,0.34140396,-1.9158691,-1.4018555,-2.9428346,75.0
1567,3.5612993,0.7134018,0.34140396,-2.081543,-1.3838013,-2.7378662,75.0
1568,2.6527138,0.8955231,-0.10081482,-2.081543,-1.3838013,-2.7378662,75.0
1569,2.6527138,0.8955231,-0.10081482,-2.275891,-1.2807862,-2.4851074,75.0
1570,1.6913242,1.0528183,-0.6798477,-2.275891,-1.2807862,-2.4851074,75.0
1571,1.6913242,1.0528183,-0.6798477,-2.350232,-1.1278565,-2.0549927,75.0
1572,1.0712233,1.1492996,-0.94467163,-2.350232,-1.1278565,-2.0549927,75.0
1573,1.0712233,1.1492996,-0.94467163,-2.2365968,-0.9770508,-1.4825684,75.0
1574,0.7973957,1.2472687,-0.9207649,-2.2365968,-0.9770508,-1.4825684,75.0
1575,0.7973957,1.2472687,-0.9207649,-2.0581787,-0.727478,-0.8442993,75.0
1576,0.54193306,1.2669678,-0.917778,-2.0581787,-0.727478,-0.8442993,75.0
1577,0.54193306,1.2669678,-0.917778,-1.9201173,-0.4630371,-0.19116211,75.0
1578,0.2407732,1.0069733,-1.118988,-1.9201173,-0.4630371,-0.19116211,75.0
1579,0.2407732,1.0069733,-1.118988,-1.6248779,-0.28461915,0.41843262,75.0
1580,0.18896866,0.51434326,-1.3624153,-1.6248779,-0.28461915,0.41843262,75.0
1581,0.18896866,0.51434326,-1.3624153,-1.26167,0.087084964,1.0471436,75.0
1582,-0.101742744,0.028823853,-1.1890297,-1.26167,0.087084964,1.0471436,75.0
1583,-0.101742744,0.028823853,-1.1890297,-0.86553955,0.6064087,1.4719483,75.0
1584,-1.053587,-0.38185883,-0.7952919,-0.86553955,0.6064087,1.4719483,75.0
1585,-1.053587,-0.38185883,-0.7952919,-0.2888672,0.75509036,1.8287842,75.0
1586,-1.3505726,-0.801239,-0.8688278,-0.2888672,0.75509036,1.8287842,75.0
