,accx,accy,accz,gyrox,gyroy,gyroz,heart rate
0,walk,walk,walk,walk,walk,walk,walk
1,5.610266,-54.870384,32.560852,0.0,0.0,0.0,0.0
2,5.610266,-54.870384,32.560852,0.12956543,0.060534667,0.0541626,0.0
3,4.5876513,-44.265488,25.98816,0.12956543,0.060534667,0.0541626,0.0
4,4.5876513,-44.265488,25.98816,0.5320679,0.05522461,0.07752686,0.0
5,3.6950235,-35.48064,20.790724,0.5320679,0.05522461,0.07752686,0.0
6,3.6950235,-35.48064,20.790724,0.7168579,0.060534667,0.0031860352,0.0
7,2.8897715,-28.012283,16.673143,0.7168579,0.060534667,0.0031860352,0.0
8,2.8897715,-28.012283,16.673143,0.6117188,0.098767094,0.07327881,0.0
9,2.2111216,-21.952957,13.40662,0.6117188,0.098767094,0.07327881,0.0
10,2.2111216,-21.952957,13.40662,0.26868898,0.07115479,0.038232423,0.0
11,1.7396612,-17.445358,10.789944,0.26868898,0.07115479,0.038232423,0.0
12,1.7396612,-17.445358,10.789944,0.0021240234,0.07115479,0.0010620117,0.0
13,1.4107227,-14.139965,8.639656,0.0021240234,0.07115479,0.0010620117,0.0
14,1.4107227,-14.139965,8.639656,-0.18266602,0.0637207,-0.027612304,0.0
15,1.1089001,-11.530247,6.8771057,-0.18266602,0.0637207,-0.027612304,0.0
16,1.1089001,-11.530247,6.8771057,-0.27293703,0.045666505,-0.059472658,0.0
17,0.8823471,-9.3952675,5.462723,-0.27293703,0.045666505,-0.059472658,0.0
18,0.8823471,-9.3952675,5.462723,-0.17735596,0.04141846,-0.050976563,0.0
19,0.7182555,-7.602005,4.381214,-0.17735596,0.04141846,-0.050976563,0.0
20,0.7182555,-7.602005,4.381214,-0.078588866,0.023364259,-0.012744141,0.0
21,0.621089,-6.038929,3.551918,-0.078588866,0.023364259,-0.012744141,0.0
22,0.621089,-6.038929,3.551918,-0.03079834,0.014868164,0.04460449,0.0
23,0.5560627,-4.8130646,2.875473,-0.03079834,0.014868164,0.04460449,0.0
24,0.5560627,-4.8130646,2.875473,0.03079834,-0.0010620117,0.040356446,0.0
25,0.48759937,-3.9427643,2.3022957,0.03079834,-0.0010620117,0.040356446,0.0
26,0.48759937,-3.9427643,2.3022957,0.16779785,-0.019116212,-0.059472658,0.0
27,0.41354132,-3.2072525,1.8098297,0.16779785,-0.019116212,-0.059472658,0.0
28,0.41354132,-3.2072525,1.8098297,0.29099122,0.023364259,0.0053100586,0.0
29,0.3239236,-2.454239,1.4445572,0.29099122,0.023364259,0.0053100586,0.0
30,0.3239236,-2.454239,1.4445572,0.31329346,0.029736329,0.022302246,0.0
31,0.2622757,-1.7573471,1.1997757,0.31329346,0.029736329,0.022302246,0.0
32,0.2622757,-1.7573471,1.1997757,0.18266602,0.04141846,0.059472658,0.0
33,0.19711304,-1.3144226,0.99808884,0.18266602,0.04141846,0.059472658,0.0
34,0.19711304,-1.3144226,0.99808884,0.032922365,0.04460449,0.08496094,0.0
35,0.19711304,-1.3144226,0.99808884,0.032922365,0.04460449,0.08496094,90.0
36,0.19711304,-1.3144226,0.99808884,0.04885254,0.040356446,0.107263185,90.0
37,0.08481455,-1.1327515,0.82364273,0.04885254,0.040356446,0.107263185,90.0
38,-0.01248312,-1.0145874,0.65193176,0.04885254,0.040356446,0.107263185,90.0
39,-0.01248312,-1.0145874,0.65193176,0.093457036,0.033984374,0.10301514,90.0
40,-0.033143044,-0.84581757,0.47866058,0.093457036,0.033984374,0.10301514,90.0
41,-0.033143044,-0.84581757,0.47866058,0.10089111,0.026550293,0.040356446,90.0
42,-0.032020092,-0.5939255,0.36097717,0.10089111,0.026550293,0.040356446,90.0
43,-0.032020092,-0.5939255,0.36097717,0.04460449,0.020178223,-0.004248047,90.0
44,-0.03243971,-0.35564423,0.29932785,0.04460449,0.020178223,-0.004248047,90.0
45,-0.03243971,-0.35564423,0.29932785,-0.0361084,0.010620117,-0.0021240234,90.0
46,-0.03503418,-0.27848816,0.25396347,-0.0361084,0.010620117,-0.0021240234,90.0
47,-0.03503418,-0.27848816,0.25396347,-0.029736329,0.0053100586,0.019116212,90.0
48,-0.029174805,-0.32276917,0.21083832,-0.029736329,0.0053100586,0.019116212,90.0
49,-0.029174805,-0.32276917,0.21083832,-0.016992187,0.004248047,0.023364259,90.0
50,0.011987686,-0.3272934,0.15431213,-0.016992187,0.004248047,0.023364259,90.0
51,0.011987686,-0.3272934,0.15431213,-0.05628662,0.022302246,0.03717041,90.0
52,0.036079407,-0.17136383,0.06718445,-0.05628662,0.022302246,0.03717041,90.0
53,0.036079407,-0.17136383,0.06718445,-0.32497558,0.09133301,0.11044922,90.0
54,-0.03859234,0.05911255,0.012062073,-0.32497558,0.09133301,0.11044922,90.0
55,-0.03859234,0.05911255,0.012062073,-0.58198243,0.10513916,0.31223145,90.0
56,-0.17325687,0.16750336,0.011894226,-0.58198243,0.10513916,0.31223145,90.0
57,-0.17325687,0.16750336,0.011894226,-0.4163086,0.081774905,0.5299439,90.0
58,-0.24844408,0.090278625,-0.09262085,-0.4163086,0.081774905,0.5299439,90.0
59,-0.24844408,0.090278625,-0.09262085,-0.026550293,0.08071289,0.93350834,90.0
60,0.112511635,-0.044143677,-0.29366302,-0.026550293,0.08071289,0.93350834,90.0
61,0.112511635,-0.044143677,-0.29366302,-2.0103881,0.36639404,0.65419924,90.0
62,0.112511635,-0.044143677,-0.29366302,-2.9821289,0.7582764,0.014868164,90.0
63,0.37831497,-0.4224701,-0.23937225,-2.9821289,0.7582764,0.014868164,90.0
64,-0.07367897,-1.3572998,0.15388489,-2.9821289,0.7582764,0.014868164,90.0
65,-0.07367897,-1.3572998,0.15388489,-1.622754,0.15080567,-0.14337158,90.0
66,-0.2034378,-1.766983,0.53243256,-1.622754,0.15080567,-0.14337158,90.0
67,-0.2034378,-1.766983,0.53243256,-0.91757816,-0.2623169,0.04460449,90.0
68,-0.14652681,-1.311203,0.6022873,-0.91757816,-0.2623169,0.04460449,90.0
69,-0.14652681,-1.311203,0.6022873,-0.6881836,-0.09664307,0.14974366,90.0
70,-0.40734577,-1.0677872,0.38388062,-0.6881836,-0.09664307,0.14974366,90.0
71,-0.40734577,-1.0677872,0.38388062,-0.28355715,-0.12531738,-0.23364258,90.0
72,-0.22433853,-0.7896271,-0.044631958,-0.28355715,-0.12531738,-0.23364258,90.0
73,-0.22433853,-0.7896271,-0.044631958,-0.1083252,-0.115759276,-0.1539917,90.0
74,0.2676363,-0.223526,-0.2826538,-0.1083252,-0.115759276,-0.1539917,90.0
75,0.2676363,-0.223526,-0.2826538,-0.34833986,-0.019116212,0.010620117,90.0
76,0.3336773,-0.06374359,-0.15287781,-0.34833986,-0.019116212,0.010620117,90.0
77,0.3336773,-0.06374359,-0.15287781,-0.32497558,-0.06265869,-0.04460449,90.0
78,0.016417027,-0.2578659,0.052272797,-0.32497558,-0.06265869,-0.04460449,90.0
79,0.016417027,-0.2578659,0.052272797,-0.12850343,-0.13062744,-0.0021240234,90.0
80,0.016417027,-0.2578659,0.052272797,-0.15505372,-0.15823975,0.04991455,90.0
81,-0.20250368,-0.22789001,0.11304855,-0.15505372,-0.15823975,0.04991455,90.0
82,-0.19078732,0.037391663,-0.004508972,-0.15505372,-0.15823975,0.04991455,90.0
83,-0.19078732,0.037391663,-0.004508972,-0.38444826,-0.16992188,0.032922365,90.0
84,-0.13473415,0.1956253,-0.20722198,-0.38444826,-0.16992188,0.032922365,90.0
85,-0.13473415,0.1956253,-0.20722198,-0.57242435,-0.20496826,0.004248047,90.0
86,-0.16827297,0.14789581,-0.37080765,-0.57242435,-0.20496826,0.004248047,90.0
87,-0.16827297,0.14789581,-0.37080765,-0.6488892,-0.26125488,-0.053100586,90.0
88,-0.16827297,0.14789581,-0.37080765,-0.6117188,-0.3345337,-0.13275146,90.0
89,-0.25789738,0.012123108,-0.4305191,-0.6117188,-0.3345337,-0.13275146,90.0
90,-0.35797787,-0.067352295,-0.4262619,-0.6117188,-0.3345337,-0.13275146,90.0
91,-0.35797787,-0.067352295,-0.4262619,-0.5033936,-0.4067505,-0.20603028,90.0
92,-0.450274,-0.050308228,-0.45627975,-0.5033936,-0.4067505,-0.20603028,90.0
93,-0.450274,-0.050308228,-0.45627975,-0.35471192,-0.45560303,-0.2803711,90.0
94,-0.4650898,0.046447754,-0.546154,-0.35471192,-0.45560303,-0.2803711,90.0
95,-0.4650898,0.046447754,-0.546154,-0.19647217,-0.4704712,-0.38657227,90.0
96,-0.38038492,0.20158386,-0.6406822,-0.19647217,-0.4704712,-0.38657227,90.0
97,-0.38038492,0.20158386,-0.6406822,-0.07965088,-0.47471926,-0.4980835,90.0
98,-0.24283314,0.38310242,-0.6995239,-0.07965088,-0.47471926,-0.4980835,90.0
99,-0.24283314,0.38310242,-0.6995239,-0.039294433,-0.44604492,-0.6159668,90.0
100,-0.073978424,0.5646744,-0.7216301,-0.039294433,-0.44604492,-0.6159668,90.0
101,-0.073978424,0.5646744,-0.7216301,-0.052038576,-0.4078125,-0.727478,90.0
102,0.07697439,0.7153549,-0.71481705,-0.052038576,-0.4078125,-0.727478,90.0
103,0.07697439,0.7153549,-0.71481705,-0.07540283,-0.38975832,-0.83898926,90.0
104,0.17840052,0.84918976,-0.66820526,-0.07540283,-0.38975832,-0.83898926,90.0
105,0.17840052,0.84918976,-0.66820526,-0.115759276,-0.36533204,-0.9494385,90.0
106,0.30497646,1.0137787,-0.6077843,-0.115759276,-0.36533204,-0.9494385,90.0
107,0.30497646,1.0137787,-0.6077843,-0.22302246,-0.30373535,-1.0216553,90.0
108,0.5112052,1.2034073,-0.5421829,-0.22302246,-0.30373535,-1.0216553,90.0
109,0.5112052,1.2034073,-0.5421829,-0.3971924,-0.2347046,-1.088562,90.0
110,0.6790571,1.3708572,-0.4426689,-0.3971924,-0.2347046,-1.088562,90.0
111,0.6790571,1.3708572,-0.4426689,-0.6159668,-0.1539917,-1.1278565,90.0
112,0.720736,1.4738617,-0.3118248,-0.6159668,-0.1539917,-1.1278565,90.0
113,0.720736,1.4738617,-0.3118248,-0.8612915,-0.07646485,-1.1310425,90.0
114,0.691628,1.5302887,-0.1747055,-0.8612915,-0.07646485,-1.1310425,90.0
115,0.691628,1.5302887,-0.1747055,-1.1522827,0.043542482,-1.1522827,90.0
116,0.694623,1.5415115,0.060321808,-1.1522827,0.043542482,-1.1522827,90.0
117,0.694623,1.5415115,0.060321808,-1.448584,0.24851075,-1.1873292,90.0
118,0.60492945,1.5151901,0.34090805,-1.448584,0.24851075,-1.1873292,90.0
119,0.60492945,1.5151901,0.34090805,-1.8925049,0.33028564,-1.2032593,90.0
120,0.21156788,1.5275574,0.3889122,-1.8925049,0.33028564,-1.2032593,90.0
121,0.21156788,1.5275574,0.3889122,-2.4946656,0.44816896,-1.2085694,90.0
122,-0.30113125,1.5462036,0.23490906,-2.4946656,0.44816896,-1.2085694,90.0
123,-0.30113125,1.5462036,0.23490906,-2.893982,0.5479981,-1.26167,90.0
124,-0.37398577,1.3856812,0.36252594,-2.893982,0.5479981,-1.26167,90.0
125,-0.37398577,1.3856812,0.36252594,-2.9226563,0.725354,-1.2850342,90.0
126,-0.37398577,1.3856812,0.36252594,-2.9226563,0.725354,-1.2850342,89.0
127,0.17203903,1.0687485,0.86400604,-2.9226563,0.725354,-1.2850342,89.0
128,0.17203903,1.0687485,0.86400604,-3.0331056,0.7519043,-1.3253907,89.0
129,0.9195528,0.80261993,1.326973,-3.0331056,0.7519043,-1.3253907,89.0
130,0.9195528,0.80261993,1.326973,-3.3697631,0.7604004,-1.4687623,89.0
131,1.3467507,0.50450134,1.7127151,-3.3697631,0.7604004,-1.4687623,89.0
132,1.3467507,0.50450134,1.7127151,-3.6607544,0.6903076,-1.5717773,89.0
133,1.0550618,-0.17171478,2.5565948,-3.6607544,0.6903076,-1.5717773,89.0
134,1.0550618,-0.17171478,2.5565948,-3.2062135,0.70305175,-1.5813354,89.0
135,-0.019280434,-1.0522537,3.8628998,-3.2062135,0.70305175,-1.5813354,89.0
136,-0.019280434,-1.0522537,3.8628998,-2.2238526,0.5278198,-1.537793,89.0
137,-1.3000803,-1.3822937,4.619091,-2.2238526,0.5278198,-1.537793,89.0
138,-1.3000803,-1.3822937,4.619091,-1.5473511,0.5564942,-1.538855,89.0
139,-2.1616955,-1.0068512,4.220005,-1.5473511,0.5564942,-1.538855,89.0
140,-2.1616955,-1.0068512,4.220005,-1.3168945,0.74871826,-1.538855,89.0
141,-2.5651722,-0.36414337,2.9850502,-1.3168945,0.74871826,-1.538855,89.0
142,-2.5651722,-0.36414337,2.9850502,-1.0705079,0.85598147,-1.5951416,89.0
143,-2.6130996,0.42066956,1.4619179,-1.0705079,0.85598147,-1.5951416,89.0
144,-2.6130996,0.42066956,1.4619179,-1.0492676,0.9717407,-1.6078857,89.0
145,-2.2948132,1.1935654,0.20851135,-1.0492676,0.9717407,-1.6078857,89.0
146,-2.2948132,1.1935654,0.20851135,-1.3763672,1.1544068,-1.6758546,89.0
147,-1.6950665,1.505928,-0.52130127,-1.3763672,1.1544068,-1.6758546,89.0
148,-1.6950665,1.505928,-0.52130127,-1.6238159,1.263794,-1.7778076,89.0
149,-1.172801,1.1772308,-0.7409668,-1.6238159,1.263794,-1.7778076,89.0
150,-1.172801,1.1772308,-0.7409668,-1.8394043,1.3381348,-1.7565674,89.0
151,-0.98412704,0.4936142,-0.6281738,-1.8394043,1.3381348,-1.7565674,89.0
152,-0.98412704,0.4936142,-0.6281738,-2.083667,1.3168945,-1.5739014,89.0
153,-1.0268278,-0.2030487,-0.34700775,-2.083667,1.3168945,-1.5739014,89.0
154,-1.0268278,-0.2030487,-0.34700775,-2.2440307,1.3211426,-1.3838013,89.0
155,-1.0003443,-0.73171234,0.03767395,-2.2440307,1.3211426,-1.3838013,89.0
156,-1.0003443,-0.73171234,0.03767395,-2.347046,1.26698,-1.1278565,89.0
157,-0.8391671,-0.98786926,0.4222145,-2.347046,1.26698,-1.1278565,89.0
158,-0.8391671,-0.98786926,0.4222145,-2.6040528,1.1448487,-0.8527954,89.0
159,-0.79346514,-1.0227661,0.62612915,-2.6040528,1.1448487,-0.8527954,89.0
160,-0.79346514,-1.0227661,0.62612915,-2.909912,1.0620117,-0.541626,89.0
161,-0.99351215,-1.0392685,0.61499023,-2.909912,1.0620117,-0.541626,89.0
162,-0.99351215,-1.0392685,0.61499023,-2.986377,0.9398804,-0.27399904,89.0
163,-1.0974221,-1.0255432,0.5250015,-2.986377,0.9398804,-0.27399904,89.0
164,-1.0974221,-1.0255432,0.5250015,-2.8578737,0.72641605,-0.08071289,89.0
165,-0.7913289,-0.93896484,0.38769913,-2.8578737,0.72641605,-0.08071289,89.0
166,-0.7913289,-0.93896484,0.38769913,-2.5615723,0.5320679,0.059472658,89.0
167,-0.11497235,-0.95101166,0.15280914,-2.5615723,0.5320679,0.059472658,89.0
168,-0.11497235,-0.95101166,0.15280914,-2.0911012,0.34090576,0.07965088,89.0
169,0.83897924,-1.1360931,-0.19449997,-2.0911012,0.34090576,0.07965088,89.0
170,0.83897924,-1.1360931,-0.19449997,-1.4687623,0.098767094,0.058410645,89.0
171,1.8270671,-1.3525391,-0.571846,-1.4687623,0.098767094,0.058410645,89.0
172,1.8270671,-1.3525391,-0.571846,-0.8708496,-0.15186767,-0.008496094,89.0
173,2.2220664,-1.4212799,-0.7484436,-0.8708496,-0.15186767,-0.008496094,89.0
174,2.2220664,-1.4212799,-0.7484436,-0.271875,-0.40144044,-0.20709229,89.0
175,1.6382856,-1.2236099,-0.50756836,-0.271875,-0.40144044,-0.20709229,89.0
176,1.6382856,-1.2236099,-0.50756836,0.5320679,-0.7338501,-0.2888672,89.0
177,0.49102402,-0.81947327,0.08535004,0.5320679,-0.7338501,-0.2888672,89.0
178,0.49102402,-0.81947327,0.08535004,1.351941,-1.1129884,-0.1539917,89.0
179,-0.53144836,-0.4217987,0.65421677,1.351941,-1.1129884,-0.1539917,89.0
180,-0.53144836,-0.4217987,0.65421677,2.069861,-1.4252198,0.11044922,89.0
181,-1.0779662,-0.026382446,0.75788116,2.069861,-1.4252198,0.11044922,89.0
182,-1.0779662,-0.026382446,0.75788116,3.0564697,-1.808606,0.49277344,89.0
183,-0.8377514,0.5172348,0.2332573,3.0564697,-1.808606,0.49277344,89.0
184,-0.8377514,0.5172348,0.2332573,4.36593,-2.2036743,0.9388184,89.0
185,-0.11478114,1.020134,-0.5427284,4.36593,-2.2036743,0.9388184,89.0
186,-0.11478114,1.020134,-0.5427284,5.048804,-2.3651001,1.1427246,89.0
187,1.7759609,1.627327,-1.5887222,5.048804,-2.3651001,1.1427246,89.0
188,1.7759609,1.627327,-1.5887222,6.9466186,-2.451123,1.9158691,89.0
189,2.4186692,1.8040314,-2.2590866,6.9466186,-2.451123,1.9158691,89.0
190,2.4186692,1.8040314,-2.2590866,7.4521365,-2.2992554,2.2950075,89.0
191,3.5617423,2.3885498,-2.3887634,7.4521365,-2.2992554,2.2950075,89.0
192,3.5617423,2.3885498,-2.3887634,7.6390505,-1.7894897,3.2444458,89.0
193,3.5284834,2.4008026,-2.9335556,7.6390505,-1.7894897,3.2444458,89.0
194,3.5284834,2.4008026,-2.9335556,7.238672,-1.4783204,3.3910034,89.0
195,2.8686485,3.2211075,-2.837677,7.238672,-1.4783204,3.3910034,89.0
196,2.8686485,3.2211075,-2.837677,4.9532228,-0.630835,3.6416383,89.0
197,2.22396,2.5525818,-2.6171646,4.9532228,-0.630835,3.6416383,89.0
198,2.22396,2.5525818,-2.6171646,4.0303345,-0.48109132,3.601282,89.0
199,0.037834644,2.0130234,-1.76828,4.0303345,-0.48109132,3.601282,89.0
200,0.037834644,2.0130234,-1.76828,1.2096313,-0.21240234,3.2805543,89.0
201,-0.19595289,1.2602463,-1.4262924,1.2096313,-0.21240234,3.2805543,89.0
202,-0.19595289,1.2602463,-1.4262924,0.3525879,-0.14337158,3.1467407,89.0
203,-0.9044428,0.30273056,-1.0631409,0.3525879,-0.14337158,3.1467407,89.0
204,-0.9044428,0.30273056,-1.0631409,-1.1682129,-0.17523193,2.7867188,89.0
205,-0.68556595,-0.32043839,-0.72470856,-1.1682129,-0.17523193,2.7867188,89.0
206,-0.68556595,-0.32043839,-0.72470856,-1.2489258,-0.25806886,2.6560915,89.0
207,-1.0534577,-1.7706375,-0.44957733,-1.2489258,-0.25806886,2.6560915,89.0
208,-1.0534577,-1.7706375,-0.44957733,-0.42161867,-0.49489745,2.1123414,89.0
209,-0.7841358,-2.0748596,-0.43074417,-0.42161867,-0.49489745,2.1123414,89.0
210,-0.7841358,-2.0748596,-0.43074417,0.1359375,-0.5331299,1.983838,89.0
211,-0.10788727,-2.3738403,-0.53528214,0.1359375,-0.5331299,1.983838,89.0
212,-0.10788727,-2.3738403,-0.53528214,1.6556762,-0.41418457,1.7342652,89.0
213,0.30863667,-2.0222168,-0.59620667,1.6556762,-0.41418457,1.7342652,89.0
214,0.30863667,-2.0222168,-0.59620667,1.898877,-0.29099122,1.6620483,89.0
215,0.79469967,-1.3347168,-0.5780754,1.898877,-0.29099122,1.6620483,89.0
216,0.79469967,-1.3347168,-0.5780754,2.083667,0.035046387,1.5335449,89.0
217,1.0036068,-0.70020294,-0.6337509,2.083667,0.035046387,1.5335449,89.0
218,1.0036068,-0.70020294,-0.6337509,1.8893188,0.32178956,1.3296387,89.0
219,0.9292035,0.04776001,-0.88944626,1.8893188,0.32178956,1.3296387,89.0
220,0.9292035,0.04776001,-0.88944626,0.65207523,0.48427734,0.89846194,89.0
221,0.77729845,0.16273499,-0.8074188,0.65207523,0.48427734,0.89846194,89.0
222,0.77729845,0.16273499,-0.8074188,0.004248047,0.5076416,0.727478,89.0
223,0.93767166,0.2532959,-0.73851395,0.004248047,0.5076416,0.727478,89.0
224,0.93767166,0.2532959,-0.73851395,-1.4921265,0.5936646,0.11363526,89.0
225,0.99653625,0.026245117,-0.3221588,-1.4921265,0.5936646,0.11363526,89.0
226,0.99653625,0.026245117,-0.3221588,-1.6726685,0.5246338,-0.060534667,89.0
227,1.6428471,-0.925354,0.352993,-1.6726685,0.5246338,-0.060534667,89.0
228,1.6428471,-0.925354,0.352993,-1.901001,0.27506104,-0.7072998,89.0
229,1.5963945,-0.9082489,0.54138947,-1.901001,0.27506104,-0.7072998,89.0
230,1.5963945,-0.9082489,0.54138947,-1.9647217,0.24320069,-0.98873293,89.0
231,1.5963945,-0.9082489,0.54138947,-1.9647217,0.24320069,-0.98873293,89.0
232,1.9855633,-1.0287323,0.64767456,-1.9647217,0.24320069,-0.98873293,89.0
233,1.9855633,-1.0287323,0.64767456,-2.0528686,0.1709839,-1.5154908,89.0
234,2.1434193,-0.8810425,0.7113304,-2.0528686,0.1709839,-1.5154908,89.0
235,2.1434193,-0.8810425,0.7113304,-2.0199463,0.11257324,-1.9296753,89.0
236,1.584816,-0.58631897,0.87823105,-2.0199463,0.11257324,-1.9296753,89.0
237,1.584816,-0.58631897,0.87823105,-1.8893188,0.03717041,-2.256775,89.0
238,0.26172447,-0.18955994,1.0623398,-1.8893188,0.03717041,-2.256775,89.0
239,0.26172447,-0.18955994,1.0623398,-1.4761963,-0.0053100586,-2.4213867,89.0
240,-1.3523521,0.26657867,1.1613579,-1.4761963,-0.0053100586,-2.4213867,89.0
241,-1.3523521,0.26657867,1.1613579,-0.39506838,0.13699952,-2.3056276,89.0
242,-1.3259373,0.54613495,0.9600525,-0.39506838,0.13699952,-2.3056276,89.0
243,-1.3259373,0.54613495,0.9600525,-0.13062744,0.21983643,-2.3119996,89.0
244,-0.36914825,1.0428085,0.5482292,-0.13062744,0.21983643,-2.3119996,89.0
245,-0.36914825,1.0428085,0.5482292,0.0010620117,0.3175415,-2.4776733,89.0
246,1.0020819,1.6205292,0.040340424,0.0010620117,0.3175415,-2.4776733,89.0
247,1.0020819,1.6205292,0.040340424,-0.23045655,0.26337892,-2.5743165,89.0
248,1.4182673,1.6983643,-0.16147614,-0.23045655,0.26337892,-2.5743165,89.0
249,1.4182673,1.6983643,-0.16147614,-0.51188964,0.24532472,-2.5849366,89.0
250,0.4490795,1.2161407,0.1641655,-0.51188964,0.24532472,-2.5849366,89.0
251,0.4490795,1.2161407,0.1641655,-0.5766724,0.3164795,-2.5647583,89.0
252,-0.88347244,0.9230118,0.6596298,-0.5766724,0.3164795,-2.5647583,89.0
253,-0.88347244,0.9230118,0.6596298,-0.7317261,0.31010744,-2.3820922,89.0
254,-1.7497711,1.066719,0.9551964,-0.7317261,0.31010744,-2.3820922,89.0
255,-1.7497711,1.066719,0.9551964,-1.26167,0.39400634,-2.2376587,89.0
256,-2.334241,1.1151505,1.1003494,-1.26167,0.39400634,-2.2376587,89.0
257,-2.334241,1.1151505,1.1003494,-1.81073,0.49171144,-2.1293335,89.0
258,-2.9218845,0.74726105,1.2714653,-1.81073,0.49171144,-2.1293335,89.0
259,-2.9218845,0.74726105,1.2714653,-2.0337524,0.6000366,-1.9817139,89.0
260,-3.5964675,0.29950714,1.1434402,-2.0337524,0.6000366,-1.9817139,89.0
261,-3.5964675,0.29950714,1.1434402,-2.2397828,0.8230591,-1.8001099,89.0
262,-3.2092662,0.31950378,1.0310593,-2.2397828,0.8230591,-1.8001099,89.0
263,-3.2092662,0.31950378,1.0310593,-2.2992554,0.8973999,-1.7300171,89.0
264,-2.5421443,0.49684143,0.54002,-2.2992554,0.8973999,-1.7300171,89.0
265,-2.5421443,0.49684143,0.54002,-2.3385499,1.0375855,-1.5802735,89.0
266,-1.9178829,0.4522934,0.24011993,-2.3385499,1.0375855,-1.5802735,89.0
267,-1.9178829,0.4522934,0.24011993,-2.2960694,1.1151123,-1.5016845,89.0
268,-1.6398973,0.100753784,0.250103,-2.2960694,1.1151123,-1.5016845,89.0
269,-1.6398973,0.100753784,0.250103,-2.2408447,1.1639649,-1.4305298,89.0
270,-1.5532265,-0.34159088,0.3962021,-2.2408447,1.1639649,-1.4305298,89.0
271,-1.5532265,-0.34159088,0.3962021,-2.1272094,1.1894531,-1.357251,89.0
272,-1.6016145,-0.6074066,0.5179634,-2.1272094,1.1894531,-1.357251,89.0
273,-1.6016145,-0.6074066,0.5179634,-2.0241945,1.1894531,-1.2882203,89.0
274,-1.7705493,-0.6802826,0.5736618,-2.0241945,1.1894531,-1.2882203,89.0
275,-1.7705493,-0.6802826,0.5736618,-1.8553345,1.1395386,-1.2106934,89.0
276,-1.9017668,-0.65966034,0.594574,-1.8553345,1.1395386,-1.2106934,89.0
277,-1.9017668,-0.65966034,0.594574,-1.544165,1.0152832,-1.0651978,89.0
278,-1.8647974,-0.60214233,0.6692505,-1.544165,1.0152832,-1.0651978,89.0
279,-1.8647974,-0.60214233,0.6692505,-1.4156617,0.9218262,-0.9260742,89.0
280,-1.6715744,-0.6483307,0.79211426,-1.4156617,0.9218262,-0.9260742,89.0
281,-1.6715744,-0.6483307,0.79211426,-1.2776002,0.8517334,-0.8230591,89.0
282,-1.3795812,-0.8067856,0.807312,-1.2776002,0.8517334,-0.8230591,89.0
283,-1.3795812,-0.8067856,0.807312,-0.87191164,0.68074954,-0.71791995,89.0
284,-0.95635056,-0.8849411,0.67723083,-0.87191164,0.68074954,-0.71791995,89.0
285,-0.95635056,-0.8849411,0.67723083,-0.4163086,0.51082766,-0.61915284,89.0
286,-0.3268602,-0.8151474,0.43414307,-0.4163086,0.51082766,-0.61915284,89.0
287,-0.3268602,-0.8151474,0.43414307,-0.038232423,0.35895997,-0.48640138,89.0
288,0.4438951,-0.77098083,0.15999603,-0.038232423,0.35895997,-0.48640138,89.0
289,0.4438951,-0.77098083,0.15999603,0.32391357,0.19328614,-0.28674316,89.0
290,1.3726578,-0.7320175,-0.07192993,0.32391357,0.19328614,-0.28674316,89.0
291,1.3726578,-0.7320175,-0.07192993,0.60322267,-0.09239502,0.0180542,89.0
292,2.1081848,-0.5219574,-0.22470856,0.60322267,-0.09239502,0.0180542,89.0
293,2.1081848,-0.5219574,-0.22470856,0.6085327,-0.3419678,0.2782471,89.0
294,1.8098879,-0.1138916,-0.14918518,0.6085327,-0.3419678,0.2782471,89.0
295,1.8098879,-0.1138916,-0.14918518,0.65419924,-0.544812,0.6202149,89.0
296,0.80207276,0.26342773,0.16807938,0.65419924,-0.544812,0.6202149,89.0
297,0.80207276,0.26342773,0.16807938,1.26167,-0.9345703,1.1639649,89.0
298,0.6189287,0.475235,0.30002594,1.26167,-0.9345703,1.1639649,89.0
299,0.6189287,0.475235,0.30002594,2.258899,-1.3137085,1.5845215,89.0
300,1.5899916,0.6066284,-0.069229126,2.258899,-1.3137085,1.5845215,89.0
301,1.5899916,0.6066284,-0.069229126,3.1074464,-1.5154908,1.9296753,89.0
302,2.5701623,0.71804047,-0.7329216,3.1074464,-1.5154908,1.9296753,89.0
303,2.5701623,0.71804047,-0.7329216,3.891211,-1.6450561,2.2981935,89.0
304,2.8536644,0.7934494,-1.3757935,3.891211,-1.6450561,2.2981935,89.0
305,2.8536644,0.7934494,-1.3757935,4.885254,-1.8670167,2.6614015,89.0
306,2.7452726,0.87470245,-1.9980087,4.885254,-1.8670167,2.6614015,89.0
307,2.7452726,0.87470245,-1.9980087,6.050281,-1.9774659,3.0065553,89.0
308,2.6468773,1.0644379,-2.703537,6.050281,-1.9774659,3.0065553,89.0
309,2.6468773,1.0644379,-2.703537,6.898828,-1.905249,3.3060424,89.0
310,2.5759368,1.420578,-3.3862686,6.898828,-1.905249,3.3060424,89.0
311,2.5759368,1.420578,-3.3862686,7.145215,-1.5600952,3.5726075,89.0
312,2.2081985,1.6278458,-3.7808075,7.145215,-1.5600952,3.5726075,89.0
313,2.2081985,1.6278458,-3.7808075,6.695984,-1.0715698,3.708545,89.0
314,1.3461609,1.2929916,-3.647705,6.695984,-1.0715698,3.708545,89.0
315,1.3461609,1.2929916,-3.647705,5.6562743,-0.5543701,3.6565063,89.0
316,0.28316593,0.555954,-3.0368652,5.6562743,-0.5543701,3.6565063,89.0
317,0.28316593,0.555954,-3.0368652,4.340442,-0.16779785,3.5874755,89.0
318,-0.52417564,-0.17720795,-2.32473,4.340442,-0.16779785,3.5874755,89.0
319,-0.52417564,-0.17720795,-2.32473,2.9194703,0.10089111,3.4419801,89.0
320,-0.80238533,-0.69625854,-1.8568916,2.9194703,0.10089111,3.4419801,89.0
321,-0.80238533,-0.69625854,-1.8568916,1.6153198,0.3164795,3.183911,89.0
322,-0.5615492,-1.0737686,-1.6517601,1.6153198,0.3164795,3.183911,89.0
323,-0.5615492,-1.0737686,-1.6517601,0.6945557,0.5235718,2.8748658,89.0
324,-0.057455063,-1.4102936,-1.5343704,0.6945557,0.5235718,2.8748658,89.0
325,-0.057455063,-1.4102936,-1.5343704,0.10513916,0.6244629,2.5498903,89.0
326,0.43893623,-1.6627197,-1.3881912,0.10513916,0.6244629,2.5498903,89.0
327,0.43893623,-1.6627197,-1.3881912,-0.23045655,0.72323,2.2355347,89.0
328,0.758132,-1.813797,-1.1906052,-0.23045655,0.72323,2.2355347,89.0
329,0.758132,-1.813797,-1.1906052,-0.29948732,0.77526855,1.9530395,89.0
330,0.85456467,-1.8133469,-0.88869095,-0.29948732,0.77526855,1.9530395,89.0
331,0.85456467,-1.8133469,-0.88869095,-0.28355715,0.81987303,1.6885986,89.0
332,0.8146086,-1.5968552,-0.37112045,-0.28355715,0.81987303,1.6885986,89.0
333,0.8146086,-1.5968552,-0.37112045,-0.4078125,0.93350834,1.448584,89.0
334,0.6469507,-1.2368011,0.22166824,-0.4078125,0.93350834,1.448584,89.0
335,0.6469507,-1.2368011,0.22166824,-0.6244629,0.9834229,1.2945923,89.0
336,0.34021664,-0.84251404,0.541214,-0.6244629,0.9834229,1.2945923,89.0
337,0.34021664,-0.84251404,0.541214,-1.0174073,0.8708496,1.1087402,89.0
338,6.275177E-4,-0.4723282,0.5001221,-1.0174073,0.8708496,1.1087402,89.0
339,6.275177E-4,-0.4723282,0.5001221,-1.0174073,0.8708496,1.1087402,89.0
340,6.275177E-4,-0.4723282,0.5001221,-1.6439942,0.6945557,0.89421386,89.0
341,-0.24724007,-0.3524933,0.5020752,-1.6439942,0.6945557,0.89421386,89.0
342,-0.24724007,-0.3524933,0.5020752,-2.0443726,0.5076416,0.6966797,89.0
343,-0.39796257,-0.6645889,0.82744217,-2.0443726,0.5076416,0.6966797,89.0
344,-0.39796257,-0.6645889,0.82744217,-1.8001099,0.22196046,0.4609131,89.0
345,-0.49687386,-1.0538406,1.1890182,-1.8001099,0.22196046,0.4609131,89.0
346,-0.49687386,-1.0538406,1.1890182,-1.2372437,-0.04885254,0.15186767,89.0
347,-0.46540642,-1.0565109,1.2695999,-1.2372437,-0.04885254,0.15186767,89.0
348,-0.46540642,-1.0565109,1.2695999,-0.8750977,-0.14018555,-0.1996582,89.0
349,-0.22581673,-0.76651,1.1090164,-0.8750977,-0.14018555,-0.1996582,89.0
350,-0.22581673,-0.76651,1.1090164,-0.7678345,-0.14868164,-0.6403931,89.0
351,0.05807972,-0.4832306,0.9007492,-0.7678345,-0.14868164,-0.6403931,89.0
352,0.05807972,-0.4832306,0.9007492,-0.7657105,-0.1539917,-1.1692749,89.0
353,0.25895214,-0.19850922,0.66662216,-0.7657105,-0.1539917,-1.1692749,89.0
354,0.25895214,-0.19850922,0.66662216,-0.8995239,-0.107263185,-1.7586914,89.0
355,0.62075996,0.13424683,0.38092804,-0.8995239,-0.107263185,-1.7586914,89.0
356,0.62075996,0.13424683,0.38092804,-1.1565307,-0.029736329,-2.4659913,89.0
357,1.2356825,0.37648773,0.2981987,-1.1565307,-0.029736329,-2.4659913,89.0
358,1.2356825,0.37648773,0.2981987,-1.3328247,0.1444336,-3.1446168,89.0
359,1.6438198,0.37728882,0.7046623,-1.3328247,0.1444336,-3.1446168,89.0
360,1.6438198,0.37728882,0.7046623,-1.2744141,0.38869628,-3.7011108,89.0
361,1.4101486,0.489357,1.0961761,-1.2744141,0.38869628,-3.7011108,89.0
362,1.4101486,0.489357,1.0961761,-1.4337158,0.47896728,-4.1822023,89.0
363,0.84431744,1.1675491,1.0820427,-1.4337158,0.47896728,-4.1822023,89.0
364,0.84431744,1.1675491,1.0820427,-2.170752,0.6754395,-4.584705,89.0
365,0.629714,1.9245682,1.1589699,-2.170752,0.6754395,-4.584705,89.0
366,0.629714,1.9245682,1.1589699,-3.43667,1.0078491,-4.6675415,89.0
367,0.8944206,1.9671326,1.4151878,-3.43667,1.0078491,-4.6675415,89.0
368,0.8944206,1.9671326,1.4151878,-4.3956666,1.3381348,-4.4477053,89.0
369,0.9835539,1.3079453,1.5584335,-4.3956666,1.3381348,-4.4477053,89.0
370,0.9835539,1.3079453,1.5584335,-4.4583254,1.5218629,-3.99635,89.0
371,0.11869049,0.46503448,1.715805,-4.4583254,1.5218629,-3.99635,89.0
372,0.11869049,0.46503448,1.715805,-3.8614748,1.5579712,-3.4026856,89.0
373,-1.6331244,0.01890564,1.8869247,-3.8614748,1.5579712,-3.4026856,89.0
374,-1.6331244,0.01890564,1.8869247,-3.1329346,1.4220337,-2.7389283,89.0
375,-3.3543873,0.2958374,1.8900452,-3.1329346,1.4220337,-2.7389283,89.0
376,-3.3543873,0.2958374,1.8900452,-2.714502,1.3200806,-2.0103881,89.0
377,-4.2300425,0.8781738,1.7331161,-2.714502,1.3200806,-2.0103881,89.0
378,-4.2300425,0.8781738,1.7331161,-2.441565,1.2096313,-1.3190186,89.0
379,-4.1512094,1.2012253,1.5719757,-2.441565,1.2096313,-1.3190186,89.0
380,-4.1512094,1.2012253,1.5719757,-2.2026124,1.0598878,-0.78164065,89.0
381,-3.488546,1.1937103,1.4057121,-2.2026124,1.0598878,-0.78164065,89.0
382,-3.488546,1.1937103,1.4057121,-2.1378295,0.9239502,-0.33771974,89.0
383,-2.6180582,0.9600067,1.1047935,-2.1378295,0.9239502,-0.33771974,89.0
384,-2.6180582,0.9600067,1.1047935,-2.1314576,0.8464233,0.0063720704,89.0
385,-1.780396,0.5883179,0.73291016,-2.1314576,0.8464233,0.0063720704,89.0
386,-1.780396,0.5883179,0.73291016,-1.9254273,0.7147339,0.16885987,89.0
387,-1.0588875,0.21289825,0.4969864,-1.9254273,0.7147339,0.16885987,89.0
388,-1.0588875,0.21289825,0.4969864,-1.6121339,0.6265869,0.28674316,89.0
389,-0.6279087,-0.048103333,0.43782425,-1.6121339,0.6265869,0.28674316,89.0
390,-0.6279087,-0.048103333,0.43782425,-1.5239868,0.57561034,0.30267334,89.0
391,-0.65473175,-0.12519836,0.36052322,-1.5239868,0.57561034,0.30267334,89.0
392,-0.65473175,-0.12519836,0.36052322,-1.6779785,0.5968506,0.2081543,89.0
393,-0.9608216,-0.13314056,0.22719955,-1.6779785,0.5968506,0.2081543,89.0
394,-0.9608216,-0.13314056,0.22719955,-1.9689697,0.6839356,0.0180542,89.0
395,-1.2823291,-0.2976761,0.23797226,-1.9689697,0.6839356,0.0180542,89.0
396,-1.2823291,-0.2976761,0.23797226,-2.2227905,0.72960204,-0.15823975,89.0
397,-1.6647792,-0.666275,0.47169876,-2.2227905,0.72960204,-0.15823975,89.0
398,-1.6647792,-0.666275,0.47169876,-2.2801392,0.7614624,-0.36002198,89.0
399,-2.0992918,-1.0172348,0.77428436,-2.2801392,0.7614624,-0.36002198,89.0
400,-2.0992918,-1.0172348,0.77428436,-2.1080933,0.7168579,-0.5012695,89.0
401,-2.131814,-1.1324997,0.94831085,-2.1080933,0.7168579,-0.5012695,89.0
402,-2.131814,-1.1324997,0.94831085,-1.8001099,0.6414551,-0.63933104,89.0
403,-1.4328072,-1.0806808,0.8896637,-1.8001099,0.6414551,-0.63933104,89.0
404,-1.4328072,-1.0806808,0.8896637,-1.3498169,0.5586182,-0.7540283,89.0
405,-0.45056725,-1.0695343,0.71011734,-1.3498169,0.5586182,-0.7540283,89.0
406,-0.45056725,-1.0695343,0.71011734,-0.82730716,0.45454103,-0.85704345,89.0
407,0.2603104,-1.1641006,0.534462,-0.82730716,0.45454103,-0.85704345,89.0
408,0.2603104,-1.1641006,0.534462,-0.13275146,0.28355715,-0.84536135,89.0
409,0.9038415,-1.2082596,0.40385437,-0.13275146,0.28355715,-0.84536135,89.0
410,0.9038415,-1.2082596,0.40385437,0.6860596,-0.0180542,-0.68712157,89.0
411,1.7536519,-0.9757385,0.262352,0.6860596,-0.0180542,-0.68712157,89.0
412,1.7536519,-0.9757385,0.262352,1.2287476,-0.3706421,-0.46728516,89.0
413,2.090519,-0.5232773,0.20863724,1.2287476,-0.3706421,-0.46728516,89.0
414,2.090519,-0.5232773,0.20863724,1.5006226,-0.6085327,-0.2442627,89.0
415,1.1651154,-0.04647827,0.44094467,1.5006226,-0.6085327,-0.2442627,89.0
416,1.1651154,-0.04647827,0.44094467,1.9572877,-0.9239502,0.11682129,89.0
417,0.17861342,0.40525055,0.6599083,1.9572877,-0.9239502,0.11682129,89.0
418,0.17861342,0.40525055,0.6599083,2.7707887,-1.4188477,0.68499756,89.0
419,0.9160352,0.7484436,0.33537292,2.7707887,-1.4188477,0.68499756,89.0
420,0.9160352,0.7484436,0.33537292,3.6437624,-1.6843506,1.0768799,89.0
421,2.6524816,0.7055435,-0.4059105,3.6437624,-1.6843506,1.0768799,89.0
422,2.6524816,0.7055435,-0.4059105,4.5687747,-1.81604,1.269104,89.0
423,3.4862556,0.38197327,-1.0713577,4.5687747,-1.81604,1.269104,89.0
424,3.4862556,0.38197327,-1.0713577,5.8686767,-1.8956909,1.630188,89.0
425,3.1706448,0.5053482,-1.6064758,5.8686767,-1.8956909,1.630188,89.0
426,3.1706448,0.5053482,-1.6064758,7.077246,-2.0942872,2.1314576,89.0
427,2.5687304,1.141777,-2.625389,7.077246,-2.0942872,2.1314576,89.0
428,2.5687304,1.141777,-2.625389,8.061731,-2.1155274,2.3948364,89.0
429,2.0575237,2.2500763,-3.584015,8.061731,-2.1155274,2.3948364,89.0
430,2.0575237,2.2500763,-3.584015,5.9865603,-1.2361816,2.4256349,89.0
431,1.3374491,2.7113495,-3.537342,5.9865603,-1.2361816,2.4256349,89.0
432,1.3374491,2.7113495,-3.537342,5.700879,-0.65419924,2.8706176,89.0
433,-0.012853622,1.8253326,-2.6863098,5.700879,-0.65419924,2.8706176,89.0
434,-0.012853622,1.8253326,-2.6863098,4.8247194,-0.72641605,2.913098,89.0
435,-1.3190107,1.303772,-2.2956543,4.8247194,-0.72641605,2.913098,89.0
436,-1.3190107,1.303772,-2.2956543,3.161609,-0.13275146,2.6157348,89.0
437,-1.7437706,1.1784058,-1.5786133,3.161609,-0.13275146,2.6157348,89.0
438,-1.7437706,1.1784058,-1.5786133,1.5473511,0.77739257,2.7516725,89.0
439,-1.8291106,0.6219101,-0.31757736,1.5473511,0.77739257,2.7516725,89.0
440,-1.8291106,0.6219101,-0.31757736,0.61702883,0.7147339,2.9300904,89.0
441,-1.7604561,-0.029312134,-0.026313782,0.61702883,0.7147339,2.9300904,89.0
442,-1.7604561,-0.029312134,-0.026313782,-0.4333008,0.81881106,2.6762695,89.0
443,-0.9901643,-0.39946365,-0.76371384,-0.4333008,0.81881106,2.6762695,89.0
444,-0.9901643,-0.39946365,-0.76371384,-1.4252198,1.0354614,2.3969605,89.0
445,0.3627391,-0.6764679,-1.3010101,-1.4252198,1.0354614,2.3969605,89.0
446,0.3627391,-0.6764679,-1.3010101,-2.0210083,0.9388184,2.2737672,89.0
447,1.6023984,-1.0419159,-0.9596443,-2.0210083,0.9388184,2.2737672,89.0
448,1.6023984,-1.0419159,-0.9596443,-2.355542,0.991919,2.1006591,89.0
449,1.6023984,-1.0419159,-0.9596443,-2.355542,0.991919,2.1006591,88.0
450,2.063633,-1.5061188,-0.17901993,-2.355542,0.991919,2.1006591,88.0
451,2.063633,-1.5061188,-0.17901993,-2.4893556,0.83049315,2.0093262,88.0
452,1.8385649,-1.8862686,0.21984482,-2.4893556,0.83049315,2.0093262,88.0
453,1.8385649,-1.8862686,0.21984482,-2.4851074,0.6265869,1.8680786,88.0
454,1.4864159,-2.0212173,0.21215439,-2.4851074,0.6265869,1.8680786,88.0
455,1.4864159,-2.0212173,0.21215439,-2.182434,0.44816896,1.6726685,88.0
456,1.1770353,-1.9272995,0.43388367,-2.182434,0.44816896,1.6726685,88.0
457,1.1770353,-1.9272995,0.43388367,-1.4230957,0.33134767,1.7098389,88.0
458,0.744277,-1.6720734,0.880188,-1.4230957,0.33134767,1.7098389,88.0
459,0.744277,-1.6720734,0.880188,-0.62552494,0.11044922,1.722583,88.0
460,0.38059044,-1.2582245,0.854908,-0.62552494,0.11044922,1.722583,88.0
461,0.38059044,-1.2582245,0.854908,-0.1901001,-0.012744141,1.4730103,88.0
462,0.47738552,-0.8881378,0.3552513,-0.1901001,-0.012744141,1.4730103,88.0
463,0.47738552,-0.8881378,0.3552513,-0.22833252,-0.0361084,1.1809571,88.0
464,0.847106,-0.8785248,0.0476532,-0.22833252,-0.0361084,1.1809571,88.0
465,0.847106,-0.8785248,0.0476532,-0.26125488,-0.03079834,0.8092529,88.0
466,1.0228024,-1.069107,0.092796326,-0.26125488,-0.03079834,0.8092529,88.0
467,1.0228024,-1.069107,0.092796326,-0.19434814,-0.058410645,0.28674316,88.0
468,1.055376,-1.0424194,0.11550903,-0.19434814,-0.058410645,0.28674316,88.0
469,1.055376,-1.0424194,0.11550903,-0.23682861,0.045666505,-0.3802002,88.0
470,1.2675066,-0.8957977,0.086265564,-0.23682861,0.045666505,-0.3802002,88.0
471,1.2675066,-0.8957977,0.086265564,-0.41206056,0.2081543,-1.1342286,88.0
472,1.524271,-0.9912567,0.3432541,-0.41206056,0.2081543,-1.1342286,88.0
473,1.524271,-0.9912567,0.3432541,-0.37595215,0.29311523,-1.8022339,88.0
474,1.2448196,-1.1399155,0.7919998,-0.37595215,0.29311523,-1.8022339,88.0
475,1.2448196,-1.1399155,0.7919998,0.045666505,0.17735596,-2.3098755,88.0
476,0.31712055,-0.7727127,1.0505676,0.045666505,0.17735596,-2.3098755,88.0
477,0.31712055,-0.7727127,1.0505676,0.70942384,0.090270996,-2.6645875,88.0
478,-0.6522484,0.11833191,0.92435455,0.70942384,0.090270996,-2.6645875,88.0
479,-0.6522484,0.11833191,0.92435455,1.2436157,-0.0998291,-2.9003541,88.0
480,-0.9624853,1.0028534,0.4355011,1.2436157,-0.0998291,-2.9003541,88.0
481,-0.9624853,1.0028534,0.4355011,1.7055908,-0.25806886,-3.2476318,88.0
482,-0.47620106,1.4732208,-0.068359375,1.7055908,-0.25806886,-3.2476318,88.0
483,-0.47620106,1.4732208,-0.068359375,2.1590698,-0.47790527,-3.521631,88.0
484,0.1839199,1.5123978,-0.32984543,2.1590698,-0.47790527,-3.521631,88.0
485,0.1839199,1.5123978,-0.32984543,2.5063477,-0.6977417,-3.615088,88.0
486,0.41885185,1.3653641,-0.43663025,2.5063477,-0.6977417,-3.615088,88.0
487,0.41885185,1.3653641,-0.43663025,2.6794555,-0.84748536,-3.5779176,88.0
488,0.09251499,1.3205109,-0.6140747,2.6794555,-0.84748536,-3.5779176,88.0
489,0.09251499,1.3205109,-0.6140747,2.6900756,-0.9717407,-3.3920655,88.0
490,-0.8027706,1.5935669,-0.9829712,2.6900756,-0.9717407,-3.3920655,88.0
491,-0.8027706,1.5935669,-0.9829712,2.35448,-1.1544068,-3.1446168,88.0
492,-1.8632374,2.282898,-1.3952179,2.35448,-1.1544068,-3.1446168,88.0
493,-1.8632374,2.282898,-1.3952179,1.2712281,-1.2011353,-2.8599975,88.0
494,-2.474245,2.9811249,-1.5690536,1.2712281,-1.2011353,-2.8599975,88.0
495,-2.474245,2.9811249,-1.5690536,-0.17416993,-0.96218264,-2.5190918,88.0
496,-2.5699358,3.008583,-1.3166542,-0.17416993,-0.96218264,-2.5190918,88.0
497,-2.5699358,3.008583,-1.3166542,-1.1692749,-0.72216797,-2.2281005,88.0
498,-2.4808264,2.243782,-0.7854996,-1.1692749,-0.72216797,-2.2281005,88.0
499,-2.4808264,2.243782,-0.7854996,-1.5749635,-0.60109866,-1.989148,88.0
500,-2.429278,1.285469,-0.26399612,-1.5749635,-0.60109866,-1.989148,88.0
501,-2.429278,1.285469,-0.26399612,-2.071985,-0.4630371,-1.7937378,88.0
502,-2.375246,0.6630554,0.12820816,-2.071985,-0.4630371,-1.7937378,88.0
503,-2.375246,0.6630554,0.12820816,-3.075586,-0.09664307,-1.5250489,88.0
504,-2.3305554,-0.01739502,0.2913742,-3.075586,-0.09664307,-1.5250489,88.0
505,-2.3305554,-0.01739502,0.2913742,-2.6677735,-0.078588866,-1.6514282,88.0
506,-2.238175,-0.49066162,0.51106644,-2.6677735,-0.078588866,-1.6514282,88.0
507,-2.238175,-0.49066162,0.51106644,-2.984253,0.23789063,-1.4687623,88.0
508,-1.991004,-0.5276146,0.6886139,-2.984253,0.23789063,-1.4687623,88.0
509,-1.991004,-0.5276146,0.6886139,-2.5095336,0.27718505,-1.2871583,88.0
510,-1.7205501,-0.5030365,0.91200256,-2.5095336,0.27718505,-1.2871583,88.0
511,-1.7205501,-0.5030365,0.91200256,-2.5647583,0.42268068,-1.3338867,88.0
512,-1.6042233,-0.5591507,1.2159805,-2.5647583,0.42268068,-1.3338867,88.0
513,-1.6042233,-0.5591507,1.2159805,-2.4256349,0.53737795,-1.2361816,88.0
514,-1.6565354,-0.8828659,1.5714531,-2.4256349,0.53737795,-1.2361816,88.0
515,-1.6565354,-0.8828659,1.5714531,-1.9668458,0.52038574,-1.1108643,88.0
516,-1.6892419,-1.1958466,1.785614,-1.9668458,0.52038574,-1.1108643,88.0
517,-1.6892419,-1.1958466,1.785614,-1.3742431,0.4258667,-0.9653687,88.0
518,-1.3753314,-1.2139282,1.7192879,-1.3742431,0.4258667,-0.9653687,88.0
519,-1.3753314,-1.2139282,1.7192879,-0.7349121,0.33984375,-0.7317261,88.0
520,-0.55157137,-1.0844345,1.4786034,-0.7349121,0.33984375,-0.7317261,88.0
521,-0.55157137,-1.0844345,1.4786034,-0.090270996,0.27293703,-0.4428589,88.0
522,0.622134,-0.75933075,1.1780243,-0.090270996,0.27293703,-0.4428589,88.0
523,0.622134,-0.75933075,1.1780243,0.124255374,0.20284425,-0.08496094,88.0
524,1.8483908,-0.15813446,0.8080826,0.124255374,0.20284425,-0.08496094,88.0
525,1.8483908,-0.15813446,0.8080826,-0.124255374,0.2081543,0.27718505,88.0
526,2.641347,0.33856964,0.4920807,-0.124255374,0.2081543,0.27718505,88.0
527,2.641347,0.33856964,0.4920807,-0.36108398,0.19541016,0.5936646,88.0
528,2.6475992,0.44761658,0.40818787,-0.36108398,0.19541016,0.5936646,88.0
529,2.6475992,0.44761658,0.40818787,-0.42374268,0.08602295,0.97067875,88.0
530,2.0855846,0.37813568,0.4385147,-0.42374268,0.08602295,0.97067875,88.0
531,2.0855846,0.37813568,0.4385147,-0.34090576,-0.07965088,1.3689331,88.0
532,1.2559557,0.4532013,0.35409546,-0.34090576,-0.07965088,1.3689331,88.0
533,1.2559557,0.4532013,0.35409546,-0.11151123,-0.271875,1.7491333,88.0
534,0.30557013,0.66298676,0.060573578,-0.11151123,-0.271875,1.7491333,88.0
535,0.30557013,0.66298676,0.060573578,0.46516114,-0.53100586,2.1431396,88.0
536,-0.18985796,0.8441696,-0.43309784,0.46516114,-0.53100586,2.1431396,88.0
537,-0.18985796,0.8441696,-0.43309784,1.2829102,-0.7688965,2.427759,88.0
538,0.21659517,0.95158386,-1.0166931,1.2829102,-0.7688965,2.427759,88.0
539,0.21659517,0.95158386,-1.0166931,1.7831177,-0.815625,2.5626342,88.0
540,1.0438938,0.98386383,-1.5346069,1.7831177,-0.815625,2.5626342,88.0
541,1.0438938,0.98386383,-1.5346069,2.1017213,-0.78376466,2.6741455,88.0
542,1.5019975,0.94088745,-1.8180313,2.1017213,-0.78376466,2.6741455,88.0
543,1.5019975,0.94088745,-1.8180313,2.4256349,-0.7083618,2.5817506,88.0
544,1.3671494,0.88952637,-1.8464546,2.4256349,-0.7083618,2.5817506,88.0
545,1.3671494,0.88952637,-1.8464546,2.4245727,-0.62977296,2.6157348,88.0
546,0.9833803,0.72049713,-1.6842461,2.4245727,-0.62977296,2.6157348,88.0
547,0.9833803,0.72049713,-1.6842461,2.1123414,-0.46622315,2.5966187,88.0
548,0.7326393,0.3405838,-1.4941254,2.1123414,-0.46622315,2.5966187,88.0
549,0.7326393,0.3405838,-1.4941254,1.6652344,-0.3812622,2.5445802,88.0
550,0.766397,-0.09556198,-1.4394646,1.6652344,-0.3812622,2.5445802,88.0
551,0.766397,-0.09556198,-1.4394646,1.1894531,-0.2888672,2.5010376,88.0
552,0.92793703,-0.3187256,-1.4947014,1.1894531,-0.2888672,2.5010376,88.0
553,0.92793703,-0.3187256,-1.4947014,0.815625,-0.25063476,2.34386,88.0
554,0.98408556,-0.25248718,-1.5569687,0.815625,-0.25063476,2.34386,88.0
555,0.98408556,-0.25248718,-1.5569687,0.5256958,-0.19434814,2.2196045,88.0
556,0.8719487,-0.13509369,-1.537983,0.5256958,-0.19434814,2.2196045,88.0
557,0.8719487,-0.13509369,-1.537983,0.5256958,-0.19434814,2.2196045,89.0
558,0.8719487,-0.13509369,-1.537983,0.31010744,-0.18691407,2.1165893,89.0
559,0.6600952,-0.14250183,-1.4063759,0.31010744,-0.18691407,2.1165893,89.0
560,0.6600952,-0.14250183,-1.4063759,0.038232423,-0.24851075,2.0082643,89.0
561,0.4046631,-0.18125153,-1.1965714,0.038232423,-0.24851075,2.0082643,89.0
562,0.4046631,-0.18125153,-1.1965714,-0.38975832,-0.38869628,1.893567,89.0
563,0.21187687,-0.18154907,-0.93911743,-0.38975832,-0.38869628,1.893567,89.0
564,0.21187687,-0.18154907,-0.93911743,-0.80394286,-0.5140137,1.8213501,89.0
565,0.14436722,-0.29080582,-0.6319809,-0.80394286,-0.5140137,1.8213501,89.0
566,0.14436722,-0.29080582,-0.6319809,-0.87403566,-0.63826907,1.7055908,89.0
567,0.10334778,-0.5162277,-0.28227997,-0.87403566,-0.63826907,1.7055908,89.0
568,0.10334778,-0.5162277,-0.28227997,-0.8092529,-0.7625244,1.63125,89.0
569,-0.01444149,-0.6930084,-0.039798737,-0.8092529,-0.7625244,1.63125,89.0
570,-0.01444149,-0.6930084,-0.039798737,-0.88253176,-0.8209351,1.5303589,89.0
571,-0.1933775,-0.8333359,-0.009391785,-0.88253176,-0.8209351,1.5303589,89.0
572,-0.1933775,-0.8333359,-0.009391785,-0.84323734,-0.8623535,1.3179566,89.0
573,-0.30079556,-1.0692596,0.022468567,-0.84323734,-0.8623535,1.3179566,89.0
574,-0.30079556,-1.0692596,0.022468567,-0.631897,-0.811377,1.0673218,89.0
575,-0.26091194,-1.2908554,0.17821503,-0.631897,-0.811377,1.0673218,89.0
576,-0.26091194,-1.2908554,0.17821503,-0.44710693,-0.6956177,0.79226077,89.0
577,-0.1440568,-1.2950592,0.28041458,-0.44710693,-0.6956177,0.79226077,89.0
578,-0.1440568,-1.2950592,0.28041458,-0.40250245,-0.4959595,0.42161867,89.0
579,-0.012181282,-1.1343155,0.222332,-0.40250245,-0.4959595,0.42161867,89.0
580,-0.012181282,-1.1343155,0.222332,-0.44604492,-0.29523927,-0.023364259,89.0
581,0.24464941,-1.0089569,0.0690155,-0.44604492,-0.29523927,-0.023364259,89.0
582,0.24464941,-1.0089569,0.0690155,-0.42374268,-0.087084964,-0.540564,89.0
583,0.764555,-1.0100479,-0.012023926,-0.42374268,-0.087084964,-0.540564,89.0
584,0.764555,-1.0100479,-0.012023926,-0.29311523,0.1178833,-1.0938721,89.0
585,1.4375963,-1.0306702,0.23147202,-0.29311523,0.1178833,-1.0938721,89.0
586,1.4375963,-1.0306702,0.23147202,-0.107263185,0.42905274,-1.6429322,89.0
587,1.9332066,-0.95588684,0.7274132,-0.107263185,0.42905274,-1.6429322,89.0
588,1.9332066,-0.95588684,0.7274132,0.016992187,0.634021,-2.1134033,89.0
589,2.0995197,-0.6936264,0.9642792,0.016992187,0.634021,-2.1134033,89.0
590,2.0995197,-0.6936264,0.9642792,0.13487549,0.7497803,-2.623169,89.0
591,1.9697771,-0.2928238,0.88718414,0.13487549,0.7497803,-2.623169,89.0
592,1.9697771,-0.2928238,0.88718414,0.2782471,0.79119873,-3.0490358,89.0
593,1.6434612,-0.030532837,1.126751,0.2782471,0.79119873,-3.0490358,89.0
594,1.6434612,-0.030532837,1.126751,0.6265869,0.95581055,-3.2168336,89.0
595,1.0984964,0.044578552,1.8644257,0.6265869,0.95581055,-3.2168336,89.0
596,1.0984964,0.044578552,1.8644257,0.7168579,0.8867798,-3.0108032,89.0
597,0.33314228,0.5905609,2.2223015,0.7168579,0.8867798,-3.0108032,89.0
598,0.33314228,0.5905609,2.2223015,0.3802002,0.8814697,-3.087268,89.0
599,-0.38298607,2.1373901,1.9309769,0.3802002,0.8814697,-3.087268,89.0
600,-0.38298607,2.1373901,1.9309769,-0.39400634,0.8612915,-3.1467407,89.0
601,-0.7084646,3.1886978,1.5606003,-0.39400634,0.8612915,-3.1467407,89.0
602,-0.7084646,3.1886978,1.5606003,-1.8011719,1.1182984,-2.18031,89.0
603,-0.98107815,2.3689423,1.2985535,-1.8011719,1.1182984,-2.18031,89.0
604,-0.98107815,2.3689423,1.2985535,-2.7283082,1.2786621,-1.8712647,89.0
605,-1.674181,0.973999,1.0471802,-2.7283082,1.2786621,-1.8712647,89.0
606,-1.674181,0.973999,1.0471802,-3.4218018,1.355127,-1.5770874,89.0
607,-2.5594254,0.39376068,0.7540779,-3.4218018,1.355127,-1.5770874,89.0
608,-2.5594254,0.39376068,0.7540779,-4.059009,1.5165528,-1.1278565,89.0
609,-3.1926937,0.30862427,0.6534195,-4.059009,1.5165528,-1.1278565,89.0
610,-3.1926937,0.30862427,0.6534195,-4.414783,1.6875366,-0.74022216,89.0
611,-3.3475633,-0.13298798,0.7185974,-4.414783,1.6875366,-0.74022216,89.0
612,-3.3475633,-0.13298798,0.7185974,-4.0175905,1.7342652,-0.24957275,89.0
613,-3.1805043,-0.7228317,0.7849121,-4.0175905,1.7342652,-0.24957275,89.0
614,-3.1805043,-0.7228317,0.7849121,-3.2444458,1.5208008,-0.14018555,89.0
615,-2.7158756,-0.74897766,0.8863144,-3.2444458,1.5208008,-0.14018555,89.0
616,-2.7158756,-0.74897766,0.8863144,-2.5955567,1.4857544,-0.13806152,89.0
617,-2.0023513,-0.44376373,0.93579483,-2.5955567,1.4857544,-0.13806152,89.0
618,-2.0023513,-0.44376373,0.93579483,-2.0380006,1.3944215,0.0053100586,89.0
619,-1.4642954,-0.26028442,0.8824463,-2.0380006,1.3944215,0.0053100586,89.0
620,-1.4642954,-0.26028442,0.8824463,-1.7342652,1.3179566,-0.11682129,89.0
621,-1.2395153,-0.23506165,0.8256111,-1.7342652,1.3179566,-0.11682129,89.0
622,-1.2395153,-0.23506165,0.8256111,-1.6588624,1.3190186,-0.23364258,89.0
623,-1.1937852,-0.30775452,0.8565445,-1.6588624,1.3190186,-0.23364258,89.0
624,-1.1937852,-0.30775452,0.8565445,-1.4114136,1.2499878,-0.3419678,89.0
625,-1.1757679,-0.38871765,0.9774933,-1.4114136,1.2499878,-0.3419678,89.0
626,-1.1757679,-0.38871765,0.9774933,-1.1076783,1.178833,-0.5140137,89.0
627,-1.1618423,-0.26379395,1.0291023,-1.1076783,1.178833,-0.5140137,89.0
628,-1.1618423,-0.26379395,1.0291023,-0.79119873,1.0864381,-0.72004396,89.0
629,-1.1251526,-0.095947266,0.9931526,-0.79119873,1.0864381,-0.72004396,89.0
630,-1.1251526,-0.095947266,0.9931526,-0.4630371,1.0354614,-0.7975708,89.0
631,-1.030652,-0.24421692,0.9516754,-0.4630371,1.0354614,-0.7975708,89.0
632,-1.030652,-0.24421692,0.9516754,-0.271875,0.9653687,-0.84323734,89.0
633,-0.9470682,-0.48962402,0.87397766,-0.271875,0.9653687,-0.84323734,89.0
634,-0.9470682,-0.48962402,0.87397766,-0.17416993,0.83474123,-0.8952759,89.0
635,-0.8247199,-0.552063,0.7755852,-0.17416993,0.83474123,-0.8952759,89.0
636,-0.8247199,-0.552063,0.7755852,-0.2081543,0.70092773,-0.8793457,89.0
637,-0.5402937,-0.5779419,0.7251587,-0.2081543,0.70092773,-0.8793457,89.0
638,-0.5402937,-0.5779419,0.7251587,-0.26656494,0.54906005,-0.8050049,89.0
639,-0.08433461,-0.67417145,0.72540283,-0.26656494,0.54906005,-0.8050049,89.0
640,-0.08433461,-0.67417145,0.72540283,-0.32709962,0.39188233,-0.6818115,89.0
641,0.48126292,-0.8065872,0.7092514,-0.32709962,0.39188233,-0.6818115,89.0
642,0.48126292,-0.8065872,0.7092514,-0.36639404,0.23151855,-0.54693604,89.0
643,0.99840164,-0.9656296,0.7045593,-0.36639404,0.23151855,-0.54693604,89.0
644,0.99840164,-0.9656296,0.7045593,-0.26019287,0.021240234,-0.3993164,89.0
645,1.0506134,-1.0961761,0.77430344,-0.26019287,0.021240234,-0.3993164,89.0
646,1.0506134,-1.0961761,0.77430344,0.033984374,-0.1731079,-0.22302246,89.0
647,0.7149291,-1.0326385,0.79789734,0.033984374,-0.1731079,-0.22302246,89.0
648,0.7149291,-1.0326385,0.79789734,0.63720703,-0.44923097,0.06478272,89.0
649,0.717854,-0.64099884,0.5214386,0.63720703,-0.44923097,0.06478272,89.0
650,0.717854,-0.64099884,0.5214386,1.448584,-0.7582764,0.36533204,89.0
651,0.96532345,0.08429718,-0.09554291,1.448584,-0.7582764,0.36533204,89.0
652,0.96532345,0.08429718,-0.09554291,2.1834962,-0.99722904,0.5607422,89.0
653,0.88407516,0.91098785,-0.8167534,2.1834962,-0.99722904,0.5607422,89.0
654,0.88407516,0.91098785,-0.8167534,2.885486,-1.2266235,0.8952759,89.0
655,0.71148396,1.434494,-1.4063225,2.885486,-1.2266235,0.8952759,89.0
656,0.71148396,1.434494,-1.4063225,3.4271119,-1.4400879,1.2521118,89.0
657,0.9203348,1.6324005,-1.8370705,3.4271119,-1.4400879,1.2521118,89.0
658,0.9203348,1.6324005,-1.8370705,3.802002,-1.5770874,1.536731,89.0
659,1.4542732,1.7726898,-2.0573387,3.802002,-1.5770874,1.536731,89.0
660,1.4542732,1.7726898,-2.0573387,3.9623659,-1.6408081,1.7937378,89.0
661,1.8509431,1.9617081,-2.041401,3.9623659,-1.6408081,1.7937378,89.0
662,1.8509431,1.9617081,-2.041401,3.7531495,-1.6726685,2.0093262,89.0
663,1.7487473,2.162094,-1.877533,3.7531495,-1.6726685,2.0093262,89.0
664,1.7487473,2.162094,-1.877533,3.09364,-1.6142578,2.1909301,89.0
665,1.7487473,2.162094,-1.877533,3.09364,-1.6142578,2.1909301,88.0
666,1.2678943,2.1208153,-1.622364,3.09364,-1.6142578,2.1909301,88.0
667,1.2678943,2.1208153,-1.622364,2.252527,-1.4889405,2.3321779,88.0
668,0.7774868,1.5059166,-1.314579,2.252527,-1.4889405,2.3321779,88.0
669,0.7774868,1.5059166,-1.314579,1.6100098,-1.4007934,2.5796266,88.0
670,0.48307323,0.5723343,-1.1609421,1.6100098,-1.4007934,2.5796266,88.0
671,0.48307323,0.5723343,-1.1609421,1.2128174,-1.4071655,2.707068,88.0
672,0.41078758,0.021087646,-1.3509216,1.2128174,-1.4071655,2.707068,88.0
673,0.41078758,0.021087646,-1.3509216,0.81668705,-1.3731812,2.7707887,88.0
674,0.47281933,-0.08692551,-1.7000122,0.81668705,-1.3731812,2.7707887,88.0
675,0.47281933,-0.08692551,-1.7000122,0.5511841,-1.3147706,2.7909667,88.0
676,0.5385828,-0.21853638,-1.9168701,0.5511841,-1.3147706,2.7909667,88.0
677,0.5385828,-0.21853638,-1.9168701,0.6149048,-1.3137085,2.6805177,88.0
678,0.61161566,-0.5400162,-1.9503899,0.6149048,-1.3137085,2.6805177,88.0
679,0.61161566,-0.5400162,-1.9503899,0.8336792,-1.2563599,2.529712,88.0
680,0.72408295,-0.8715515,-1.8822365,0.8336792,-1.2563599,2.529712,88.0
681,0.72408295,-0.8715515,-1.8822365,1.0535157,-1.1374146,2.3109376,88.0
682,0.8022156,-1.0008545,-1.7552147,1.0535157,-1.1374146,2.3109376,88.0
683,0.8022156,-1.0008545,-1.7552147,1.1597168,-0.99510497,2.071985,88.0
684,0.7211914,-0.9185791,-1.564682,1.1597168,-0.99510497,2.071985,88.0
685,0.7211914,-0.9185791,-1.564682,1.1055542,-0.815625,1.8447144,88.0
686,0.6135864,-0.8752823,-1.401783,1.1055542,-0.815625,1.8447144,88.0
687,0.6135864,-0.8752823,-1.401783,1.0598878,-0.72323,1.7236451,88.0
688,0.09361553,-0.6734543,-1.168705,1.0598878,-0.72323,1.7236451,88.0
689,0.09361553,-0.6734543,-1.168705,0.9483765,-0.5150757,1.3370727,88.0
690,0.045851707,-0.6394272,-1.0531654,0.9483765,-0.5150757,1.3370727,88.0
691,0.045851707,-0.6394272,-1.0531654,0.91757816,-0.4619751,1.1660889,88.0
692,0.35107327,-0.46103668,-0.855423,0.91757816,-0.4619751,1.1660889,88.0
693,0.35107327,-0.46103668,-0.855423,0.6202149,-0.32391357,0.6425171,88.0
694,0.62121487,-0.4936447,-0.7143898,0.6202149,-0.32391357,0.6425171,88.0
695,0.62121487,-0.4936447,-0.7143898,0.49277344,-0.2623169,0.48109132,88.0
696,1.5035763,-0.9185028,-0.45251846,0.49277344,-0.2623169,0.48109132,88.0
697,1.5035763,-0.9185028,-0.45251846,0.40037844,-0.22408448,-0.02442627,88.0
698,1.403862,-0.8901367,-0.35049057,0.40037844,-0.22408448,-0.02442627,88.0
699,1.403862,-0.8901367,-0.35049057,0.43754885,-0.24744873,-0.16885987,88.0
700,1.3427916,-0.92295074,-0.09732437,0.43754885,-0.24744873,-0.16885987,88.0
701,1.3427916,-0.92295074,-0.09732437,0.59472656,-0.17416993,-0.5299439,88.0
702,1.1003075,-0.76966095,-0.061344147,0.59472656,-0.17416993,-0.5299439,88.0
703,1.1003075,-0.76966095,-0.061344147,0.59472656,-0.13168946,-0.68712157,88.0
704,1.0189304,-0.6640701,0.15635681,0.59472656,-0.13168946,-0.68712157,88.0
705,1.0189304,-0.6640701,0.15635681,0.20709229,-0.032922365,-1.1724609,88.0
706,0.566597,-0.28311157,0.15001297,0.20709229,-0.032922365,-1.1724609,88.0
707,0.566597,-0.28311157,0.15001297,0.02442627,0.03717041,-1.3455689,88.0
708,-0.57891273,0.11903381,0.1961708,0.02442627,0.03717041,-1.3455689,88.0
709,-0.57891273,0.11903381,0.1961708,-0.38338622,0.270813,-1.6015137,88.0
710,-0.805171,0.18467712,0.2734909,-0.38338622,0.270813,-1.6015137,88.0
711,-0.805171,0.18467712,0.2734909,-0.45560303,0.2899292,-1.7363892,88.0
712,-0.32577705,-0.052612305,0.41016388,-0.45560303,0.2899292,-1.7363892,88.0
713,-0.32577705,-0.052612305,0.41016388,-0.72960204,0.39188233,-2.261023,88.0
714,-0.12264538,0.19290924,0.45531464,-0.72960204,0.39188233,-2.261023,88.0
715,-0.12264538,0.19290924,0.45531464,-0.8602295,0.42055663,-2.3969605,88.0
716,0.2258215,0.3336029,0.4712448,-0.8602295,0.42055663,-2.3969605,88.0
717,0.2258215,0.3336029,0.4712448,-1.0312134,0.4895874,-2.6996338,88.0
718,-0.16543674,0.42634583,0.52913284,-1.0312134,0.4895874,-2.6996338,88.0
719,-0.16543674,0.42634583,0.52913284,-0.90908206,0.48215333,-2.7665405,88.0
720,-0.56888485,0.27396393,0.577507,-0.90908206,0.48215333,-2.7665405,88.0
721,-0.56888485,0.27396393,0.577507,-0.45560303,0.43861085,-2.8865478,88.0
722,-0.78457546,0.27467346,0.62358856,-0.45560303,0.43861085,-2.8865478,88.0
723,-0.78457546,0.27467346,0.62358856,-0.013806152,0.36745605,-2.9332764,88.0
724,-1.2883663,0.6651001,0.5944023,-0.013806152,0.36745605,-2.9332764,88.0
725,-1.2883663,0.6651001,0.5944023,0.3058594,0.27293703,-2.792029,88.0
726,-1.657793,0.85868835,0.43181992,0.3058594,0.27293703,-2.792029,88.0
727,-1.657793,0.85868835,0.43181992,0.38763428,0.27612305,-2.6794555,88.0
728,-2.5280657,1.394249,0.06980896,0.38763428,0.27612305,-2.6794555,88.0
729,-2.5280657,1.394249,0.06980896,0.59897465,0.1901001,-2.350232,88.0
730,-2.5068889,1.4276428,-0.1523552,0.59897465,0.1901001,-2.350232,88.0
731,-2.5068889,1.4276428,-0.1523552,0.6531372,0.18691407,-2.2440307,88.0
732,-2.232904,1.4380646,-0.44988632,0.6531372,0.18691407,-2.2440307,88.0
733,-2.232904,1.4380646,-0.44988632,0.61702883,0.16461182,-1.991272,88.0
734,-1.5961256,0.9599838,-0.5057335,0.61702883,0.16461182,-1.991272,88.0
735,-1.5961256,0.9599838,-0.5057335,0.4598511,0.18266602,-1.7034668,88.0
736,-1.0735312,0.22612762,-0.26846695,0.4598511,0.18266602,-1.7034668,88.0
737,-1.0735312,0.22612762,-0.26846695,0.21452637,0.15080567,-1.4740723,88.0
738,-0.80034065,-0.30575562,0.12651062,0.21452637,0.15080567,-1.4740723,88.0
739,-0.80034065,-0.30575562,0.12651062,0.124255374,0.14337158,-1.3030884,88.0
740,-0.73890495,-0.48646545,0.48000336,0.124255374,0.14337158,-1.3030884,88.0
741,-0.73890495,-0.48646545,0.48000336,0.23895264,0.06903076,-1.1236085,88.0
742,-0.9360213,-0.4712906,0.67290497,0.23895264,0.06903076,-1.1236085,88.0
743,-0.9360213,-0.4712906,0.67290497,0.30054933,0.09239502,-0.9388184,88.0
744,-1.7882333,-0.28594208,0.67879105,0.30054933,0.09239502,-0.9388184,88.0
745,-1.7882333,-0.28594208,0.67879105,0.41418457,0.07327881,-0.5543701,88.0
746,-1.892159,-0.15797424,0.47146225,0.41418457,0.07327881,-0.5543701,88.0
747,-1.892159,-0.15797424,0.47146225,0.3791382,0.11257324,-0.4258667,88.0
748,-2.3207707,0.047546387,0.19205093,0.3791382,0.11257324,-0.4258667,88.0
749,-2.3207707,0.047546387,0.19205093,0.3090454,0.14655761,-0.13912354,88.0
750,-2.4160771,0.26457214,-0.13036728,0.3090454,0.14655761,-0.13912354,88.0
751,-2.4160771,0.26457214,-0.13036728,0.3419678,0.12319336,0.11044922,88.0
752,-1.9997196,0.41062927,-0.46094894,0.3419678,0.12319336,0.11044922,88.0
753,-1.9997196,0.41062927,-0.46094894,0.5161377,0.10301514,0.29736328,88.0
754,-1.0860794,0.37296295,-0.75042343,0.5161377,0.10301514,0.29736328,88.0
755,-1.0860794,0.37296295,-0.75042343,0.7412842,0.10407715,0.4258667,88.0
756,0.0635829,0.18523407,-0.9346161,0.7412842,0.10407715,0.4258667,88.0
757,0.0635829,0.18523407,-0.9346161,0.89102787,0.12850343,0.5299439,88.0
758,1.2482905,-0.028862,-0.97929764,0.89102787,0.12850343,0.5299439,88.0
759,1.2482905,-0.028862,-0.97929764,0.90802,0.15717773,0.6786255,88.0
760,2.4076169,-0.07846069,-0.96971893,0.90802,0.15717773,0.6786255,88.0
761,2.4076169,-0.07846069,-0.96971893,0.81243896,0.15080567,0.8315552,88.0
762,3.6003609,0.026901245,-0.8583298,0.81243896,0.15080567,0.8315552,88.0
763,3.6003609,0.026901245,-0.8583298,0.66481936,0.26444092,1.0184692,88.0
764,4.9209137,-0.034057617,-0.6849899,0.66481936,0.26444092,1.0184692,88.0
765,4.9209137,-0.034057617,-0.6849899,0.33028564,0.20284425,1.2096313,88.0
766,4.974683,-0.012496948,-0.47275925,0.33028564,0.20284425,1.2096313,88.0
767,4.974683,-0.012496948,-0.47275925,-0.17947999,0.11363526,1.351941,88.0
768,2.8499246,0.40608978,-0.29380798,-0.17947999,0.11363526,1.351941,88.0
769,2.8499246,0.40608978,-0.29380798,-0.5363159,-0.095581055,1.7374512,88.0
770,0.12991524,0.8482857,-0.09025955,-0.5363159,-0.095581055,1.7374512,88.0
771,0.12991524,0.8482857,-0.09025955,-0.38975832,-0.36320803,2.247217,88.0
772,-1.2943587,0.8652115,-0.012001038,-0.38975832,-0.36320803,2.247217,88.0
773,-1.2943587,0.8652115,-0.012001038,0.04885254,-0.64570314,2.5828125,88.0
774,-1.0557384,0.5753479,-0.2641678,0.04885254,-0.64570314,2.5828125,88.0
775,-1.0557384,0.5753479,-0.2641678,0.33240968,-0.8442993,2.624231,88.0
776,-1.0557384,0.5753479,-0.2641678,0.33240968,-0.8442993,2.624231,89.0
777,0.140419,0.19521332,-0.7791214,0.33240968,-0.8442993,2.624231,89.0
778,0.140419,0.19521332,-0.7791214,0.43011475,-0.8708496,2.5127199,89.0
779,1.1453795,-0.30957794,-1.1862984,0.43011475,-0.8708496,2.5127199,89.0
780,1.1453795,-0.30957794,-1.1862984,0.52675784,-0.8729736,2.2174804,89.0
781,1.41114,-0.9851265,-1.3331451,0.52675784,-0.8729736,2.2174804,89.0
782,1.41114,-0.9851265,-1.3331451,0.724292,-0.82730716,1.8479004,89.0
783,1.1517267,-1.6176529,-1.3299446,0.724292,-0.82730716,1.8479004,89.0
784,1.1517267,-1.6176529,-1.3299446,0.8326172,-0.99085695,1.7045288,89.0
785,0.6580515,-1.8091278,-1.1636009,0.8326172,-0.99085695,1.7045288,89.0
786,0.6580515,-1.8091278,-1.1636009,0.51188964,-1.0163453,1.9201173,89.0
787,0.16151237,-1.3087616,-0.8680992,0.51188964,-1.0163453,1.9201173,89.0
788,0.16151237,-1.3087616,-0.8680992,-0.012744141,-1.1066163,2.1357057,89.0
789,-0.1747818,-0.4011612,-0.7612381,-0.012744141,-1.1066163,2.1357057,89.0
790,-0.1747818,-0.4011612,-0.7612381,-0.42799073,-1.1565307,2.1834962,89.0
791,-0.41255474,0.20022583,-0.9185982,-0.42799073,-1.1565307,2.1834962,89.0
792,-0.41255474,0.20022583,-0.9185982,-0.6924316,-1.1947632,2.1229615,89.0
793,-0.6525779,-0.011276245,-1.1231117,-0.6924316,-1.1947632,2.1229615,89.0
794,-0.6525779,-0.011276245,-1.1231117,-0.70198977,-1.2839721,2.0273805,89.0
795,-0.74788,-0.8228531,-1.1763458,-0.70198977,-1.2839721,2.0273805,89.0
796,-0.74788,-0.8228531,-1.1763458,-0.58623046,-1.3710572,2.0125122,89.0
797,-0.6371589,-1.5505447,-1.0603523,-0.58623046,-1.3710572,2.0125122,89.0
798,-0.6371589,-1.5505447,-1.0603523,-0.38551027,-1.4400879,1.9742798,89.0
799,-0.55357456,-1.6327591,-0.9209137,-0.38551027,-1.4400879,1.9742798,89.0
800,-0.55357456,-1.6327591,-0.9209137,-0.06796875,-1.4931885,1.8691406,89.0
801,-0.6467171,-1.1970291,-0.8649292,-0.06796875,-1.4931885,1.8691406,89.0
802,-0.6467171,-1.1970291,-0.8649292,0.23151855,-1.5123047,1.7820557,89.0
803,-0.7824249,-0.8415375,-0.83675385,0.23151855,-1.5123047,1.7820557,89.0
804,-0.7824249,-0.8415375,-0.83675385,0.4056885,-1.5218629,1.6822265,89.0
805,-0.7645998,-0.80776215,-0.79660034,0.4056885,-1.5218629,1.6822265,89.0
806,-0.7645998,-0.80776215,-0.79660034,0.32391357,-1.4815063,1.6386842,89.0
807,-0.6232276,-0.92155457,-0.8181381,0.32391357,-1.4815063,1.6386842,89.0
808,-0.6232276,-0.92155457,-0.8181381,0.26444092,-1.4018555,1.5622193,89.0
809,-0.555357,-0.9639511,-0.90140915,0.26444092,-1.4018555,1.5622193,89.0
810,-0.555357,-0.9639511,-0.90140915,0.39613038,-1.3317627,1.4029175,89.0
811,-0.62267923,-0.88980865,-0.9479828,0.39613038,-1.3317627,1.4029175,89.0
812,-0.62267923,-0.88980865,-0.9479828,0.4970215,-1.2542359,1.2446778,89.0
813,-0.5475817,-0.8365097,-0.91506195,0.4970215,-1.2542359,1.2446778,89.0
814,-0.5475817,-0.8365097,-0.91506195,0.47790527,-1.1480347,1.0078491,89.0
815,-0.058146,-0.887825,-0.8079872,0.47790527,-1.1480347,1.0078491,89.0
816,-0.058146,-0.887825,-0.8079872,0.38657227,-0.97386473,0.67437744,89.0
817,0.6491375,-0.917778,-0.6676426,0.38657227,-0.97386473,0.67437744,89.0
818,0.6491375,-0.917778,-0.6676426,0.19541016,-0.7306641,0.31223145,89.0
819,1.1181746,-0.83727264,-0.53069496,0.19541016,-0.7306641,0.31223145,89.0
820,1.1181746,-0.83727264,-0.53069496,-0.04248047,-0.43754885,-0.11469727,89.0
821,1.2544155,-0.777153,-0.38032913,-0.04248047,-0.43754885,-0.11469727,89.0
822,1.2544155,-0.777153,-0.38032913,-0.15930176,-0.08814698,-0.6053467,89.0
823,1.3015423,-0.77316284,-0.25882912,-0.15930176,-0.08814698,-0.6053467,89.0
824,1.3015423,-0.77316284,-0.25882912,-0.15823975,0.24851075,-1.0970582,89.0
825,1.1575179,-0.62438965,-0.19328308,-0.15823975,0.24851075,-1.0970582,89.0
826,1.1575179,-0.62438965,-0.19328308,-0.24638672,0.5787964,-1.536731,89.0
827,0.50803375,-0.30384827,-0.040905,-0.24638672,0.5787964,-1.536731,89.0
828,0.50803375,-0.30384827,-0.040905,-0.29205322,0.8581055,-1.9487915,89.0
829,-0.35564566,-0.092063904,0.3615265,-0.29205322,0.8581055,-1.9487915,89.0
830,-0.35564566,-0.092063904,0.3615265,0.0180542,1.0290893,-2.1941164,89.0
831,-0.8037667,-0.07316589,0.85609245,0.0180542,1.0290893,-2.1941164,89.0
832,-0.8037667,-0.07316589,0.85609245,0.634021,1.0545777,-2.4320068,89.0
833,-0.58360195,0.012039185,1.1298065,0.634021,1.0545777,-2.4320068,89.0
834,-0.58360195,0.012039185,1.1298065,1.2170655,1.0014771,-2.7750366,89.0
835,0.014343739,0.28300476,1.1990852,1.2170655,1.0014771,-2.7750366,89.0
836,0.014343739,0.28300476,1.1990852,1.4199097,0.92076415,-3.081958,89.0
837,0.52338934,0.50366974,1.3088531,1.4199097,0.92076415,-3.081958,89.0
838,0.52338934,0.50366974,1.3088531,1.3402588,0.86341554,-3.353833,89.0
839,0.76540375,0.44436646,1.4659309,1.3402588,0.86341554,-3.353833,89.0
840,0.76540375,0.44436646,1.4659309,1.3083985,0.8007569,-3.5439332,89.0
841,0.7989564,0.17209625,1.4684486,1.3083985,0.8007569,-3.5439332,89.0
842,0.7989564,0.17209625,1.4684486,1.5165528,0.72854006,-3.609778,89.0
843,0.59115505,-0.16582489,1.210331,1.5165528,0.72854006,-3.609778,89.0
844,0.59115505,-0.16582489,1.210331,1.9466676,0.6287109,-3.5524292,89.0
845,-0.009754181,-0.3477707,0.7529831,1.9466676,0.6287109,-3.5524292,89.0
846,-0.009754181,-0.3477707,0.7529831,2.4139526,0.49277344,-3.3973756,89.0
847,-0.88680744,-0.1570282,0.2229042,2.4139526,0.49277344,-3.3973756,89.0
848,-0.88680744,-0.1570282,0.2229042,2.626355,0.32922363,-3.155237,89.0
849,-1.5914531,0.35251617,-0.28201675,2.626355,0.32922363,-3.155237,89.0
850,-1.5914531,0.35251617,-0.28201675,2.4999757,0.21452637,-2.907788,89.0
851,-1.8163018,0.8463669,-0.63183975,2.4999757,0.21452637,-2.907788,89.0
852,-1.8163018,0.8463669,-0.63183975,2.1091554,0.15823975,-2.6837037,89.0
853,-1.6938744,1.0780182,-0.7157135,2.1091554,0.15823975,-2.6837037,89.0
854,-1.6938744,1.0780182,-0.7157135,1.5154908,0.13487549,-2.450061,89.0
855,-1.478476,1.0785522,-0.5872574,1.5154908,0.13487549,-2.450061,89.0
856,-1.478476,1.0785522,-0.5872574,0.80819094,0.16461182,-2.2079225,89.0
857,-1.3421555,0.8846817,-0.38339233,0.80819094,0.16461182,-2.2079225,89.0
858,-1.3421555,0.8846817,-0.38339233,0.1539917,0.27506104,-1.9477295,89.0
859,-1.3872867,0.4868927,-0.22045898,0.1539917,0.27506104,-1.9477295,89.0
860,-1.3872867,0.4868927,-0.22045898,-0.22939454,0.32178956,-1.6939087,89.0
861,-1.5200834,0.091415405,-0.16436768,-0.22939454,0.32178956,-1.6939087,89.0
862,-1.5200834,0.091415405,-0.16436768,-0.49277344,0.3334717,-1.4655762,89.0
863,-1.5349755,-0.124679565,-0.19181061,-0.49277344,0.3334717,-1.4655762,89.0
864,-1.5349755,-0.124679565,-0.19181061,-0.6595093,0.362146,-1.2191895,89.0
865,-1.4459615,-0.1926651,-0.24031448,-0.6595093,0.362146,-1.2191895,89.0
866,-1.4459615,-0.1926651,-0.24031448,-0.6956177,0.3695801,-0.9834229,89.0
867,-1.4459615,-0.1926651,-0.24031448,-0.57242435,0.37807617,-0.75615233,89.0
868,-1.3350163,-0.22000122,-0.2814598,-0.57242435,0.37807617,-0.75615233,89.0
869,0.20708466,-0.743309,-0.6236038,-0.57242435,0.37807617,-0.75615233,89.0
870,0.20708466,-0.743309,-0.6236038,-0.22939454,0.3462158,-0.54906005,89.0
871,0.20708466,-0.743309,-0.6236038,0.19434814,0.2793091,-0.33665773,89.0
872,0.20708466,-0.743309,-0.6236038,0.540564,0.20072022,-0.1274414,89.0
873,1.0276308,-0.6283722,-0.7146301,0.540564,0.20072022,-0.1274414,89.0
874,1.0276308,-0.6283722,-0.7146301,0.7455322,0.070092775,0.121069334,89.0
875,1.6644874,-0.4111328,-0.71775055,0.7455322,0.070092775,0.121069334,89.0
876,1.6644874,-0.4111328,-0.71775055,0.8782837,-0.0053100586,0.45772704,89.0
877,2.296165,-0.29897308,-0.5545349,0.8782837,-0.0053100586,0.45772704,89.0
878,2.296165,-0.29897308,-0.5545349,0.99298096,-0.16992188,0.84748536,89.0
879,2.4620051,-0.1540451,-0.35125732,0.99298096,-0.16992188,0.84748536,89.0
880,2.4620051,-0.1540451,-0.35125732,0.88359374,-0.3536499,1.2011353,89.0
881,1.4102411,0.19236755,-0.19217682,0.88359374,-0.3536499,1.2011353,89.0
882,1.4102411,0.19236755,-0.19217682,0.75721437,-0.4439209,1.630188,89.0
883,1.4102411,0.19236755,-0.19217682,0.75721437,-0.4439209,1.630188,90.0
884,-0.15101814,0.41888428,-0.122600555,0.75721437,-0.4439209,1.630188,90.0
885,-0.15101814,0.41888428,-0.122600555,0.93775636,-0.6117188,2.1357057,90.0
886,-0.627162,0.25060272,-0.32123947,0.93775636,-0.6117188,2.1357057,90.0
887,-0.627162,0.25060272,-0.32123947,1.2860962,-0.72004396,2.5148437,90.0
888,0.31860733,-0.23648071,-0.7825508,1.2860962,-0.72004396,2.5148437,90.0
889,0.31860733,-0.23648071,-0.7825508,1.7395753,-0.7338501,2.6645875,90.0
890,1.696207,-0.75218964,-1.2063255,1.7395753,-0.7338501,2.6645875,90.0
891,1.696207,-0.75218964,-1.2063255,2.1781862,-0.77739257,2.7601686,90.0
892,2.4276934,-1.0770569,-1.4090538,2.1781862,-0.77739257,2.7601686,90.0
893,2.4276934,-1.0770569,-1.4090538,2.4054565,-0.811377,2.819641,90.0
894,2.1624184,-1.1924362,-1.4241676,2.4054565,-0.811377,2.819641,90.0
895,2.1624184,-1.1924362,-1.4241676,2.4989135,-0.8050049,2.8557496,90.0
896,1.3231721,-1.1926956,-1.2671547,2.4989135,-0.8050049,2.8557496,90.0
897,1.3231721,-1.1926956,-1.2671547,2.6656494,-0.80606693,2.9247804,90.0
898,0.45190907,-1.1447372,-0.97049904,2.6656494,-0.80606693,2.9247804,90.0
899,0.45190907,-1.1447372,-0.97049904,2.803711,-0.76464844,2.9566407,90.0
900,-0.34151268,-1.0155106,-0.6385822,2.803711,-0.76464844,2.9566407,90.0
901,-0.34151268,-1.0155106,-0.6385822,2.5828125,-0.6531372,2.9661987,90.0
902,-1.1417527,-0.8644104,-0.39081,2.5828125,-0.6531372,2.9661987,90.0
903,-1.1417527,-0.8644104,-0.39081,1.9275513,-0.5341919,2.9608886,90.0
904,-1.8998156,-0.89216614,-0.28749084,1.9275513,-0.5341919,2.9608886,90.0
905,-1.8998156,-0.89216614,-0.28749084,1.3030884,-0.46516114,2.9332764,90.0
906,-2.4849157,-1.0738144,-0.27534103,1.3030884,-0.46516114,2.9332764,90.0
907,-2.4849157,-1.0738144,-0.27534103,0.8729736,-0.47578126,2.8918579,90.0
908,-2.784881,-1.2453079,-0.29055023,0.8729736,-0.47578126,2.8918579,90.0
909,-2.784881,-1.2453079,-0.29055023,0.71154785,-0.4885254,2.7782228,90.0
910,-2.7909298,-1.3596649,-0.28904343,0.71154785,-0.4885254,2.7782228,90.0
911,-2.7909298,-1.3596649,-0.28904343,0.86978763,-0.49383545,2.6975098,90.0
912,-2.559197,-1.3912964,-0.25590515,0.86978763,-0.49383545,2.6975098,90.0
913,-2.559197,-1.3912964,-0.25590515,0.9897949,-0.4630371,2.5817506,90.0
914,-2.1468816,-1.383194,-0.2276001,0.9897949,-0.4630371,2.5817506,90.0
915,-2.1468816,-1.383194,-0.2276001,1.0269654,-0.37807617,2.3820922,90.0
916,-1.7454107,-1.4153214,-0.14376068,1.0269654,-0.37807617,2.3820922,90.0
917,-1.7454107,-1.4153214,-0.14376068,1.1522827,-0.29311523,2.2323487,90.0
918,-1.5768707,-1.4207458,0.056768417,1.1522827,-0.29311523,2.2323487,90.0
919,-1.5768707,-1.4207458,0.056768417,1.1990112,-0.24213867,2.071985,90.0
920,-1.5785742,-1.2968521,0.2105999,1.1990112,-0.24213867,2.071985,90.0
921,-1.5785742,-1.2968521,0.2105999,1.1055542,-0.17523193,1.81073,90.0
922,-1.5785742,-1.2968521,0.2105999,0.88253176,-0.13487549,1.538855,90.0
923,-1.4717338,-1.07444,0.18561935,0.88253176,-0.13487549,1.538855,90.0
924,-0.5538275,-1.0450363,0.51429176,0.88253176,-0.13487549,1.538855,90.0
925,-0.5538275,-1.0450363,0.51429176,0.5384399,-0.093457036,1.1979493,90.0
926,-0.5538275,-1.0450363,0.51429176,0.11363526,-0.047790527,0.81031495,90.0
927,-0.5538275,-1.0450363,0.51429176,-0.30161133,-0.06584473,0.39082032,90.0
928,-0.1082232,-0.9602585,0.56194687,-0.30161133,-0.06584473,0.39082032,90.0
929,-0.1082232,-0.9602585,0.56194687,-0.65844727,-0.11363526,-0.07540283,90.0
930,0.14336538,-0.89595795,0.5318699,-0.65844727,-0.11363526,-0.07540283,90.0
931,0.14336538,-0.89595795,0.5318699,-0.8581055,-0.1083252,-0.56180423,90.0
932,0.43311262,-0.93494415,0.51314163,-0.8581055,-0.1083252,-0.56180423,90.0
933,0.43311262,-0.93494415,0.51314163,-0.813501,-0.1178833,-1.1629028,90.0
934,0.906219,-0.9840164,0.6038246,-0.813501,-0.1178833,-1.1629028,90.0
935,0.906219,-0.9840164,0.6038246,-0.71579593,-0.14655761,-1.7501954,90.0
936,1.0431149,-0.90489197,0.87633514,-0.71579593,-0.14655761,-1.7501954,90.0
937,1.0431149,-0.90489197,0.87633514,-0.635083,-0.13806152,-2.1537597,90.0
938,0.55606174,-0.7425995,1.1690731,-0.635083,-0.13806152,-2.1537597,90.0
939,0.55606174,-0.7425995,1.1690731,-0.4364868,-0.008496094,-2.3948364,90.0
940,0.21643162,-0.45135498,1.1687794,-0.4364868,-0.008496094,-2.3948364,90.0
941,0.21643162,-0.45135498,1.1687794,-0.26019287,0.08920898,-2.5891845,90.0
942,0.91467357,0.080467224,0.76725006,-0.26019287,0.08920898,-2.5891845,90.0
943,0.91467357,0.080467224,0.76725006,-0.3536499,0.11044922,-2.8886719,90.0
944,2.2733648,0.6491165,0.3248844,-0.3536499,0.11044922,-2.8886719,90.0
945,2.2733648,0.6491165,0.3248844,-0.6085327,0.0637207,-3.0978882,90.0
946,3.0739045,0.85279083,0.2910118,-0.6085327,0.0637207,-3.0978882,90.0
947,3.0739045,0.85279083,0.2910118,-0.79013675,-0.016992187,-3.1127565,90.0
948,2.6861868,0.7083206,0.5824547,-0.79013675,-0.016992187,-3.1127565,90.0
949,2.6861868,0.7083206,0.5824547,-0.86766356,-0.011682129,-3.0490358,90.0
950,1.7522821,0.5645218,0.8665123,-0.86766356,-0.011682129,-3.0490358,90.0
951,1.7522821,0.5645218,0.8665123,-0.89208984,0.053100586,-2.9502685,90.0
952,1.089448,0.58348846,0.9983978,-0.89208984,0.053100586,-2.9502685,90.0
953,1.089448,0.58348846,0.9983978,-0.97067875,0.06478272,-2.803711,90.0
954,0.5806284,0.69203186,0.9515152,-0.97067875,0.06478272,-2.803711,90.0
955,0.5806284,0.69203186,0.9515152,-1.2223755,0.12319336,-2.6603394,90.0
956,-0.14516544,0.87971497,0.6687927,-1.2223755,0.12319336,-2.6603394,90.0
957,-0.14516544,0.87971497,0.6687927,-1.6960328,0.29736328,-2.5445802,90.0
958,-0.9247627,1.2003784,0.1897583,-1.6960328,0.29736328,-2.5445802,90.0
959,-0.9247627,1.2003784,0.1897583,-2.272705,0.5278198,-2.3682861,90.0
960,-1.385025,1.5981445,-0.3325081,-2.272705,0.5278198,-2.3682861,90.0
961,-1.385025,1.5981445,-0.3325081,-2.809021,0.7742066,-2.2015502,90.0
962,-1.4782963,1.9104233,-0.750103,-2.809021,0.7742066,-2.2015502,90.0
963,-1.4782963,1.9104233,-0.750103,-3.0320435,1.0259033,-1.992334,90.0
964,-1.3408155,2.012558,-0.9922447,-3.0320435,1.0259033,-1.992334,90.0
965,-1.3408155,2.012558,-0.9922447,-2.806897,1.1352905,-1.7374512,90.0
966,-1.0127645,1.9490509,-1.0225296,-2.806897,1.1352905,-1.7374512,90.0
967,-1.0127645,1.9490509,-1.0225296,-2.6327271,1.1926392,-1.5675293,90.0
968,-0.52184486,1.8393784,-0.9371033,-2.6327271,1.1926392,-1.5675293,90.0
969,-0.52184486,1.8393784,-0.9371033,-2.703882,1.2351197,-1.4528321,90.0
970,-0.067708015,1.688446,-0.8297119,-2.703882,1.2351197,-1.4528321,90.0
971,-0.067708015,1.688446,-0.8297119,-2.714502,1.2999023,-1.3083985,90.0
972,0.13836288,1.5069656,-0.65711594,-2.714502,1.2999023,-1.3083985,90.0
973,0.13836288,1.5069656,-0.65711594,-2.7495484,1.2722901,-1.1990112,90.0
974,0.05168152,1.3975525,-0.39048767,-2.7495484,1.2722901,-1.1990112,90.0
975,0.05168152,1.3975525,-0.39048767,-2.710254,1.2892822,-1.09281,90.0
976,-0.21420908,1.3422623,-0.07689285,-2.710254,1.2892822,-1.09281,90.0
977,-0.21420908,1.3422623,-0.07689285,-2.5042236,1.2053833,-0.9717407,90.0
978,-0.38384295,1.2882614,0.20579529,-2.5042236,1.2053833,-0.9717407,90.0
979,-0.38384295,1.2882614,0.20579529,-2.2355347,1.1267945,-0.8867798,90.0
980,-0.38384295,1.2882614,0.20579529,-1.9339234,1.0407715,-0.83474123,90.0
981,-0.15067768,1.2216873,0.35170937,-1.9339234,1.0407715,-0.83474123,90.0
982,-0.15067768,1.2216873,0.35170937,-1.9339234,1.0407715,-0.83474123,90.0
983,2.1799097,1.2519455,0.24037552,-1.9339234,1.0407715,-0.83474123,90.0
984,2.1799097,1.2519455,0.24037552,-1.5749635,0.9165161,-0.79119873,90.0
985,2.1799097,1.2519455,0.24037552,-1.2818482,0.721106,-0.725354,90.0
986,2.1799097,1.2519455,0.24037552,-1.0237793,0.4970215,-0.58198243,90.0
987,2.3896432,1.0927887,0.1416893,-1.0237793,0.4970215,-0.58198243,90.0
988,2.3896432,1.0927887,0.1416893,-0.6924316,0.18585205,-0.36851808,90.0
989,2.3183064,0.9658356,0.14236832,-0.6924316,0.18585205,-0.36851808,90.0
990,2.3183064,0.9658356,0.14236832,-0.3706421,-0.21027832,-0.12319336,90.0
991,1.510541,0.95383453,0.30345726,-0.3706421,-0.21027832,-0.12319336,90.0
992,1.510541,0.95383453,0.30345726,-0.17947999,-0.51826173,0.11151123,90.0
993,-0.19378853,0.98417664,0.65997696,-0.17947999,-0.51826173,0.11151123,90.0
994,-0.19378853,0.98417664,0.65997696,0.12956543,-0.8326172,0.4970215,90.0
995,-1.7300067,0.856575,0.8895302,0.12956543,-0.8326172,0.4970215,90.0
996,-1.7300067,0.856575,0.8895302,0.817749,-1.2075074,0.9430664,90.0
997,-1.8150477,0.5335541,0.54359436,0.817749,-1.2075074,0.9430664,90.0
998,-1.8150477,0.5335541,0.54359436,1.6631104,-1.540979,1.264856,90.0
999,-0.39096642,0.08232117,-0.31197357,1.6631104,-1.540979,1.264856,90.0
1000,-0.39096642,0.08232117,-0.31197357,2.4128907,-1.6928467,1.4793824,90.0
1001,1.2873125,-0.44805908,-1.1753006,2.4128907,-1.6928467,1.4793824,90.0
1002,1.2873125,-0.44805908,-1.1753006,3.0840821,-1.8797607,1.6450561,90.0
1003,2.0629187,-0.9536972,-1.6457691,3.0840821,-1.8797607,1.6450561,90.0
1004,2.0629187,-0.9536972,-1.6457691,3.7297852,-2.0210083,1.8468384,90.0
1005,1.8549004,-1.3573761,-1.717701,3.7297852,-2.0210083,1.8468384,90.0
1006,1.8549004,-1.3573761,-1.717701,4.523108,-2.2291627,2.1112792,90.0
1007,1.3451872,-1.6335678,-1.6046295,4.523108,-2.2291627,2.1112792,90.0
1008,1.3451872,-1.6335678,-1.6046295,5.5787477,-2.4001465,2.4128907,90.0
1009,1.0341206,-1.7091599,-1.4930534,5.5787477,-2.4001465,2.4128907,90.0
1010,1.0341206,-1.7091599,-1.4930534,6.406055,-2.434131,2.7389283,90.0
1011,0.8350725,-1.6214676,-1.3891449,6.406055,-2.434131,2.7389283,90.0
1012,0.8350725,-1.6214676,-1.3891449,6.6811156,-2.1898682,3.071338,90.0
1013,0.364933,-1.6606293,-1.1572647,6.6811156,-2.1898682,3.071338,90.0
1014,0.364933,-1.6606293,-1.1572647,6.315784,-1.7650635,3.353833,90.0
1015,-0.5875211,-1.9931412,-0.67406464,6.315784,-1.7650635,3.353833,90.0
1016,-0.5875211,-1.9931412,-0.67406464,5.515027,-1.3445069,3.4908326,90.0
1017,-1.8219213,-2.3802338,-0.056427002,5.515027,-1.3445069,3.4908326,90.0
1018,-1.8219213,-2.3802338,-0.056427002,4.429651,-1.0131592,3.526941,90.0
1019,-2.933282,-2.5242844,0.44456863,4.429651,-1.0131592,3.526941,90.0
1020,-2.933282,-2.5242844,0.44456863,3.2274537,-0.74022216,3.4887085,90.0
1021,-3.6724072,-2.3378525,0.7111969,3.2274537,-0.74022216,3.4887085,90.0
1022,-3.6724072,-2.3378525,0.7111969,1.8893188,-0.50445557,3.3676393,90.0
1023,-3.9936018,-1.9235687,0.7190323,1.8893188,-0.50445557,3.3676393,90.0
1024,-3.9936018,-1.9235687,0.7190323,0.5150757,-0.2888672,3.153113,90.0
1025,-3.9382408,-1.586525,0.4973812,0.5150757,-0.2888672,3.153113,90.0
1026,-3.9382408,-1.586525,0.4973812,-0.3164795,-0.19753419,2.9035401,90.0
1027,-3.6924016,-1.5017395,0.21005058,-0.3164795,-0.19753419,2.9035401,90.0
1028,-3.6924016,-1.5017395,0.21005058,-0.2984253,-0.2814331,2.6486573,90.0
1029,-3.4946685,-1.4625473,0.11523247,-0.2984253,-0.2814331,2.6486573,90.0
1030,-3.4946685,-1.4625473,0.11523247,0.07752686,-0.38869628,2.4086425,90.0
1031,-3.4946685,-1.4625473,0.11523247,0.3175415,-0.362146,2.0061402,90.0
1032,-3.3410594,-1.3755646,0.2573471,0.3175415,-0.362146,2.0061402,90.0
1033,-2.631417,-1.8443832,0.6989441,0.3175415,-0.362146,2.0061402,90.0
1034,-2.631417,-1.8443832,0.6989441,0.67331547,-0.31116945,1.5600952,90.0
1035,-2.631417,-1.8443832,0.6989441,1.0970582,-0.24107666,1.1533448,90.0
1036,-2.631417,-1.8443832,0.6989441,1.183081,-0.15611573,0.5872925,90.0
1037,-1.4935735,-1.800621,0.73929596,1.183081,-0.15611573,0.5872925,90.0
1038,0.39716998,-1.7451859,1.2103462,1.183081,-0.15611573,0.5872925,90.0
1039,0.39716998,-1.7451859,1.2103462,0.93775636,-0.115759276,0.03079834,90.0
1040,0.39716998,-1.7451859,1.2103462,0.67225343,-0.0998291,-0.48321533,90.0
1041,0.39716998,-1.7451859,1.2103462,0.5936646,-0.09770508,-1.0641358,90.0
1042,1.2045403,-1.7118835,1.3599148,0.5936646,-0.09770508,-1.0641358,90.0
1043,1.2045403,-1.7118835,1.3599148,0.53100586,-0.1901001,-1.6588624,90.0
1044,1.958664,-1.6373672,1.5145435,0.53100586,-0.1901001,-1.6588624,90.0
1045,1.958664,-1.6373672,1.5145435,0.38551027,-0.27399904,-2.160132,90.0
1046,2.0174685,-1.6034851,1.9039688,0.38551027,-0.27399904,-2.160132,90.0
1047,2.0174685,-1.6034851,1.9039688,0.35895997,-0.21346436,-2.4925416,90.0
1048,1.312998,-1.6463013,2.3454895,0.35895997,-0.21346436,-2.4925416,90.0
1049,1.312998,-1.6463013,2.3454895,0.48321533,-0.1539917,-2.6858277,90.0
1050,0.46175098,-1.3816528,2.2012215,0.48321533,-0.1539917,-2.6858277,90.0
1051,0.46175098,-1.3816528,2.2012215,0.35683593,-0.12956543,-2.7421143,90.0
1052,0.29708636,-0.6504898,1.2849998,0.35683593,-0.12956543,-2.7421143,90.0
1053,0.29708636,-0.6504898,1.2849998,-0.11044922,0.010620117,-2.8568115,90.0
1054,1.1964338,0.20391083,0.18495941,-0.11044922,0.010620117,-2.8568115,90.0
1055,1.1964338,0.20391083,0.18495941,-0.6988037,0.06690674,-3.073462,90.0
1056,2.4824278,0.8428421,-0.37553024,-0.6988037,0.06690674,-3.073462,90.0
1057,2.4824278,0.8428421,-0.37553024,-1.2956543,0.081774905,-3.0320435,90.0
1058,2.940752,0.9739914,-0.2848587,-1.2956543,0.081774905,-3.0320435,90.0
1059,2.940752,0.9739914,-0.2848587,-1.7002808,0.13699952,-2.7463624,90.0
1060,2.328102,0.62303925,-0.012321472,-1.7002808,0.13699952,-2.7463624,90.0
1061,2.328102,0.62303925,-0.012321472,-1.81073,0.20921631,-2.526526,90.0
1062,1.456964,0.36343384,0.035713196,-1.81073,0.20921631,-2.526526,90.0
1063,1.456964,0.36343384,0.035713196,-1.8309082,0.23258057,-2.2079225,90.0
1064,0.7204418,0.53891754,-0.15425491,-1.8309082,0.23258057,-2.2079225,90.0
1065,0.7204418,0.53891754,-0.15425491,-2.081543,0.2548828,-1.8914429,90.0
1066,-0.090260506,0.94275665,-0.44760895,-2.081543,0.2548828,-1.8914429,90.0
1067,-0.090260506,0.94275665,-0.44760895,-2.5870607,0.40356445,-1.6556762,90.0
1068,-0.89713526,1.2362137,-0.7453079,-2.5870607,0.40356445,-1.6556762,90.0
1069,-0.89713526,1.2362137,-0.7453079,-2.896106,0.5883545,-1.4995606,90.0
1070,-1.3086262,1.3641891,-1.0170326,-2.896106,0.5883545,-1.4995606,90.0
1071,-1.3086262,1.3641891,-1.0170326,-3.1446168,0.70092773,-1.3901733,90.0
1072,-1.2175553,1.5443802,-1.3065834,-3.1446168,0.70092773,-1.3901733,90.0
1073,-1.2175553,1.5443802,-1.3065834,-3.4727783,0.8591675,-1.3041505,90.0
1074,-0.87194467,1.8038635,-1.6517487,-3.4727783,0.8591675,-1.3041505,90.0
1075,-0.87194467,1.8038635,-1.6517487,-3.6140258,0.9802368,-1.2287476,90.0
1076,-0.5412812,1.9389572,-1.8258286,-3.6140258,0.9802368,-1.2287476,90.0
1077,-0.5412812,1.9389572,-1.8258286,-3.4674683,1.0407715,-1.1437867,90.0
1078,-0.3603077,1.8707504,-1.6144714,-3.4674683,1.0407715,-1.1437867,90.0
1079,-0.3603077,1.8707504,-1.6144714,-3.1191285,1.0439576,-1.0641358,90.0
1080,-0.18409586,1.6529999,-1.1586914,-3.1191285,1.0439576,-1.0641358,90.0
1081,-0.18409586,1.6529999,-1.1586914,-2.6783936,1.0216553,-1.0439576,90.0
1082,0.28784275,1.4089508,-0.7079582,-2.6783936,1.0216553,-1.0439576,90.0
1083,0.28784275,1.4089508,-0.7079582,-2.2302246,1.0099732,-1.0620117,90.0
1084,0.9314096,1.2245026,-0.3582363,-2.2302246,1.0099732,-1.0620117,90.0
1085,0.9314096,1.2245026,-0.3582363,-1.9349854,1.0248413,-1.0991821,90.0
1086,1.187962,1.0960312,-0.06355286,-1.9349854,1.0248413,-1.0991821,90.0
1087,1.187962,1.0960312,-0.06355286,-1.7342652,1.0375855,-1.1565307,90.0
1088,1.187962,1.0960312,-0.06355286,-1.7342652,1.0375855,-1.1565307,90.0
1089,0.8455479,1.0260162,0.15168571,-1.7342652,1.0375855,-1.1565307,90.0
1090,0.8455479,1.0260162,0.15168571,-1.4687623,0.9653687,-1.2138795,90.0
1091,0.53565454,1.0332031,0.18671799,-1.4687623,0.9653687,-1.2138795,90.0
1092,0.53565454,1.0332031,0.18671799,-1.1257324,0.8464233,-1.2043213,90.0
1093,0.885201,1.069458,0.058431625,-1.1257324,0.8464233,-1.2043213,90.0
1094,0.885201,1.069458,0.058431625,-0.94412845,0.7072998,-1.179895,90.0
1095,1.5726261,1.126709,-0.25659943,-0.94412845,0.7072998,-1.179895,90.0
1096,1.5726261,1.126709,-0.25659943,-1.0046631,0.42374268,-1.1342286,90.0
1097,2.015254,0.80698395,-0.5220032,-1.0046631,0.42374268,-1.1342286,90.0
1098,2.015254,0.80698395,-0.5220032,-0.5628662,0.3440918,-1.089624,90.0
1099,2.2118368,-0.18602753,-0.32751465,-0.5628662,0.3440918,-1.089624,90.0
1100,2.2118368,-0.18602753,-0.32751465,0.47471926,-0.029736329,-0.7434082,90.0
1101,2.360949,-0.5593567,-0.13266563,0.47471926,-0.029736329,-0.7434082,90.0
1102,2.360949,-0.5593567,-0.13266563,0.68499756,-0.52038574,-0.36108398,90.0
1103,2.0483904,0.116622925,-0.1614418,0.68499756,-0.52038574,-0.36108398,90.0
1104,2.0483904,0.116622925,-0.1614418,0.3430298,-0.4258667,-0.008496094,90.0
1105,0.52682257,0.18045807,0.32615662,0.3430298,-0.4258667,-0.008496094,90.0
1106,0.52682257,0.18045807,0.32615662,0.85704345,-0.63933104,0.5012695,90.0
1107,-1.426784,-0.6765671,1.138134,0.85704345,-0.63933104,0.5012695,90.0
1108,-1.426784,-0.6765671,1.138134,2.077295,-1.0705079,1.0747559,90.0
1109,-1.8378749,-1.0610199,1.2353249,2.077295,-1.0705079,1.0747559,90.0
1110,-1.8378749,-1.0610199,1.2353249,2.625293,-1.2011353,1.6758546,90.0
1111,-0.15270996,-0.63100433,0.29886818,2.625293,-1.2011353,1.6758546,90.0
1112,-0.15270996,-0.63100433,0.29886818,2.4298828,-1.1554688,2.2174804,90.0
1113,1.9027348,-0.19425964,-0.9045334,2.4298828,-1.1554688,2.2174804,90.0
1114,1.9027348,-0.19425964,-0.9045334,2.3056276,-1.1448487,2.5456421,90.0
1115,2.480391,-0.17191315,-1.3623829,2.3056276,-1.1448487,2.5456421,90.0
1116,2.480391,-0.17191315,-1.3623829,2.337488,-1.1958252,2.8132691,90.0
1117,1.6678457,-0.4331131,-0.9446926,2.337488,-1.1958252,2.8132691,90.0
1118,1.6678457,-0.4331131,-0.9446926,2.4851074,-1.2446778,3.087268,90.0
1119,0.6663079,-0.67276,-0.2655201,2.4851074,-1.2446778,3.087268,90.0
1120,0.6663079,-0.67276,-0.2655201,2.6741455,-1.2786621,3.255066,90.0
1121,-0.04841137,-0.6668701,0.24348068,2.6741455,-1.2786621,3.255066,90.0
1122,-0.04841137,-0.6668701,0.24348068,2.6210449,-1.183081,3.3899415,90.0
1123,-0.81103134,-0.5995331,0.6405716,2.6210449,-1.183081,3.3899415,90.0
1124,-0.81103134,-0.5995331,0.6405716,2.1973023,-0.95368654,3.4695923,90.0
1125,-1.8372898,-0.7865372,0.94013214,2.1973023,-0.95368654,3.4695923,90.0
1126,-1.8372898,-0.7865372,0.94013214,1.5282348,-0.79119873,3.364453,90.0
1127,-2.7708325,-1.0589294,0.97784996,1.5282348,-0.79119873,3.364453,90.0
1128,-2.7708325,-1.0589294,0.97784996,0.7508423,-0.62552494,3.2359498,90.0
1129,-3.0051913,-0.96881104,1.0365887,0.7508423,-0.62552494,3.2359498,90.0
1130,-3.0051913,-0.96881104,1.0365887,0.124255374,-0.7062378,3.530127,90.0
1131,-2.9293852,-0.114219666,0.96380615,0.124255374,-0.7062378,3.530127,90.0
1132,-2.9293852,-0.114219666,0.96380615,0.7720825,-0.68074954,2.6412232,90.0
1133,-2.7873802,0.7221832,0.3924179,0.7720825,-0.68074954,2.6412232,90.0
1134,-2.7873802,0.7221832,0.3924179,0.5957886,-0.8623535,3.2210815,90.0
1135,-2.3635223,0.31642914,-0.37200356,0.5957886,-0.8623535,3.2210815,90.0
1136,-2.3635223,0.31642914,-0.37200356,0.021240234,-0.4609131,2.8557496,90.0
1137,-2.597251,-0.9584656,-0.97091675,0.021240234,-0.4609131,2.8557496,90.0
1138,-2.597251,-0.9584656,-0.97091675,0.20390625,-0.57242435,2.5052857,90.0
1139,-3.3657036,-1.6537552,-1.0788708,0.20390625,-0.57242435,2.5052857,90.0
1140,-3.3657036,-1.6537552,-1.0788708,0.36108398,-0.35046387,2.1134033,90.0
1141,-3.3657036,-1.6537552,-1.0788708,0.36851808,-0.39613038,2.0475585,90.0
1142,-3.7103486,-1.0596848,-0.5294781,0.36851808,-0.39613038,2.0475585,90.0
1143,-3.3309376,0.029571533,0.547842,0.36851808,-0.39613038,2.0475585,90.0
1144,-3.3309376,0.029571533,0.547842,-0.028674318,-0.08602295,1.6875366,90.0
1145,-3.3309376,0.029571533,0.547842,-0.49277344,-0.14230958,1.4082276,90.0
1146,-3.3309376,0.029571533,0.547842,-0.6903076,-0.021240234,1.0343994,90.0
1147,-2.609196,-0.47099304,0.37905884,-0.6903076,-0.021240234,1.0343994,90.0
1148,-0.73229086,-1.0587997,-0.7203007,-0.6903076,-0.021240234,1.0343994,90.0
1149,-0.73229086,-1.0587997,-0.7203007,-0.85385746,-0.06796875,0.5511841,90.0
1150,-0.73229086,-1.0587997,-0.7203007,-0.9398804,-0.059472658,0.26868898,90.0
1151,-0.73229086,-1.0587997,-0.7203007,-0.9398804,0.21877442,-0.3154175,90.0
1152,-0.2129811,-0.83930206,-0.59584427,-0.9398804,0.21877442,-0.3154175,90.0
1153,-0.2129811,-0.83930206,-0.59584427,-0.9547486,0.26019287,-0.7072998,90.0
1154,0.12186366,-0.4550476,-0.5341587,-0.9547486,0.26019287,-0.7072998,90.0
1155,0.12186366,-0.4550476,-0.5341587,-1.089624,0.3430298,-1.0673218,90.0
1156,0.7406306,-0.11904144,-0.65883255,-1.089624,0.3430298,-1.0673218,90.0
1157,0.7406306,-0.11904144,-0.65883255,-1.5197388,0.44604492,-1.5186768,90.0
1158,1.2096676,0.040901184,-0.48316956,-1.5197388,0.44604492,-1.5186768,90.0
1159,1.2096676,0.040901184,-0.48316956,-1.910559,0.4704712,-1.807544,90.0
1160,1.3314792,-0.08556366,-0.08339691,-1.910559,0.4704712,-1.807544,90.0
1161,1.3314792,-0.08556366,-0.08339691,-1.7979859,0.49489745,-2.0454347,90.0
1162,1.4888527,-0.35651398,-0.110076904,-1.7979859,0.49489745,-2.0454347,90.0
1163,1.4888527,-0.35651398,-0.110076904,-1.3285767,0.4609131,-2.4203248,90.0
1164,2.134283,-0.55094147,-0.7056637,-1.3285767,0.4609131,-2.4203248,90.0
1165,2.134283,-0.55094147,-0.7056637,-0.7497803,0.5798584,-2.72937,90.0
1166,2.8112228,-0.8783417,-1.2580738,-0.7497803,0.5798584,-2.72937,90.0
1167,2.8112228,-0.8783417,-1.2580738,0.11044922,0.6414551,-2.902478,90.0
1168,2.4847815,-1.5508041,-1.2237797,0.11044922,0.6414551,-2.902478,90.0
1169,2.4847815,-1.5508041,-1.2237797,1.26698,0.48640138,-2.794153,90.0
1170,1.1473956,-2.1302185,-0.7110672,1.26698,0.48640138,-2.794153,90.0
1171,1.1473956,-2.1302185,-0.7110672,2.3226197,0.22514649,-2.7771606,90.0
1172,0.04225731,-1.769043,-0.1039238,2.3226197,0.22514649,-2.7771606,90.0
1173,0.04225731,-1.769043,-0.1039238,2.8642457,-0.19541016,-2.3343017,90.0
1174,-0.11743927,-1.2948837,0.16509056,2.8642457,-0.19541016,-2.3343017,90.0
1175,-0.11743927,-1.2948837,0.16509056,2.981067,-0.36851808,-2.080481,90.0
1176,-0.30963755,0.4842682,0.7066326,2.981067,-0.36851808,-2.080481,90.0
1177,-0.30963755,0.4842682,0.7066326,2.8780518,-0.60322267,-1.5834595,90.0
1178,-1.0507252,0.30464172,0.98804855,2.8780518,-0.60322267,-1.5834595,90.0
1179,-1.0507252,0.30464172,0.98804855,2.799463,-0.65632325,-1.4793824,90.0
1180,-3.301591,0.17293549,2.3982143,2.799463,-0.65632325,-1.4793824,90.0
1181,-3.301591,0.17293549,2.3982143,2.7718506,0.4248047,-0.4609131,90.0
1182,-2.6610239,0.041801453,2.6539612,2.7718506,0.4248047,-0.4609131,90.0
1183,-2.6610239,0.041801453,2.6539612,2.6783936,-0.5511841,-0.05628662,90.0
1184,0.2459979,0.015777588,3.0557861,2.6783936,-0.5511841,-0.05628662,90.0
1185,0.2459979,0.015777588,3.0557861,0.9791748,-0.8612915,-0.541626,90.0
1186,0.022140145,0.05633545,2.1950684,0.9791748,-0.8612915,-0.541626,90.0
1187,0.022140145,0.05633545,2.1950684,0.5543701,-0.6180908,-1.2053833,90.0
1188,0.022140145,0.05633545,2.1950684,0.5543701,-0.6180908,-1.2053833,90.0
1189,-2.8197756,1.5643082,0.041908264,0.5543701,-0.6180908,-1.2053833,90.0
1190,-2.8197756,1.5643082,0.041908264,-2.0188844,0.33134767,-0.42799073,90.0
1191,-2.209507,1.3313293,-0.3522148,-2.0188844,0.33134767,-0.42799073,90.0
1192,-2.209507,1.3313293,-0.3522148,-1.9679078,0.60959476,-0.88359374,90.0
1193,0.6165374,-0.40171814,-0.32840347,-1.9679078,0.60959476,-0.88359374,90.0
1194,0.6165374,-0.40171814,-0.32840347,-2.2992554,0.44498292,-0.32391357,90.0
1195,1.2253833,-0.32585907,-0.22523499,-2.2992554,0.44498292,-0.32391357,90.0
1196,1.2253833,-0.32585907,-0.22523499,-2.4999757,0.52675784,-0.28461915,90.0
1197,1.530978,-0.22633362,0.0026493073,-2.4999757,0.52675784,-0.28461915,90.0
1198,1.530978,-0.22633362,0.0026493073,-3.0182374,0.6796875,-0.79013675,90.0
1199,1.2925436,0.2523346,-0.057048798,-3.0182374,0.6796875,-0.79013675,90.0
1200,1.2925436,0.2523346,-0.057048798,-3.0108032,0.72641605,-0.81668705,90.0
1201,1.0263445,0.6434784,-0.40854073,-3.0108032,0.72641605,-0.81668705,90.0
1202,1.0263445,0.6434784,-0.40854073,-2.5976808,0.815625,-0.89208984,90.0
1203,1.0263445,0.6434784,-0.40854073,-2.4787354,0.8379273,-1.0120972,90.0
1204,0.98045063,0.91342926,-0.5776634,-2.4787354,0.8379273,-1.0120972,90.0
1205,3.511814,1.2048264,-1.9512291,-2.4787354,0.8379273,-1.0120972,90.0
1206,3.511814,1.2048264,-1.9512291,-2.0422485,0.8219971,-1.2223755,90.0
1207,3.511814,1.2048264,-1.9512291,-1.8436524,0.81881106,-1.350879,90.0
1208,3.511814,1.2048264,-1.9512291,-1.2797241,0.86553955,-1.6641724,90.0
1209,3.503592,0.9917679,-1.5612526,-1.2797241,0.86553955,-1.6641724,90.0
1210,3.503592,0.9917679,-1.5612526,-1.1544068,0.8729736,-1.6726685,90.0
1211,4.032366,0.67839813,-1.1460495,-1.1544068,0.8729736,-1.6726685,90.0
1212,4.032366,0.67839813,-1.1460495,-1.09281,0.77102053,-1.4039795,90.0
1213,3.1198258,0.74424744,-0.8046093,-1.09281,0.77102053,-1.4039795,90.0
1214,3.1198258,0.74424744,-0.8046093,-1.0492676,0.6924316,-1.2276856,90.0
1215,0.51457405,1.0314484,-0.34279633,-1.0492676,0.6924316,-1.2276856,90.0
1216,0.51457405,1.0314484,-0.34279633,-0.49489745,0.40356445,-0.7147339,90.0
1217,-0.17125082,1.0954132,-0.17734909,-0.49489745,0.40356445,-0.7147339,90.0
1218,-0.17125082,1.0954132,-0.17734909,-0.21983643,0.32391357,-0.48640138,90.0
1219,-0.48319197,1.2992172,-0.0881691,-0.21983643,0.32391357,-0.48640138,90.0
1220,-0.48319197,1.2992172,-0.0881691,0.41206056,0.13062744,-0.23045655,90.0
1221,0.33053637,1.0861969,-0.23108101,0.41206056,0.13062744,-0.23045655,90.0
1222,0.33053637,1.0861969,-0.23108101,1.0705079,-0.14974366,-0.014868164,90.0
1223,1.0655522,0.85365295,-0.4437523,1.0705079,-0.14974366,-0.014868164,90.0
1224,1.0655522,0.85365295,-0.4437523,1.1905152,-0.29099122,0.2081543,90.0
1225,0.8168216,0.8427124,-0.53697205,1.1905152,-0.29099122,0.2081543,90.0
1226,0.8168216,0.8427124,-0.53697205,1.1119263,-0.32709962,0.6202149,90.0
1227,-0.14238024,0.8235321,-0.35980225,1.1119263,-0.32709962,0.6202149,90.0
1228,-0.14238024,0.8235321,-0.35980225,1.1151123,-0.4088745,0.8793457,90.0
1229,-1.1280155,0.699852,-0.0010738373,1.1151123,-0.4088745,0.8793457,90.0
1230,-1.1280155,0.699852,-0.0010738373,1.0673218,-0.47684327,1.0875,90.0
1231,-1.8972368,0.50938416,0.29722595,1.0673218,-0.47684327,1.0875,90.0
1232,-1.8972368,0.50938416,0.29722595,1.0556396,-0.53737795,1.2234375,90.0
1233,-2.473612,0.2626419,0.3632202,1.0556396,-0.53737795,1.2234375,90.0
1234,-2.473612,0.2626419,0.3632202,1.1214844,-0.58410645,1.357251,90.0
1235,-3.0392048,0.1134491,0.15003777,1.1214844,-0.58410645,1.357251,90.0
1236,-3.0392048,0.1134491,0.15003777,1.3030884,-0.6244629,1.5112427,90.0
1237,-2.7234294,-0.06113434,0.02935791,1.3030884,-0.6244629,1.5112427,90.0
1238,-2.7234294,-0.06113434,0.02935791,1.3211426,-0.630835,1.5292969,90.0
1239,-2.4490805,-0.0687561,-0.09757042,1.3211426,-0.630835,1.5292969,90.0
1240,-2.4490805,-0.0687561,-0.09757042,1.3158325,-0.632959,1.6811646,90.0
1241,-1.9849846,-0.26750183,-0.038970947,1.3158325,-0.632959,1.6811646,90.0
1242,-1.9849846,-0.26750183,-0.038970947,1.1692749,-0.53737795,1.720459,90.0
1243,-1.3941889,-0.67219543,0.13934326,1.1692749,-0.53737795,1.720459,90.0
1244,-1.3941889,-0.67219543,0.13934326,1.09281,-0.47896728,1.5080566,90.0
1245,-1.3941889,-0.67219543,0.13934326,0.996167,-0.32178956,1.4517701,90.0
1246,-0.80412066,-0.95069885,0.26464844,0.996167,-0.32178956,1.4517701,90.0
1247,-0.2742902,-1.239212,-0.01795578,0.996167,-0.32178956,1.4517701,90.0
1248,-0.2742902,-1.239212,-0.01795578,0.7858887,-0.23895264,1.2945923,90.0
1249,-0.2742902,-1.239212,-0.01795578,0.5511841,-0.21558838,1.1894531,90.0
1250,-0.2742902,-1.239212,-0.01795578,0.55543214,-0.1529297,0.8931519,90.0
1251,-0.19477397,-1.2952042,-0.17725563,0.55543214,-0.1529297,0.8931519,90.0
1252,1.3791296,-1.6636658,0.07443237,0.55543214,-0.1529297,0.8931519,90.0
1253,1.3791296,-1.6636658,0.07443237,0.79119873,-0.078588866,0.7317261,90.0
1254,1.3791296,-1.6636658,0.07443237,0.8602295,0.0180542,0.5766724,90.0
1255,1.3791296,-1.6636658,0.07443237,0.73597413,0.16461182,0.43754885,90.0
1256,2.081624,-1.232605,0.0092659,0.73597413,0.16461182,0.43754885,90.0
1257,2.081624,-1.232605,0.0092659,0.60109866,0.14974366,0.3345337,90.0
1258,2.5330238,-0.8547516,0.10823059,0.60109866,0.14974366,0.3345337,90.0
1259,2.5330238,-0.8547516,0.10823059,0.3090454,0.19753419,0.2516968,90.0
1260,2.7131867,-0.45503998,0.2756729,0.3090454,0.19753419,0.2516968,90.0
1261,2.7131867,-0.45503998,0.2756729,-0.28355715,0.30267334,0.1996582,90.0
1262,2.7171192,-0.21967316,0.37465286,-0.28355715,0.30267334,0.1996582,90.0
1263,2.7171192,-0.21967316,0.37465286,-0.8846558,0.35895997,0.03079834,90.0
1264,2.3080459,-0.20745087,0.5008564,-0.8846558,0.35895997,0.03079834,90.0
1265,2.3080459,-0.20745087,0.5008564,-1.3487549,0.35789797,-0.08496094,90.0
1266,0.94465446,-0.1438675,0.70503044,-1.3487549,0.35789797,-0.08496094,90.0
1267,0.94465446,-0.1438675,0.70503044,-1.6408081,0.3079834,-0.08496094,90.0
1268,-0.85122204,0.12142944,0.7323723,-1.6408081,0.3079834,-0.08496094,90.0
1269,-0.85122204,0.12142944,0.7323723,-1.5940796,0.24744873,0.06478272,90.0
1270,-1.6849937,0.4695053,0.4315281,-1.5940796,0.24744873,0.06478272,90.0
1271,-1.6849937,0.4695053,0.4315281,-1.2860962,0.22196046,0.15717773,90.0
1272,-1.0061858,0.64043427,-0.013994217,-1.2860962,0.22196046,0.15717773,90.0
1273,-1.0061858,0.64043427,-0.013994217,-0.91864014,0.17629395,0.05628662,90.0
1274,0.31266618,0.50968933,-0.19541168,-0.91864014,0.17629395,0.05628662,90.0
1275,0.31266618,0.50968933,-0.19541168,-0.54587406,0.124255374,-0.040356446,90.0
1276,1.0337634,0.2952881,-0.00554657,-0.54587406,0.124255374,-0.040356446,90.0
1277,1.0337634,0.2952881,-0.00554657,-0.3525879,0.10301514,-0.11682129,90.0
1278,0.80677176,0.2849121,0.25195885,-0.3525879,0.10301514,-0.11682129,90.0
1279,0.80677176,0.2849121,0.25195885,-0.37489015,0.1901001,-0.19434814,90.0
1280,0.80677176,0.2849121,0.25195885,-0.37489015,0.1901001,-0.19434814,90.0
1281,0.07830334,0.48817444,0.33162117,-0.37489015,0.1901001,-0.19434814,90.0
1282,0.07830334,0.48817444,0.33162117,-0.41312256,0.19328614,-0.2081543,90.0
1283,-0.77101207,0.7457123,0.26828766,-0.41312256,0.19328614,-0.2081543,90.0
1284,-0.77101207,0.7457123,0.26828766,-0.51932377,0.1985962,-0.25806886,90.0
1285,-1.5533576,0.900856,0.18590546,-0.51932377,0.1985962,-0.25806886,90.0
1286,-1.5533576,0.900856,0.18590546,-0.631897,0.17629395,-0.33240968,90.0
1287,-2.0475934,0.88825226,0.13173294,-0.631897,0.17629395,-0.33240968,90.0
1288,-2.0475934,0.88825226,0.13173294,-0.724292,0.1901001,-0.3345337,90.0
1289,-2.206776,0.8302536,0.047855377,-0.724292,0.1901001,-0.3345337,90.0
1290,-2.206776,0.8302536,0.047855377,-0.8294312,0.2548828,-0.3812622,90.0
1291,-2.0943513,0.81385803,-0.08824158,-0.8294312,0.2548828,-0.3812622,90.0
1292,-2.0943513,0.81385803,-0.08824158,-0.8814697,0.3419678,-0.4088745,90.0
1293,-1.823638,0.8583145,-0.26600266,-0.8814697,0.3419678,-0.4088745,90.0
1294,-1.823638,0.8583145,-0.26600266,-0.95581055,0.40037844,-0.4704712,90.0
1295,-1.823638,0.8583145,-0.26600266,-1.0152832,0.44073486,-0.6159668,90.0
1296,-1.4896356,0.8930588,-0.41521835,-1.0152832,0.44073486,-0.6159668,90.0
1297,-1.1223115,0.82793427,-0.45589447,-1.0152832,0.44073486,-0.6159668,90.0
1298,-1.1223115,0.82793427,-0.45589447,-1.089624,0.52675784,-0.8400513,90.0
1299,-0.7155372,0.6539459,-0.38095093,-1.089624,0.52675784,-0.8400513,90.0
1300,-0.7155372,0.6539459,-0.38095093,-1.175647,0.6149048,-1.1533448,90.0
1301,-0.2688409,0.33477783,-0.30176926,-1.175647,0.6149048,-1.1533448,90.0
1302,-0.2688409,0.33477783,-0.30176926,-1.0556396,0.7072998,-1.454956,90.0
1303,0.1737212,-0.01751709,-0.29598236,-1.0556396,0.7072998,-1.454956,90.0
1304,0.1737212,-0.01751709,-0.29598236,-0.813501,0.7423462,-1.7544434,90.0
1305,0.5133666,-0.1509018,-0.3331375,-0.813501,0.7423462,-1.7544434,90.0
1306,0.5133666,-0.1509018,-0.3331375,-0.7062378,0.8315552,-1.9700317,90.0
1307,0.86945796,-0.14286804,-0.29208374,-0.7062378,0.8315552,-1.9700317,90.0
1308,0.86945796,-0.14286804,-0.29208374,-0.5766724,0.9632446,-2.1378295,90.0
1309,1.4798316,-0.26885986,-0.091259,-0.5766724,0.9632446,-2.1378295,90.0
1310,1.4798316,-0.26885986,-0.091259,-0.37489015,1.0598878,-2.2270386,90.0
1311,2.3338165,-0.4449005,0.11286926,-0.37489015,1.0598878,-2.2270386,90.0
1312,2.3338165,-0.4449005,0.11286926,-0.2803711,1.081128,-2.2387207,90.0
1313,3.2436645,-0.43670654,0.17442703,-0.2803711,1.081128,-2.2387207,90.0
1314,3.2436645,-0.43670654,0.17442703,-0.32603762,1.0174073,-2.160132,90.0
1315,3.9670875,-0.27155304,0.13088799,-0.32603762,1.0174073,-2.160132,90.0
1316,3.9670875,-0.27155304,0.13088799,-0.40993652,0.8464233,-1.9572877,90.0
1317,4.363001,-0.09989929,0.096508026,-0.40993652,0.8464233,-1.9572877,90.0
1318,4.363001,-0.09989929,0.096508026,-0.45772704,0.67437744,-1.6333741,90.0
1319,4.094588,0.09373474,0.23700714,-0.45772704,0.67437744,-1.6333741,90.0
1320,4.094588,0.09373474,0.23700714,-0.6860596,0.4630371,-1.1586548,90.0
1321,2.4549546,0.3328781,0.5510807,-0.6860596,0.4630371,-1.1586548,90.0
1322,2.4549546,0.3328781,0.5510807,-1.0386475,0.23895264,-0.7434082,90.0
1323,-0.2619276,0.6562271,0.7599449,-1.0386475,0.23895264,-0.7434082,90.0
1324,-0.2619276,0.6562271,0.7599449,-0.97386473,-0.007434082,-0.10620117,90.0
1325,-2.3662682,1.033699,0.6335411,-0.97386473,-0.007434082,-0.10620117,90.0
1326,-2.3662682,1.033699,0.6335411,-0.47790527,-0.19328614,0.59047854,90.0
1327,-2.3488007,1.15522,0.19715118,-0.47790527,-0.19328614,0.59047854,90.0
1328,-2.3488007,1.15522,0.19715118,0.30267334,-0.3536499,0.7455322,90.0
1329,-0.52265644,0.6208801,-0.2911682,0.30267334,-0.3536499,0.7455322,90.0
1330,-0.52265644,0.6208801,-0.2911682,1.0991821,-0.44498292,0.8602295,90.0
1331,1.2511253,-0.23227692,-0.65283203,1.0991821,-0.44498292,0.8602295,90.0
1332,1.2511253,-0.23227692,-0.65283203,1.6493043,-0.65419924,0.9345703,90.0
1333,1.6552825,-0.6477127,-0.8650398,1.6493043,-0.65419924,0.9345703,90.0
1334,1.6552825,-0.6477127,-0.8650398,1.806482,-0.72004396,1.089624,90.0
1335,0.84689426,-0.58849335,-0.8302765,1.806482,-0.72004396,1.089624,90.0
1336,0.84689426,-0.58849335,-0.8302765,1.9594116,-0.7168579,1.3391968,90.0
1337,-0.31589317,-0.35012817,-0.48664474,1.9594116,-0.7168579,1.3391968,90.0
1338,-0.31589317,-0.35012817,-0.48664474,2.18031,-0.7497803,1.545227,90.0
1339,-1.2644091,-0.11035919,-0.016208649,2.18031,-0.7497803,1.545227,90.0
1340,-1.2644091,-0.11035919,-0.016208649,2.347046,-0.77526855,1.6694825,90.0
1341,-1.8842201,-0.054740906,0.28432465,2.347046,-0.77526855,1.6694825,90.0
1342,-1.8842201,-0.054740906,0.28432465,2.5042236,-0.7880127,1.803296,90.0
1343,-2.181961,-0.19499207,0.2782669,2.5042236,-0.7880127,1.803296,90.0
1344,-2.181961,-0.19499207,0.2782669,2.531836,-0.74447024,1.9094971,90.0
1345,-2.2866702,-0.34993744,0.12377167,2.531836,-0.74447024,1.9094971,90.0
1346,-2.2866702,-0.34993744,0.12377167,2.441565,-0.632959,2.076233,90.0
1347,-2.2179837,-0.54148865,-0.030694962,2.441565,-0.632959,2.076233,90.0
1348,-2.2179837,-0.54148865,-0.030694962,2.352356,-0.6042847,2.270581,90.0
1349,-1.9568334,-0.68052673,-0.12383652,2.352356,-0.6042847,2.270581,90.0
1350,-1.9568334,-0.68052673,-0.12383652,2.0316284,-0.44073486,2.0029542,90.0
1351,-1.631885,-0.7319412,-0.054344177,2.0316284,-0.44073486,2.0029542,90.0
1352,-1.631885,-0.7319412,-0.054344177,1.7767457,-0.25913087,2.177124,90.0
1353,-1.2784941,-0.82923126,0.11649704,1.7767457,-0.25913087,2.177124,90.0
1354,-1.2784941,-0.82923126,0.11649704,1.5792115,-0.2177124,2.168628,90.0
1355,-0.99286366,-0.91041565,0.25911713,1.5792115,-0.2177124,2.168628,90.0
1356,-0.99286366,-0.91041565,0.25911713,1.3062744,-0.08920898,2.1049073,90.0
1357,-0.8719399,-0.8712387,0.3779602,1.3062744,-0.08920898,2.1049073,90.0
1358,-0.8719399,-0.8712387,0.3779602,0.81881106,0.05522461,1.9721558,90.0
1359,-0.78471017,-0.81768036,0.40864182,0.81881106,0.05522461,1.9721558,90.0
1360,-0.78471017,-0.81768036,0.40864182,0.49383545,0.13275146,1.8595825,90.0
1361,-0.5908296,-0.8082123,0.26478004,0.49383545,0.13275146,1.8595825,90.0
1362,-0.5908296,-0.8082123,0.26478004,0.121069334,0.12319336,1.6015137,90.0
1363,-0.29646742,-0.8314667,0.09670067,0.121069334,0.12319336,1.6015137,90.0
1364,-0.29646742,-0.8314667,0.09670067,0.014868164,0.1985962,1.2106934,90.0
1365,0.18053842,-0.91072845,0.0054473877,0.014868164,0.1985962,1.2106934,90.0
1366,0.18053842,-0.91072845,0.0054473877,-0.04460449,0.25594482,0.72323,90.0
1367,0.8044039,-0.9969635,-0.05039215,-0.04460449,0.25594482,0.72323,90.0
1368,0.8044039,-0.9969635,-0.05039215,-0.16885987,0.26019287,0.17523193,90.0
1369,1.3838551,-1.0084686,-0.044403076,-0.16885987,0.26019287,0.17523193,90.0
1370,1.3838551,-1.0084686,-0.044403076,-0.36427003,0.20390625,-0.31010744,90.0
1371,1.8119059,-0.8497925,0.05980301,-0.36427003,0.20390625,-0.31010744,90.0
1372,1.8119059,-0.8497925,0.05980301,-0.6818115,0.19541016,-0.68924564,90.0
1373,1.8119059,-0.8497925,0.05980301,-0.6818115,0.19541016,-0.68924564,90.0
1374,2.1929696,-0.50953674,0.25818253,-0.6818115,0.19541016,-0.68924564,90.0
1375,2.1929696,-0.50953674,0.25818253,-1.09281,0.2516968,-1.075818,90.0
1376,2.3626642,-0.13706207,0.5759659,-1.09281,0.2516968,-1.075818,90.0
1377,2.3626642,-0.13706207,0.5759659,-1.5080566,0.19222413,-1.4135376,90.0
1378,1.657197,0.19003296,0.9209652,-1.5080566,0.19222413,-1.4135376,90.0
1379,1.657197,0.19003296,0.9209652,-1.9392334,0.13168946,-1.5208008,90.0
1380,0.10477376,0.44432068,1.0599174,-1.9392334,0.13168946,-1.5208008,90.0
1381,0.10477376,0.44432068,1.0599174,-2.165442,0.17947999,-1.4135376,90.0
1382,-1.1000187,0.5449219,0.7302952,-2.165442,0.17947999,-1.4135376,90.0
1383,-1.1000187,0.5449219,0.7302952,-1.9243653,0.20390625,-1.2924683,90.0
1384,-0.8158183,0.5484619,0.09107208,-1.9243653,0.20390625,-1.2924683,90.0
1385,-0.8158183,0.5484619,0.09107208,-1.2499878,0.16248779,-1.4878784,90.0
1386,0.6698673,0.5046463,-0.26633835,-1.2499878,0.16248779,-1.4878784,90.0
1387,0.6698673,0.5046463,-0.26633835,-0.5713623,0.087084964,-1.5813354,90.0
1388,1.799407,0.42384338,-0.19137955,-0.5713623,0.087084964,-1.5813354,90.0
1389,1.799407,0.42384338,-0.19137955,-0.31329346,0.070092775,-1.4963745,90.0
1390,1.6088858,0.50798035,-0.10697365,-0.31329346,0.070092775,-1.4963745,90.0
1391,1.6088858,0.50798035,-0.10697365,-0.38763428,0.13806152,-1.2436157,90.0
1392,0.7027459,0.76999664,-0.1545124,-0.38763428,0.13806152,-1.2436157,90.0
1393,0.7027459,0.76999664,-0.1545124,-0.52888185,0.16567384,-1.1650269,90.0
1394,-0.12147045,1.2071152,-0.0419693,-0.52888185,0.16567384,-1.1650269,90.0
1395,-0.12147045,1.2071152,-0.0419693,-0.8952759,0.17947999,-1.1905152,90.0
1396,-0.87442255,1.7799606,0.26154327,-0.8952759,0.17947999,-1.1905152,90.0
1397,-0.87442255,1.7799606,0.26154327,-1.5059327,0.24320069,-1.3052124,90.0
1398,-1.6099629,2.1958466,0.4291458,-1.5059327,0.24320069,-1.3052124,90.0
1399,-1.6099629,2.1958466,0.4291458,-2.2334106,0.4067505,-1.4655762,90.0
1400,-2.159064,2.1761856,0.23237991,-2.2334106,0.4067505,-1.4655762,90.0
1401,-2.159064,2.1761856,0.23237991,-2.811145,0.62764895,-1.4145997,90.0
1402,-2.283892,1.8296585,-0.17568016,-2.811145,0.62764895,-1.4145997,90.0
1403,-2.283892,1.8296585,-0.17568016,-3.2125854,0.86553955,-1.0535157,90.0
1404,-1.9082901,1.4952698,-0.50206757,-3.2125854,0.86553955,-1.0535157,90.0
1405,-1.9082901,1.4952698,-0.50206757,-3.07771,0.96643066,-0.92501223,90.0
1406,-1.1770716,1.2978745,-0.6560364,-3.07771,0.96643066,-0.92501223,90.0
1407,-1.1770716,1.2978745,-0.6560364,-2.6996338,1.0036011,-0.78376466,90.0
1408,-0.29779744,1.1179123,-0.6818981,-2.6996338,1.0036011,-0.78376466,90.0
1409,-0.29779744,1.1179123,-0.6818981,-2.2015502,0.99085695,-0.63933104,90.0
1410,0.58433294,0.8746414,-0.62330246,-2.2015502,0.99085695,-0.63933104,90.0
1411,0.58433294,0.8746414,-0.62330246,-1.540979,0.8931519,-0.45029297,90.0
1412,1.2886944,0.73352814,-0.49331856,-1.540979,0.8931519,-0.45029297,90.0
1413,1.2886944,0.73352814,-0.49331856,-1.1299804,0.78164065,-0.35789797,90.0
1414,1.5728135,0.7930527,-0.33708763,-1.1299804,0.78164065,-0.35789797,90.0
1415,1.5728135,0.7930527,-0.33708763,-0.9165161,0.70198977,-0.35152587,90.0
1416,1.3873036,0.8326874,-0.16687393,-0.9165161,0.70198977,-0.35152587,90.0
1417,1.3873036,0.8326874,-0.16687393,-0.7699585,0.6223389,-0.31966552,90.0
1418,0.9824748,0.7271576,0.03155136,-0.7699585,0.6223389,-0.31966552,90.0
1419,0.9824748,0.7271576,0.03155136,-0.60216063,0.5787964,-0.28461915,90.0
1420,0.7697811,0.6035309,0.14032936,-0.60216063,0.5787964,-0.28461915,90.0
1421,0.7697811,0.6035309,0.14032936,-0.5777344,0.5320679,-0.3069214,90.0
1422,0.9531784,0.5384674,0.042158127,-0.5777344,0.5320679,-0.3069214,90.0
1423,0.9531784,0.5384674,0.042158127,-0.5501221,0.5140137,-0.5033936,90.0
1424,1.4440856,0.5137787,-0.09752464,-0.5501221,0.5140137,-0.5033936,90.0
1425,1.4440856,0.5137787,-0.09752464,-0.7497803,0.56392825,-0.6988037,90.0
1426,1.884285,0.37766266,-0.036039352,-0.7497803,0.56392825,-0.6988037,90.0
1427,1.884285,0.37766266,-0.036039352,-0.99510497,0.6244629,-1.0067872,90.0
1428,1.8688293,0.14000702,0.16299057,-0.99510497,0.6244629,-1.0067872,90.0
1429,1.8688293,0.14000702,0.16299057,-1.002539,0.6924316,-1.1958252,90.0
1430,1.6763382,-0.037384033,0.30114365,-1.002539,0.6924316,-1.1958252,90.0
1431,1.6763382,-0.037384033,0.30114365,-0.9781128,0.84111327,-1.453894,90.0
1432,1.4110165,-0.3760376,0.27632713,-0.9781128,0.84111327,-1.453894,90.0
1433,1.4110165,-0.3760376,0.27632713,-0.70942384,0.6945557,-1.354065,90.0
1434,0.33080292,-0.65563965,0.14562225,-0.70942384,0.6945557,-1.354065,90.0
1435,0.33080292,-0.65563965,0.14562225,-0.0031860352,0.39082032,-1.1129884,90.0
1436,-1.2617493,-0.5517731,0.043132782,-0.0031860352,0.39082032,-1.1129884,90.0
1437,-1.2617493,-0.5517731,0.043132782,0.98873293,0.16036378,-0.6488892,90.0
1438,-1.7061524,-0.30173492,-0.041360855,0.98873293,0.16036378,-0.6488892,90.0
1439,-1.7061524,-0.30173492,-0.041360855,2.1187134,-0.14337158,-0.16142578,90.0
1440,-0.35281277,-0.20787811,-0.23413849,2.1187134,-0.14337158,-0.16142578,90.0
1441,-0.35281277,-0.20787811,-0.23413849,3.078772,-0.55755615,0.32603762,90.0
1442,1.4230475,-0.20985413,-0.5952339,3.078772,-0.55755615,0.32603762,90.0
1443,1.4230475,-0.20985413,-0.5952339,3.629956,-0.8793457,0.72854006,90.0
1444,2.0239363,-0.117248535,-0.8667011,3.629956,-0.8793457,0.72854006,90.0
1445,2.0239363,-0.117248535,-0.8667011,3.7276611,-0.99935305,1.2149414,90.0
1446,1.2269983,-0.039749146,-0.7723408,3.7276611,-0.99935305,1.2149414,90.0
1447,1.2269983,-0.039749146,-0.7723408,3.5237548,-1.089624,1.6949707,90.0
1448,-0.09711218,-0.1361084,-0.41436958,3.5237548,-1.089624,1.6949707,90.0
1449,-0.09711218,-0.1361084,-0.41436958,3.2253296,-1.2032593,2.1558838,90.0
1450,-1.1770916,-0.41324615,-0.11362457,3.2253296,-1.2032593,2.1558838,90.0
1451,-1.1770916,-0.41324615,-0.11362457,3.0214233,-1.3158325,2.4882934,90.0
1452,-1.7408066,-0.7295685,0.023040771,3.0214233,-1.3158325,2.4882934,90.0
1453,-1.7408066,-0.7295685,0.023040771,2.7591064,-1.176709,2.7654786,90.0
1454,-1.8742247,-0.9254303,0.21294022,2.7591064,-1.176709,2.7654786,90.0
1455,-1.8742247,-0.9254303,0.21294022,2.1888063,-0.8028809,3.0224855,90.0
1456,-1.8335838,-0.97559357,0.57779884,2.1888063,-0.8028809,3.0224855,90.0
1457,-1.8335838,-0.97559357,0.57779884,1.2807862,-0.24001466,3.1955934,90.0
1458,-1.9596772,-1.0506439,0.7690029,1.2807862,-0.24001466,3.1955934,90.0
1459,-1.9596772,-1.0506439,0.7690029,0.56180423,-0.06584473,3.2295778,90.0
1460,-2.3306935,-1.1719513,0.51893616,0.56180423,-0.06584473,3.2295778,90.0
1461,-2.3306935,-1.1719513,0.51893616,0.1274414,0.013806152,2.974695,90.0
1462,-2.5871012,-1.2340622,0.08246994,0.1274414,0.013806152,2.974695,90.0
1463,-2.5871012,-1.2340622,0.08246994,-0.1178833,0.06265869,2.72937,90.0
1464,-2.464847,-1.2591858,-0.26810646,-0.1178833,0.06265869,2.72937,90.0
1465,-2.464847,-1.2591858,-0.26810646,-0.14230958,0.07752686,2.4075806,90.0
1466,-1.9633083,-1.3324814,-0.572773,-0.14230958,0.07752686,2.4075806,90.0
1467,-1.9633083,-1.3324814,-0.572773,0.045666505,0.087084964,2.0677369,90.0
1468,-1.295659,-1.4208069,-0.70874405,0.045666505,0.087084964,2.0677369,90.0
1469,-1.295659,-1.4208069,-0.70874405,0.3175415,0.1901001,1.6864747,90.0
1470,-0.6954261,-1.5266113,-0.5642605,0.3175415,0.1901001,1.6864747,90.0
1471,-0.6954261,-1.5266113,-0.5642605,0.70198977,0.118945315,1.4124756,90.0
1472,-0.23546684,-1.5213013,-0.21808243,0.70198977,0.118945315,1.4124756,90.0
1473,-0.23546684,-1.5213013,-0.21808243,1.0174073,0.16992188,1.1480347,90.0
1474,0.17997372,-1.3631439,0.19004822,1.0174073,0.16992188,1.1480347,90.0
1475,0.17997372,-1.3631439,0.19004822,1.088562,0.2548828,0.9165161,90.0
1476,0.7770722,-1.2651291,0.52586746,1.088562,0.2548828,0.9165161,90.0
1477,0.7770722,-1.2651291,0.52586746,1.175647,0.33984375,0.63826907,90.0
1478,1.6097071,-1.2467499,0.70915794,1.175647,0.33984375,0.63826907,90.0
1479,1.6097071,-1.2467499,0.70915794,1.1257324,0.42268068,0.29736328,90.0
1480,2.4928074,-1.2009048,0.7787266,1.1257324,0.42268068,0.29736328,90.0
1481,2.4928074,-1.2009048,0.7787266,0.73597413,0.39400634,-0.019116212,90.0
1482,3.0143876,-1.0843811,0.8360176,0.73597413,0.39400634,-0.019116212,90.0
1483,3.0143876,-1.0843811,0.8360176,0.38551027,0.13168946,-0.23045655,90.0
1484,2.8199816,-0.8259964,0.8284073,0.38551027,0.13168946,-0.23045655,90.0
1485,2.8199816,-0.8259964,0.8284073,0.26762697,-0.07646485,-0.3058594,90.0
1486,2.0550575,-0.20161438,0.7442093,0.26762697,-0.07646485,-0.3058594,90.0
1487,2.0550575,-0.20161438,0.7442093,-0.24851075,-0.058410645,-0.6085327,90.0
1488,0.9129548,0.59171295,0.80503464,-0.24851075,-0.058410645,-0.6085327,90.0
1489,0.9129548,0.59171295,0.80503464,-0.64995116,-0.0031860352,-0.817749,90.0
1490,-0.43754387,1.0310593,0.929966,-0.64995116,-0.0031860352,-0.817749,90.0
1491,-0.43754387,1.0310593,0.929966,-1.0099732,0.078588866,-0.9834229,90.0
1492,-1.2964463,0.8508835,0.7563629,-1.0099732,0.078588866,-0.9834229,90.0
1493,-1.2964463,0.8508835,0.7563629,-1.177771,0.21134034,-1.0450195,90.0
1494,-1.0336046,0.38420105,0.3626709,-1.177771,0.21134034,-1.0450195,90.0
1495,-1.0336046,0.38420105,0.3626709,-1.0545777,0.271875,-1.1023682,90.0
1496,0.054830074,0.19120789,0.14509201,-1.0545777,0.271875,-1.1023682,90.0
1497,0.054830074,0.19120789,0.14509201,-0.81243896,0.17841797,-1.1724609,90.0
1498,0.8706708,0.47105408,0.16986847,-0.81243896,0.17841797,-1.1724609,90.0
1499,0.8706708,0.47105408,0.16986847,-0.7083618,0.09664307,-1.264856,90.0
1500,0.84380245,0.8257065,0.17922974,-0.7083618,0.09664307,-1.264856,90.0
1501,0.84380245,0.8257065,0.17922974,-0.62764895,0.1529297,-1.3190186,90.0
1502,0.45277643,0.8634796,0.091724396,-0.62764895,0.1529297,-1.3190186,90.0
1503,0.45277643,0.8634796,0.091724396,-0.5936646,0.17523193,-1.2829102,90.0
1504,0.45277643,0.8634796,0.091724396,-0.5936646,0.17523193,-1.2829102,92.0
1505,0.11137867,0.8385849,-0.00655365,-0.5936646,0.17523193,-1.2829102,92.0
1506,0.11137867,0.8385849,-0.00655365,-0.7582764,0.1263794,-1.2446778,92.0
1507,-0.3127036,0.92694855,-0.12454224,-0.7582764,0.1263794,-1.2446778,92.0
1508,-0.3127036,0.92694855,-0.12454224,-0.8952759,0.11682129,-1.1990112,92.0
1509,-0.83899355,1.0256805,-0.1875,-0.8952759,0.11682129,-1.1990112,92.0
1510,-0.83899355,1.0256805,-0.1875,-0.9834229,0.1985962,-1.1236085,92.0
1511,-1.2769079,1.0993271,-0.16687012,-0.9834229,0.1985962,-1.1236085,92.0
1512,-1.2769079,1.0993271,-0.16687012,-1.1193603,0.25594482,-1.1161743,92.0
1513,-1.4667535,1.11763,-0.26908112,-1.1193603,0.25594482,-1.1161743,92.0
1514,-1.4667535,1.11763,-0.26908112,-1.3073364,0.35577393,-1.1565307,92.0
1515,-1.3111959,1.0479355,-0.47023392,-1.3073364,0.35577393,-1.1565307,92.0
1516,-1.3111959,1.0479355,-0.47023392,-1.5983276,0.54375,-1.2404298,92.0
1517,-0.85894203,0.9032669,-0.46510315,-1.5983276,0.54375,-1.2404298,92.0
1518,-0.85894203,0.9032669,-0.46510315,-1.713025,0.7688965,-1.1915772,92.0
1519,-0.3853469,0.73469543,-0.3003788,-1.713025,0.7688965,-1.1915772,92.0
1520,-0.3853469,0.73469543,-0.3003788,-1.7597535,0.87615967,-1.2032593,92.0
1521,-1.5974045E-4,0.6419678,-0.22241974,-1.7597535,0.87615967,-1.2032593,92.0
1522,-1.5974045E-4,0.6419678,-0.22241974,-1.7958618,0.98236084,-1.2818482,92.0
1523,0.26321435,0.6178665,-0.20049477,-1.7958618,0.98236084,-1.2818482,92.0
1524,0.26321435,0.6178665,-0.20049477,-1.8871949,1.0715698,-1.351941,92.0
1525,0.23829365,0.57927704,-0.10520935,-1.8871949,1.0715698,-1.351941,92.0
1526,0.23829365,0.57927704,-0.10520935,-1.9371094,1.1119263,-1.4092896,92.0
1527,0.05424571,0.6490936,-0.004919052,-1.9371094,1.1119263,-1.4092896,92.0
1528,0.05424571,0.6490936,-0.004919052,-1.9710938,1.1820191,-1.4645141,92.0
1529,-0.03366661,0.9086914,-0.07541847,-1.9710938,1.1820191,-1.4645141,92.0
1530,-0.03366661,0.9086914,-0.07541847,-1.9392334,1.2170655,-1.5006226,92.0
1531,0.21752453,1.2699432,-0.2908287,-1.9392334,1.2170655,-1.5006226,92.0
1532,0.21752453,1.2699432,-0.2908287,-2.2833252,1.2489258,-1.5462891,92.0
1533,0.8393884,1.4289169,-0.4477501,-2.2833252,1.2489258,-1.5462891,92.0
1534,0.8393884,1.4289169,-0.4477501,-2.427759,1.1958252,-1.4634522,92.0
1535,1.636684,1.2742157,-0.39860535,-2.427759,1.1958252,-1.4634522,92.0
1536,1.636684,1.2742157,-0.39860535,-2.3958986,1.1310425,-1.3795532,92.0
1537,2.3715668,1.0648575,-0.17836761,-2.3958986,1.1310425,-1.3795532,92.0
1538,2.3715668,1.0648575,-0.17836761,-2.3098755,0.9759888,-1.2372437,92.0
1539,2.743042,0.96902466,0.044391632,-2.3098755,0.9759888,-1.2372437,92.0
1540,2.743042,0.96902466,0.044391632,-2.1314576,0.7519043,-1.0694458,92.0
1541,2.664795,0.9686279,0.2584858,-2.1314576,0.7519043,-1.0694458,92.0
1542,2.664795,0.9686279,0.2584858,-1.8871949,0.61065674,-0.8772217,92.0
1543,2.508008,0.81591797,0.67048645,-1.8871949,0.61065674,-0.8772217,92.0
1544,2.508008,0.81591797,0.67048645,-1.4836304,0.45878908,-0.6690674,92.0
1545,2.097495,0.52537537,1.1734257,-1.4836304,0.45878908,-0.6690674,92.0
1546,2.097495,0.52537537,1.1734257,-1.0460815,0.18479005,-0.4258667,92.0
1547,0.846014,0.42381287,1.435894,-1.0460815,0.18479005,-0.4258667,92.0
1548,0.846014,0.42381287,1.435894,-0.44179687,-0.012744141,-0.271875,92.0
1549,-0.85125303,0.3221817,1.4112511,-0.44179687,-0.012744141,-0.271875,92.0
1550,-0.85125303,0.3221817,1.4112511,0.32603762,-0.2262085,-0.045666505,92.0
1551,-1.9009857,0.08582306,1.0321732,0.32603762,-0.2262085,-0.045666505,92.0
1552,-1.9009857,0.08582306,1.0321732,1.1384766,-0.46409914,0.2177124,92.0
1553,-1.5854001,-0.20872498,0.28621292,1.1384766,-0.46409914,0.2177124,92.0
1554,-1.5854001,-0.20872498,0.28621292,2.1877441,-0.73597413,0.4088745,92.0
1555,-0.25752926,-0.5083847,-0.44787216,2.1877441,-0.73597413,0.4088745,92.0
1556,-0.25752926,-0.5083847,-0.44787216,3.161609,-0.99298096,0.6796875,92.0
1557,0.9816718,-0.609848,-0.877388,3.161609,-0.99298096,0.6796875,92.0
1558,0.9816718,-0.609848,-0.877388,3.7658937,-1.1629028,0.9855469,92.0
1559,1.3145247,-0.37856293,-0.9709892,3.7658937,-1.1629028,0.9855469,92.0
1560,1.3145247,-0.37856293,-0.9709892,3.80625,-1.1682129,1.2425537,92.0
1561,0.6668787,-0.09577179,-0.78009796,3.80625,-1.1682129,1.2425537,92.0
1562,0.6668787,-0.09577179,-0.78009796,3.7446535,-1.270166,1.539917,92.0
1563,-0.45574284,-0.204216,-0.56376266,3.7446535,-1.270166,1.539917,92.0
1564,-0.45574284,-0.204216,-0.56376266,4.1067996,-1.5526612,1.7937378,92.0
1565,-1.3687325,-0.47091675,-0.46303368,4.1067996,-1.5526612,1.7937378,92.0
1566,-1.3687325,-0.47091675,-0.46303368,4.099365,-1.4443359,1.893567,92.0
1567,-1.729361,-0.6131592,-0.4072914,4.099365,-1.4443359,1.893567,92.0
1568,-1.729361,-0.6131592,-0.4072914,3.5672975,-1.1990112,2.077295,92.0
1569,-1.7301927,-0.58916473,-0.31449127,3.5672975,-1.1990112,2.077295,92.0
1570,-1.7301927,-0.58916473,-0.31449127,2.3056276,-0.8793457,2.1919923,92.0
1571,-1.8308582,-0.62828064,-0.22956085,2.3056276,-0.8793457,2.1919923,92.0
1572,-1.8308582,-0.62828064,-0.22956085,1.1108643,-0.7858887,2.461743,92.0
1573,-2.034511,-0.79746246,-0.2009697,1.1108643,-0.7858887,2.461743,92.0
1574,-2.034511,-0.79746246,-0.2009697,0.0637207,-0.58410645,2.3640382,92.0
1575,-2.0998988,-0.9444046,-0.24128151,0.0637207,-0.58410645,2.3640382,92.0
1576,-2.0998988,-0.9444046,-0.24128151,-0.7051758,-0.4439209,2.2270386,92.0
1577,-1.912817,-1.089714,-0.32796097,-0.7051758,-0.4439209,2.2270386,92.0
1578,-1.912817,-1.089714,-0.32796097,-1.0577637,-0.38551027,2.0114503,92.0
1579,-1.5258713,-1.2784576,-0.39632797,-1.0577637,-0.38551027,2.0114503,92.0
1580,-1.5258713,-1.2784576,-0.39632797,-0.96430665,-0.31116945,1.806482,92.0
1581,-1.2046692,-1.4413376,-0.3928795,-0.96430665,-0.31116945,1.806482,92.0
1582,-1.2046692,-1.4413376,-0.3928795,-0.47896728,-0.35895997,1.6429322,92.0
1583,-1.055105,-1.488945,-0.38918114,-0.47896728,-0.35895997,1.6429322,92.0
1584,-1.055105,-1.488945,-0.38918114,0.32072756,-0.40993652,1.545227,92.0
1585,-0.9322431,-1.3504715,-0.38485527,0.32072756,-0.40993652,1.545227,92.0
1586,-0.9322431,-1.3504715,-0.38485527,1.1119263,-0.44816896,1.3838013,92.0
1587,-0.9322431,-1.3504715,-0.38485527,1.1119263,-0.44816896,1.3838013,94.0
1588,-0.72061133,-1.0471039,-0.3177719,1.1119263,-0.44816896,1.3838013,94.0
1589,-0.72061133,-1.0471039,-0.3177719,1.5696534,-0.3536499,1.2149414,94.0
1590,-0.3557005,-0.69916534,-0.16215134,1.5696534,-0.3536499,1.2149414,94.0
1591,-0.3557005,-0.69916534,-0.16215134,1.5600952,-0.21452637,1.0673218,94.0
1592,0.087460995,-0.49962616,0.025455475,1.5600952,-0.21452637,1.0673218,94.0
1593,0.087460995,-0.49962616,0.025455475,1.3774292,-0.09451904,0.8326172,94.0
1594,0.4914899,-0.5094681,0.17995834,1.3774292,-0.09451904,0.8326172,94.0
