,accx,accy,accz,gyrox,gyroy,gyroz,heart rate
0,walk,walk,walk,walk,walk,walk,walk
1,0,0,0,-0.004248047,0.020178223,0.09239502,0
2,-5.7793946,16.756908,124.71542,-0.004248047,0.020178223,0.09239502,0
3,-4.6423144,13.32357,99.541046,-0.004248047,0.020178223,0.09239502,0
4,-4.6423144,13.32357,99.541046,0.07327881,-0.087084964,-0.087084964,0
5,-3.6644254,10.437921,79.66751,0.07327881,-0.087084964,-0.087084964,0
6,-3.6644254,10.437921,79.66751,0.11363526,-0.0998291,-0.10195313,0
7,-2.821189,8.298639,63.91382,0.11363526,-0.0998291,-0.10195313,0
8,-2.821189,8.298639,63.91382,0.13699952,-0.0998291,-0.10301514,0
9,-2.821189,8.298639,63.91382,0.17841797,-0.1359375,-0.13168946,0
10,-2.2029839,6.70096,51.232513,0.17841797,-0.1359375,-0.13168946,0
11,-1.7723236,5.3876114,40.98623,0.17841797,-0.1359375,-0.13168946,0
12,-1.7723236,5.3876114,40.98623,0.16885987,-0.14230958,-0.15505372,0
13,-1.3825192,4.42857,32.686966,0.16885987,-0.14230958,-0.15505372,0
14,-1.3825192,4.42857,32.686966,0.12531738,-0.11151123,-0.1529297,0
15,-1.1016817,3.5255833,26.144745,0.12531738,-0.11151123,-0.1529297,0
16,-1.1016817,3.5255833,26.144745,0.1274414,-0.12000733,-0.14018555,0
17,-1.1016817,3.5255833,26.144745,0.18691407,-0.15823975,-0.15080567,0
18,-0.9262428,2.7702103,20.92897,0.18691407,-0.15823975,-0.15080567,0
19,-0.78700256,2.1969051,16.769806,0.18691407,-0.15823975,-0.15080567,0
20,-0.78700256,2.1969051,16.769806,0.18266602,-0.16779785,-0.14549561,0
21,-0.78700256,2.1969051,16.769806,0.18266602,-0.16779785,-0.14549561,84
22,-0.77132607,1.8737106,13.417496,0.18266602,-0.16779785,-0.14549561,84
23,-0.77132607,1.8737106,13.417496,0.13275146,-0.16461182,-0.13487549,84
24,-0.70596504,1.5138245,10.740128,0.13275146,-0.16461182,-0.13487549,84
25,-0.70596504,1.5138245,10.740128,0.11682129,-0.14018555,-0.1359375,84
26,-0.70766735,1.1471806,8.585846,0.11682129,-0.14018555,-0.1359375,84
27,-0.70766735,1.1471806,8.585846,0.16461182,-0.13381349,-0.15505372,84
28,-0.578341,0.8297081,6.846512,0.16461182,-0.13381349,-0.15505372,84
29,-0.578341,0.8297081,6.846512,0.17523193,-0.13806152,-0.14974366,84
30,-0.47037506,0.4897194,5.293503,0.17523193,-0.13806152,-0.14974366,84
31,-0.47037506,0.4897194,5.293503,0.24851075,-0.18054199,-0.15505372,84
32,-0.42573833,0.29538918,4.150406,0.24851075,-0.18054199,-0.15505372,84
33,-0.42573833,0.29538918,4.150406,0.32497558,-0.2166504,-0.13806152,84
34,-0.38712406,0.04153633,3.081192,0.32497558,-0.2166504,-0.13806152,84
35,-0.38712406,0.04153633,3.081192,0.9759888,-0.5363159,-0.15505372,84
36,-0.24586868,0.05219841,2.4860687,0.9759888,-0.5363159,-0.15505372,84
37,-0.24586868,0.05219841,2.4860687,0.630835,-0.542688,0.047790527,84
38,0.079610825,0.23334694,2.1020508,0.630835,-0.542688,0.047790527,84
39,0.079610825,0.23334694,2.1020508,0.37489015,-0.544812,0.121069334,84
40,0.009526253,0.21247101,1.7694244,0.37489015,-0.544812,0.121069334,84
41,0.009526253,0.21247101,1.7694244,0.4078125,-0.6573853,0.32178956,84
42,0.098685265,0.37578583,1.4557495,0.4078125,-0.6573853,0.32178956,84
43,0.098685265,0.37578583,1.4557495,0.27718505,-0.64995116,0.40462646,84
44,0.33751774,0.84934807,1.1601105,0.27718505,-0.64995116,0.40462646,84
45,0.33751774,0.84934807,1.1601105,-0.34090576,-0.5256958,0.33878174,84
46,0.23816586,0.93096924,1.0774384,-0.34090576,-0.5256958,0.33878174,84
47,0.23816586,0.93096924,1.0774384,-0.5363159,-0.4609131,0.08496094,84
48,-0.0757637,0.51234055,1.168396,-0.5363159,-0.4609131,0.08496094,84
49,-0.0757637,0.51234055,1.168396,-0.21877442,-0.62764895,0.10195313,84
50,-0.08596516,0.328537,1.1491852,-0.21877442,-0.62764895,0.10195313,84
51,-0.08596516,0.328537,1.1491852,-0.22727051,-0.6202149,0.16885987,84
52,0.01924038,0.48134613,0.839798,-0.22727051,-0.6202149,0.16885987,84
53,0.01924038,0.48134613,0.839798,-0.2793091,-0.6403931,0.12000733,84
54,0.01924038,0.48134613,0.839798,-0.38763428,-0.65844727,0.08283692,84
55,0.11036301,0.6657295,0.37879944,-0.38763428,-0.65844727,0.08283692,84
56,0.28005028,0.7258568,0.10545349,-0.38763428,-0.65844727,0.08283692,84
57,0.28005028,0.7258568,0.10545349,-0.5278198,-0.6403931,0.03186035,84
58,0.80742645,0.372921,0.19447327,-0.5278198,-0.6403931,0.03186035,84
59,0.80742645,0.372921,0.19447327,-0.6680054,-0.61278075,-0.05522461,84
60,0.8354311,0.21040916,0.30560303,-0.6680054,-0.61278075,-0.05522461,84
61,0.8354311,0.21040916,0.30560303,-0.73597413,-0.60322267,-0.09664307,84
62,0.8354311,0.21040916,0.30560303,-0.9228882,-0.6265869,-0.20921631,84
63,0.9551978,0.061416626,0.37512207,-0.9228882,-0.6265869,-0.20921631,84
64,0.8192611,0.050512314,0.3514099,-0.9228882,-0.6265869,-0.20921631,84
65,0.8192611,0.050512314,0.3514099,-1.083252,-0.65632325,-0.3334717,84
66,0.452003,0.005828857,0.39315796,-1.083252,-0.65632325,-0.3334717,84
67,0.452003,0.005828857,0.39315796,-1.1926392,-0.7593384,-0.4439209,84
68,-0.05492592,-0.16741943,0.57185364,-1.1926392,-0.7593384,-0.4439209,84
69,-0.05492592,-0.16741943,0.57185364,-1.1267945,-0.8687256,-0.5533081,84
70,-0.36931896,-0.3812256,0.7818451,-1.1267945,-0.8687256,-0.5533081,84
71,-0.36931896,-0.3812256,0.7818451,-1.0290893,-1.0152832,-0.634021,84
72,-0.4066491,-0.48765945,0.92881775,-1.0290893,-1.0152832,-0.634021,84
73,-0.4066491,-0.48765945,0.92881775,-1.0110352,-1.2000732,-0.75615233,84
74,-0.2196064,-0.46565247,1.0471039,-1.0110352,-1.2000732,-0.75615233,84
75,-0.2196064,-0.46565247,1.0471039,-0.99298096,-1.4050416,-0.9451904,84
76,0.21212006,-0.4564705,1.3365021,-0.99298096,-1.4050416,-0.9451904,84
77,0.21212006,-0.4564705,1.3365021,-1.0322754,-1.4953126,-1.1034302,84
78,0.731061,-0.61473846,1.9620514,-1.0322754,-1.4953126,-1.1034302,84
79,0.731061,-0.61473846,1.9620514,-1.2595459,-1.6333741,-1.263794,84
80,0.731061,-0.61473846,1.9620514,-1.2924683,-1.6418701,-1.3232666,84
81,0.56237555,-0.70422935,1.9649048,-1.2924683,-1.6418701,-1.3232666,84
82,0.36667252,-0.87171936,1.852478,-1.2924683,-1.6418701,-1.3232666,84
83,0.36667252,-0.87171936,1.852478,-1.2372437,-1.6652344,-1.3976074,84
84,0.22678518,-0.99671555,1.5648956,-1.2372437,-1.6652344,-1.3976074,84
85,0.22678518,-0.99671555,1.5648956,-1.1544068,-1.7385132,-1.4050416,84
86,0.18670177,-1.0630951,1.279892,-1.1544068,-1.7385132,-1.4050416,84
87,0.18670177,-1.0630951,1.279892,-1.1469727,-1.7958618,-1.4103516,84
88,0.20415878,-1.2413445,1.0778961,-1.1469727,-1.7958618,-1.4103516,84
89,0.20415878,-1.2413445,1.0778961,-1.1002442,-1.9317993,-1.4592041,84
90,0.32399607,-1.549923,0.9912262,-1.1002442,-1.9317993,-1.4592041,84
91,0.32399607,-1.549923,0.9912262,-1.0343994,-1.9987061,-1.5208008,84
92,0.63540554,-1.777853,1.0852966,-1.0343994,-1.9987061,-1.5208008,84
93,0.63540554,-1.777853,1.0852966,-0.9430664,-2.0401247,-1.6046997,84
94,1.0734978,-1.7961845,1.3352203,-0.9430664,-2.0401247,-1.6046997,84
95,1.0734978,-1.7961845,1.3352203,-0.9505005,-1.9615357,-1.6046997,84
96,1.4079075,-1.6582966,1.5046539,-0.9505005,-1.9615357,-1.6046997,84
97,1.4079075,-1.6582966,1.5046539,-1.2053833,-1.8670167,-1.5877075,84
98,1.4893141,-1.6018562,1.3744354,-1.2053833,-1.8670167,-1.5877075,84
99,1.4893141,-1.6018562,1.3744354,-1.545227,-1.63125,-1.5292969,84
100,1.4574304,-1.7953148,1.1664581,-1.545227,-1.63125,-1.5292969,84
101,1.4574304,-1.7953148,1.1664581,-1.5431031,-1.4369019,-1.4443359,84
102,1.4395771,-2.1593723,1.1902008,-1.5431031,-1.4369019,-1.4443359,84
103,1.4395771,-2.1593723,1.1902008,-1.2436157,-1.2627319,-1.2414917,84
104,1.3733292,-2.2443066,1.2242126,-1.2436157,-1.2627319,-1.2414917,84
105,1.3733292,-2.2443066,1.2242126,-1.1108643,-1.173523,-1.002539,84
106,1.2828798,-1.7521839,1.0036011,-1.1108643,-1.173523,-1.002539,84
107,1.2828798,-1.7521839,1.0036011,-1.2627319,-1.0524536,-0.8506714,84
108,1.2985573,-1.1722069,0.76420593,-1.2627319,-1.0524536,-0.8506714,84
109,1.2985573,-1.1722069,0.76420593,-1.359375,-0.9154541,-0.6595093,84
110,1.4140413,-1.2023773,0.7279968,-1.359375,-0.9154541,-0.6595093,84
111,1.4140413,-1.2023773,0.7279968,-1.1544068,-0.79332274,-0.50870365,84
112,1.572798,-1.7128906,0.8338623,-1.1544068,-0.79332274,-0.50870365,84
113,1.572798,-1.7128906,0.8338623,-0.6956177,-0.8464233,-0.41099855,84
114,1.7638171,-1.915906,0.90208435,-0.6956177,-0.8464233,-0.41099855,84
115,1.7638171,-1.915906,0.90208435,-0.4704712,-0.8952759,-0.39082032,84
116,1.9703066,-1.4208469,0.80378723,-0.4704712,-0.8952759,-0.39082032,84
117,1.9703066,-1.4208469,0.80378723,-0.7041138,-0.84536135,-0.4630371,84
118,2.21908,-0.81640244,0.48840332,-0.7041138,-0.84536135,-0.4630371,84
119,2.21908,-0.81640244,0.48840332,-1.1087402,-0.7306641,-0.5798584,84
120,2.6093948,-0.8665619,0.007217407,-1.1087402,-0.7306641,-0.5798584,84
121,2.6093948,-0.8665619,0.007217407,-1.2871583,-0.77526855,-0.77526855,84
122,2.6093948,-0.8665619,0.007217407,-1.2871583,-0.77526855,-0.77526855,85
123,2.981205,-1.3708,-0.29066467,-1.2871583,-0.77526855,-0.77526855,85
124,2.981205,-1.3708,-0.29066467,-1.3774292,-0.9505005,-0.9600586,85
125,3.0282621,-1.585104,-0.25361633,-1.3774292,-0.9505005,-0.9600586,85
126,3.0282621,-1.585104,-0.25361633,-1.5749635,-1.075818,-1.1140503,85
127,2.6323023,-1.3731251,-0.22128296,-1.5749635,-1.075818,-1.1140503,85
128,2.6323023,-1.3731251,-0.22128296,-2.076233,-0.99935305,-1.0917481,85
129,1.648005,-1.1233654,-0.6147766,-2.076233,-0.99935305,-1.0917481,85
130,1.648005,-1.1233654,-0.6147766,-2.5488281,-0.71367186,-0.8591675,85
131,0.32515454,-1.1939564,-1.4255219,-2.5488281,-0.71367186,-0.8591675,85
132,0.32515454,-1.1939564,-1.4255219,-2.2440307,-0.4980835,-0.56817627,85
133,-0.55902934,-1.4084978,-2.2119598,-2.2440307,-0.4980835,-0.56817627,85
134,-0.55902934,-1.4084978,-2.2119598,-1.4698242,-0.40462646,-0.24213867,85
135,-0.64004564,-1.3279219,-2.5621185,-1.4698242,-0.40462646,-0.24213867,85
136,-0.64004564,-1.3279219,-2.5621185,-0.7827026,-0.23364258,0.08814698,85
137,-0.23952675,-0.92061424,-2.4169006,-0.7827026,-0.23364258,0.08814698,85
138,-0.23952675,-0.92061424,-2.4169006,-0.29099122,-0.058410645,0.38763428,85
139,0.08895731,-0.41802216,-2.0204926,-0.29099122,-0.058410645,0.38763428,85
140,0.08895731,-0.41802216,-2.0204926,-0.023364259,0.1083252,0.63826907,85
141,-0.03252077,0.11489868,-1.5783386,-0.023364259,0.1083252,0.63826907,85
142,-0.03252077,0.11489868,-1.5783386,0.08071289,0.3345337,0.8379273,85
143,-0.633939,0.7542963,-1.1356964,0.08071289,0.3345337,0.8379273,85
144,-0.633939,0.7542963,-1.1356964,0.08496094,0.49171144,1.0046631,85
145,-1.383262,1.3360538,-0.91426086,0.08496094,0.49171144,1.0046631,85
146,-1.383262,1.3360538,-0.91426086,-0.10513916,0.64782715,1.1161743,85
147,-1.8333918,1.5571117,-0.94252014,-0.10513916,0.64782715,1.1161743,85
148,-1.8333918,1.5571117,-0.94252014,-0.20496826,0.7147339,1.170337,85
149,-1.9517477,1.5061512,-0.9729309,-0.20496826,0.7147339,1.170337,85
150,-1.9517477,1.5061512,-0.9729309,-0.3079834,0.7742066,1.2255615,85
151,-1.9749236,1.4124527,-0.9342346,-0.3079834,0.7742066,1.2255615,85
152,-1.9749236,1.4124527,-0.9342346,-0.36108398,0.82836914,1.2319336,85
153,-1.9082836,1.2556572,-0.99502563,-0.36108398,0.82836914,1.2319336,85
154,-1.9082836,1.2556572,-0.99502563,-0.43754885,0.8379273,1.171399,85
155,-1.7555697,1.0244713,-1.2009888,-0.43754885,0.8379273,1.171399,85
156,-1.7555697,1.0244713,-1.2009888,-0.48215333,0.8050049,1.0821899,85
157,-1.6074466,0.77271366,-1.4003143,-0.48215333,0.8050049,1.0821899,85
158,-1.6074466,0.77271366,-1.4003143,-0.4715332,0.70942384,0.93138427,85
159,-1.3986282,0.5322943,-1.4562378,-0.4715332,0.70942384,0.93138427,85
160,-1.3986282,0.5322943,-1.4562378,-0.36002198,0.57242435,0.6924316,85
161,-1.024054,0.3089409,-1.3679504,-0.36002198,0.57242435,0.6924316,85
162,-1.024054,0.3089409,-1.3679504,-0.20603028,0.39082032,0.38869628,85
163,-0.41588628,0.09136677,-1.2103119,-0.20603028,0.39082032,0.38869628,85
164,-0.41588628,0.09136677,-1.2103119,-0.118945315,0.19647217,0.015930176,85
165,0.61100435,-0.16693306,-1.0018158,-0.118945315,0.19647217,0.015930176,85
166,0.61100435,-0.16693306,-1.0018158,-0.022302246,-0.060534667,-0.4970215,85
167,2.2294164,-0.4443493,-0.7531738,-0.022302246,-0.060534667,-0.4970215,85
168,2.2294164,-0.4443493,-0.7531738,-0.08920898,-0.33878174,-1.089624,85
169,4.1392093,-0.72465706,-0.43034363,-0.08920898,-0.33878174,-1.089624,85
170,4.1392093,-0.72465706,-0.43034363,-0.4067505,-0.6223389,-1.6588624,85
171,5.4914823,-1.1186056,-0.004714966,-0.4067505,-0.6223389,-1.6588624,85
172,5.4914823,-1.1186056,-0.004714966,-0.9228882,-0.68287355,-2.086853,85
173,5.4926734,-1.6175776,0.4893036,-0.9228882,-0.68287355,-2.086853,85
174,5.4926734,-1.6175776,0.4893036,-1.3073364,-0.6435791,-2.3916504,85
175,4.409263,-1.885993,0.8120117,-1.3073364,-0.6435791,-2.3916504,85
176,4.409263,-1.885993,0.8120117,-1.4878784,-0.71579593,-2.5721924,85
177,2.9539976,-1.7335625,0.8111267,-1.4878784,-0.71579593,-2.5721924,85
178,2.9539976,-1.7335625,0.8111267,-1.535669,-0.6425171,-2.6295412,85
179,1.266067,-1.4322596,0.7468262,-1.535669,-0.6425171,-2.6295412,85
180,1.266067,-1.4322596,0.7468262,-1.4230957,-0.4885254,-2.6019287,85
181,-0.53866005,-1.1849194,0.63742065,-1.4230957,-0.4885254,-2.6019287,85
182,-0.53866005,-1.1849194,0.63742065,-1.4082276,-0.30267334,-2.3757203,85
183,-1.7363725,-1.0391827,0.11364746,-1.4082276,-0.30267334,-2.3757203,85
184,-1.7363725,-1.0391827,0.11364746,-1.3307008,-0.2177124,-2.0103881,85
185,-1.457799,-0.9863148,-0.65057373,-1.3307008,-0.2177124,-2.0103881,85
186,-1.457799,-0.9863148,-0.65057373,-0.99510497,-0.22939454,-1.6885986,85
187,0.11297226,-0.93348503,-1.0200043,-0.99510497,-0.22939454,-1.6885986,85
188,0.11297226,-0.93348503,-1.0200043,-0.47684327,-0.32178956,-1.450708,85
189,1.5928316,-0.8794174,-0.8209076,-0.47684327,-0.32178956,-1.450708,85
190,1.5928316,-0.8794174,-0.8209076,-0.23789063,-0.3175415,-1.2138795,85
191,1.6848245,-0.8078432,-0.4649048,-0.23789063,-0.3175415,-1.2138795,85
192,1.6848245,-0.8078432,-0.4649048,-0.48746338,-0.11151123,-1.002539,85
193,0.25563526,-0.57645035,-0.38894653,-0.48746338,-0.11151123,-1.002539,85
194,0.25563526,-0.57645035,-0.38894653,-1.1629028,0.115759276,-0.725354,85
195,-1.74786,0.035324097,-0.8167267,-1.1629028,0.115759276,-0.725354,85
196,-1.74786,0.035324097,-0.8167267,-2.3173096,0.2442627,-0.55543214,85
197,-3.3403292,0.96992207,-1.6068878,-2.3173096,0.2442627,-0.55543214,85
198,-3.3403292,0.96992207,-1.6068878,-3.1446168,0.26762697,-0.50020754,85
199,-4.11594,1.5992165,-2.1613464,-3.1446168,0.26762697,-0.50020754,85
200,-4.11594,1.5992165,-2.1613464,-3.5906618,0.28780517,-0.67650145,85
201,-3.9222322,1.4136133,-2.1457062,-3.5906618,0.28780517,-0.67650145,85
202,-3.9222322,1.4136133,-2.1457062,-3.531189,0.39294434,-0.6956177,85
203,-3.027141,0.6628723,-2.0617523,-3.531189,0.39294434,-0.6956177,85
204,-3.027141,0.6628723,-2.0617523,-3.6713746,0.44073486,-0.7391602,85
205,-1.9587003,-0.34748554,-2.4296875,-3.6713746,0.44073486,-0.7391602,85
206,-1.9587003,-0.34748554,-2.4296875,-3.722351,0.63614506,-0.64782715,85
207,-0.88603985,-1.6718607,-2.7879791,-3.722351,0.63614506,-0.64782715,85
208,-0.88603985,-1.6718607,-2.7879791,-2.9587648,0.66588134,-0.47365722,85
209,0.35139763,-2.9038343,-2.4988403,-2.9587648,0.66588134,-0.47365722,85
210,0.35139763,-2.9038343,-2.4988403,-1.4868164,0.42799073,-0.30479738,85
211,2.0833888,-3.4823332,-1.6140289,-1.4868164,0.42799073,-0.30479738,85
212,2.0833888,-3.4823332,-1.6140289,0.16885987,0.045666505,-0.15930176,85
213,4.276733,-3.330874,-0.37878418,0.16885987,0.045666505,-0.15930176,85
214,4.276733,-3.330874,-0.37878418,1.5558472,-0.45029297,-0.2793091,85
215,5.979382,-2.688613,1.1275635,1.5558472,-0.45029297,-0.2793091,85
216,5.979382,-2.688613,1.1275635,2.6741455,-0.6053467,-0.39188233,85
217,5.942002,-1.7232533,2.6911469,2.6741455,-0.6053467,-0.39188233,85
218,5.942002,-1.7232533,2.6911469,2.977881,-0.32072756,-0.56817627,85
219,5.942002,-1.7232533,2.6911469,2.977881,-0.32072756,-0.56817627,86
220,3.9394536,-0.60580015,3.636383,2.977881,-0.32072756,-0.56817627,86
221,3.9394536,-0.60580015,3.636383,2.5074098,-0.21558838,-0.48109132,86
222,1.3635254,0.3607335,3.2576752,2.5074098,-0.21558838,-0.48109132,86
223,1.3635254,0.3607335,3.2576752,1.5930176,-0.19116211,-0.2803711,86
224,0.31726074,0.83695126,1.9738617,1.5930176,-0.19116211,-0.2803711,86
225,0.31726074,0.83695126,1.9738617,1.0089111,-0.19541016,-0.14761963,86
226,1.4129515,0.67833805,1.0666199,1.0089111,-0.19541016,-0.14761963,86
227,1.4129515,0.67833805,1.0666199,0.92713624,-0.2177124,-0.021240234,86
228,2.3031273,0.24697971,1.0011749,0.92713624,-0.2177124,-0.021240234,86
229,2.3031273,0.24697971,1.0011749,0.8506714,-0.03186035,0.25063476,86
230,1.3269625,-0.06571007,0.95581055,0.8506714,-0.03186035,0.25063476,86
231,1.3269625,-0.06571007,0.95581055,0.79332274,0.08071289,0.61278075,86
232,-0.08639145,-0.24496317,0.1898346,0.79332274,0.08071289,0.61278075,86
233,-0.08639145,-0.24496317,0.1898346,0.9133301,0.12213135,1.0503296,86
234,-0.33280945,-0.3044176,-0.7435303,0.9133301,0.12213135,1.0503296,86
235,-0.33280945,-0.3044176,-0.7435303,1.5834595,0.04460449,1.4836304,86
236,0.39979267,-0.05498457,-0.9292755,1.5834595,0.04460449,1.4836304,86
237,0.39979267,-0.05498457,-0.9292755,2.2089844,0.039294433,1.6928467,86
238,0.93355465,0.56868315,-0.30581665,2.2089844,0.039294433,1.6928467,86
239,0.93355465,0.56868315,-0.30581665,2.5785644,0.11257324,1.8617066,86
240,0.14631844,1.2336817,0.5900574,2.5785644,0.11257324,1.8617066,86
241,0.14631844,1.2336817,0.5900574,2.6529052,0.3430298,1.8946289,86
242,-1.8408189,1.854414,1.2782593,2.6529052,0.3430298,1.8946289,86
243,-1.8408189,1.854414,1.2782593,1.9233032,0.57242435,2.0008302,86
244,-3.8431144,2.3104477,1.4635925,1.9233032,0.57242435,2.0008302,86
245,-3.8431144,2.3104477,1.4635925,1.4124756,0.8644776,2.1420777,86
246,-4.7890544,2.7191105,0.9290161,1.4124756,0.8644776,2.1420777,86
247,-4.7890544,2.7191105,0.9290161,0.026550293,1.2786621,2.1102173,86
248,-4.878448,2.8334303,0.017105103,0.026550293,1.2786621,2.1102173,86
249,-4.878448,2.8334303,0.017105103,-0.54375,1.5186768,2.4298828,86
250,-4.834155,2.2537928,-0.71713257,-0.54375,1.5186768,2.4298828,86
251,-4.834155,2.2537928,-0.71713257,-0.4725952,1.2999023,2.6921997,86
252,-4.3032494,1.6452465,-1.3398285,-0.4725952,1.2999023,2.6921997,86
253,-4.3032494,1.6452465,-1.3398285,-0.29948732,1.2776002,2.811145,86
254,-3.2427583,1.3945293,-1.8385925,-0.29948732,1.2776002,2.811145,86
255,-3.2427583,1.3945293,-1.8385925,-0.10089111,1.2149414,2.8823,86
256,-2.18355,1.2722759,-2.0834808,-0.10089111,1.2149414,2.8823,86
257,-2.18355,1.2722759,-2.0834808,0.1709839,1.1352905,2.8504395,86
258,-1.3307633,1.143919,-2.0105133,0.1709839,1.1352905,2.8504395,86
259,-1.3307633,1.143919,-2.0105133,0.5501221,1.0216553,2.701758,86
260,-0.5744007,1.0639992,-1.6417999,0.5501221,1.0216553,2.701758,86
261,-0.5744007,1.0639992,-1.6417999,0.8612915,0.903772,2.3884645,86
262,-0.5744007,1.0639992,-1.6417999,0.8878418,0.85598147,1.910559,86
263,0.18276457,1.1512365,-1.090683,0.8878418,0.85598147,1.910559,86
264,2.8013875,1.4519215,0.052230835,0.8878418,0.85598147,1.910559,86
265,2.8013875,1.4519215,0.052230835,0.68074954,0.8071289,1.3200806,86
266,2.8013875,1.4519215,0.052230835,0.32603762,0.68712157,0.6818115,86
267,2.8013875,1.4519215,0.052230835,-0.24001466,0.70092773,0.124255374,86
268,2.6610441,1.2002697,0.12869263,-0.24001466,0.70092773,0.124255374,86
269,2.6610441,1.2002697,0.12869263,-0.89846194,0.75509036,-0.32178956,86
270,1.7045066,1.142479,-0.014404297,-0.89846194,0.75509036,-0.32178956,86
271,1.7045066,1.142479,-0.014404297,-1.4846925,0.66481936,-0.64782715,86
272,0.86983085,1.0536566,-0.4889984,-1.4846925,0.66481936,-0.64782715,86
273,0.86983085,1.0536566,-0.4889984,-1.7724975,0.3695801,-1.0949341,86
274,0.66480994,0.64911366,-1.0035858,-1.7724975,0.3695801,-1.0949341,86
275,0.66480994,0.64911366,-1.0035858,-1.9137452,0.124255374,-1.5813354,86
276,0.35061026,0.02322197,-0.9541626,-1.9137452,0.124255374,-1.5813354,86
277,0.35061026,0.02322197,-0.9541626,-1.8670167,-0.05522461,-1.9753418,86
278,-0.19565916,-0.5657854,-0.3486786,-1.8670167,-0.05522461,-1.9753418,86
279,-0.19565916,-0.5657854,-0.3486786,-1.7916138,-0.271875,-2.2365968,86
280,-0.104171276,-1.0364904,0.23129272,-1.7916138,-0.271875,-2.2365968,86
281,-0.104171276,-1.0364904,0.23129272,-1.5707153,-0.4694092,-2.5116577,86
282,0.94265175,-1.4063168,0.58291626,-1.5707153,-0.4694092,-2.5116577,86
283,0.94265175,-1.4063168,0.58291626,-1.085376,-0.7540283,-2.814331,86
284,2.274312,-1.5694017,0.9276886,-1.085376,-0.7540283,-2.814331,86
285,2.274312,-1.5694017,0.9276886,-0.6701294,-0.91120607,-3.1191285,86
286,2.910624,-1.5945959,1.2679443,-0.6701294,-0.91120607,-3.1191285,86
287,2.910624,-1.5945959,1.2679443,-0.54906005,-0.8772217,-3.2986085,86
288,2.2461753,-1.6361256,1.4139252,-0.54906005,-0.8772217,-3.2986085,86
289,2.2461753,-1.6361256,1.4139252,-0.57454836,-0.67331547,-3.2911744,86
290,0.56809473,-1.520155,1.2018127,-0.57454836,-0.67331547,-3.2911744,86
291,0.56809473,-1.520155,1.2018127,-0.7742066,-0.45347902,-3.081958,86
292,-1.3551798,-1.0813704,0.58673096,-0.7742066,-0.45347902,-3.081958,86
293,-1.3551798,-1.0813704,0.58673096,-1.2234375,-0.2177124,-2.802649,86
294,-2.8856087,-0.5557213,-0.287323,-1.2234375,-0.2177124,-2.802649,86
295,-2.8856087,-0.5557213,-0.287323,-1.6365601,-0.095581055,-2.4957275,86
296,-3.6968048,-0.24865437,-1.1938629,-1.6365601,-0.095581055,-2.4957275,86
297,-3.6968048,-0.24865437,-1.1938629,-1.8585205,-0.0998291,-2.176062,86
298,-3.4462867,-0.22248363,-1.7828827,-1.8585205,-0.0998291,-2.176062,86
299,-3.4462867,-0.22248363,-1.7828827,-1.9413575,-0.033984374,-2.077295,86
300,-2.2195415,-0.32937813,-1.8215332,-1.9413575,-0.033984374,-2.077295,86
301,-2.2195415,-0.32937813,-1.8215332,-2.162256,-0.046728518,-1.8733886,86
302,-0.77536476,-0.71502876,-1.4408112,-2.162256,-0.046728518,-1.8733886,86
303,-0.77536476,-0.71502876,-1.4408112,-2.2227905,-0.1529297,-1.8287842,86
304,0.41713494,-1.4118786,-0.9982147,-2.2227905,-0.1529297,-1.8287842,86
305,0.41713494,-1.4118786,-0.9982147,-2.0231323,-0.24638672,-1.8171021,86
306,1.4228681,-2.0853004,-0.8220062,-2.0231323,-0.24638672,-1.8171021,86
307,1.4228681,-2.0853004,-0.8220062,-2.0241945,-0.22302246,-1.7841797,86
308,2.2850351,-2.6727695,-0.94073486,-2.0241945,-0.22302246,-1.7841797,86
309,2.2850351,-2.6727695,-0.94073486,-2.162256,-0.043542482,-1.8914429,86
310,2.9336925,-3.143074,-1.039444,-2.162256,-0.043542482,-1.8914429,86
311,2.9336925,-3.143074,-1.039444,-2.0061402,0.121069334,-1.897815,86
312,2.9336925,-3.143074,-1.039444,-1.3264526,0.17947999,-1.8298463,86
313,3.5321836,-3.4659119,-0.83055115,-1.3264526,0.17947999,-1.8298463,86
314,4.94407,-3.409546,0.1197052,-1.3264526,0.17947999,-1.8298463,86
315,4.94407,-3.409546,0.1197052,-0.34727785,0.04141846,-1.5728394,86
316,4.94407,-3.409546,0.1197052,0.38657227,-0.0722168,-1.2298096,86
317,4.94407,-3.409546,0.1197052,0.6573853,-0.035046387,-0.74022216,86
318,3.9555979,-2.0853395,0.09863281,0.6573853,-0.035046387,-0.74022216,86
319,3.9555979,-2.0853395,0.09863281,1.0354614,-0.06903076,-0.30479738,86
320,4.31952,-1.2517066,0.3631897,1.0354614,-0.06903076,-0.30479738,86
321,4.31952,-1.2517066,0.3631897,1.5654052,-0.24744873,0.1720459,86
322,4.31952,-1.2517066,0.3631897,1.5654052,-0.24744873,0.1720459,86
323,4.3589363,-0.47924614,0.82292175,1.5654052,-0.24744873,0.1720459,86
324,4.3589363,-0.47924614,0.82292175,1.6376221,-0.23364258,0.7943848,86
325,2.5573149,0.46580982,0.93696594,1.6376221,-0.23364258,0.7943848,86
326,2.5573149,0.46580982,0.93696594,1.2776002,-0.0998291,1.3190186,86
327,0.70689964,1.0253582,0.6205139,1.2776002,-0.0998291,1.3190186,86
328,0.70689964,1.0253582,0.6205139,1.1066163,0.016992187,1.7778076,86
329,0.6804123,0.92198324,0.25001526,1.1066163,0.016992187,1.7778076,86
330,0.6804123,0.92198324,0.25001526,1.273352,0.053100586,2.1537597,86
331,1.5457458,0.5653944,0.022415161,1.273352,0.053100586,2.1537597,86
332,1.5457458,0.5653944,0.022415161,1.6397461,0.003186035,2.4691772,86
333,1.6037235,0.38463974,-0.01876831,1.6397461,0.003186035,2.4691772,86
334,1.6037235,0.38463974,-0.01876831,1.9732178,0.011682129,2.6571534,86
335,0.4185257,0.52933025,0.24835205,1.9732178,0.011682129,2.6571534,86
336,0.4185257,0.52933025,0.24835205,2.3767822,0.070092775,2.9428346,86
337,-1.4305363,1.0585842,0.7638855,2.3767822,0.070092775,2.9428346,86
338,-1.4305363,1.0585842,0.7638855,2.4702394,0.28461915,2.8525636,86
339,-3.3239698,1.8938398,1.2814331,2.4702394,0.28461915,2.8525636,86
340,-3.3239698,1.8938398,1.2814331,2.2907593,0.6488892,2.9237182,86
341,-4.523788,2.7942467,1.2855225,2.2907593,0.6488892,2.9237182,86
342,-4.523788,2.7942467,1.2855225,0.8952759,1.2255615,2.7516725,86
343,-5.2118893,3.1075287,0.7862854,0.8952759,1.2255615,2.7516725,86
344,-5.2118893,3.1075287,0.7862854,0.5384399,1.268042,3.1180665,86
345,-5.5602827,2.791565,0.098358154,0.5384399,1.268042,3.1180665,86
346,-5.5602827,2.791565,0.098358154,0.42268068,1.1512207,3.2848022,86
347,-4.983822,2.4622555,-0.675827,0.42268068,1.1512207,3.2848022,86
348,-4.983822,2.4622555,-0.675827,0.35789797,1.2308716,3.3071046,86
349,-3.8773167,2.1611376,-1.3113708,0.35789797,1.2308716,3.3071046,86
350,-3.8773167,2.1611376,-1.3113708,0.5150757,1.1236085,3.346399,86
351,-2.8336039,1.8603439,-1.6794128,0.5150757,1.1236085,3.346399,86
352,-2.8336039,1.8603439,-1.6794128,0.7848267,1.0174073,3.359143,86
353,-1.9198372,1.6441345,-1.7708282,0.7848267,1.0174073,3.359143,86
354,-1.9198372,1.6441345,-1.7708282,1.0237793,0.9834229,3.25188,86
355,-1.0446712,1.5356693,-1.5718536,1.0237793,0.9834229,3.25188,86
356,-1.0446712,1.5356693,-1.5718536,1.2329956,0.92713624,3.0097413,86
357,-0.17403042,1.5659008,-1.1312256,1.2329956,0.92713624,3.0097413,86
358,-0.17403042,1.5659008,-1.1312256,1.2722901,0.87615967,2.6454713,86
359,0.767514,1.6439438,-0.5663452,1.2722901,0.87615967,2.6454713,86
360,0.767514,1.6439438,-0.5663452,1.1119263,0.817749,2.1303957,86
361,1.6556494,1.6009712,-0.09951782,1.1119263,0.817749,2.1303957,86
362,1.6556494,1.6009712,-0.09951782,0.7349121,0.7593384,1.4708862,86
363,1.9575396,1.4591455,0.11024475,0.7349121,0.7593384,1.4708862,86
364,1.9575396,1.4591455,0.11024475,0.10301514,0.7593384,0.904834,86
365,1.2600014,1.2964792,0.10394287,0.10301514,0.7593384,0.904834,86
366,1.2600014,1.2964792,0.10394287,-0.67437744,0.8050049,0.3695801,86
367,-0.06891537,1.1092539,-0.08067322,-0.67437744,0.8050049,0.3695801,86
368,-0.06891537,1.1092539,-0.08067322,-1.2319336,0.6531372,-0.0722168,86
369,-0.9743583,0.8354616,-0.4449005,-1.2319336,0.6531372,-0.0722168,86
370,-0.9743583,0.8354616,-0.4449005,-1.4645141,0.29948732,-0.631897,86
371,-1.0912054,0.49332047,-0.6964264,-1.4645141,0.29948732,-0.631897,86
372,-1.0912054,0.49332047,-0.6964264,-1.5080566,0.058410645,-1.2945923,86
373,-0.9728422,0.054385185,-0.47254944,-1.5080566,0.058410645,-1.2945923,86
374,-0.9728422,0.054385185,-0.47254944,-1.4305298,-0.16885987,-1.9445435,86
375,-0.7936424,-0.42227554,0.07611084,-1.4305298,-0.16885987,-1.9445435,86
376,-0.7936424,-0.42227554,0.07611084,-1.442212,-0.37595215,-2.4160767,86
377,-0.16167176,-0.8757353,0.5212555,-1.442212,-0.37595215,-2.4160767,86
378,-0.16167176,-0.8757353,0.5212555,-1.3848633,-0.58623046,-2.8684938,86
379,1.0294273,-1.2867336,0.7260132,-1.3848633,-0.58623046,-2.8684938,86
380,1.0294273,-1.2867336,0.7260132,-1.1108643,-0.8294312,-3.341089,86
381,2.2770696,-1.5597706,0.8637848,-1.1108643,-0.8294312,-3.341089,86
382,2.2770696,-1.5597706,0.8637848,-0.87403566,-1.0142212,-3.7425294,86
383,2.9374151,-1.6874399,1.01828,-0.87403566,-1.0142212,-3.7425294,86
384,2.9374151,-1.6874399,1.01828,-0.8442993,-0.99510497,-4.0165286,86
385,2.5749931,-1.7949715,1.0622253,-0.8442993,-0.99510497,-4.0165286,86
386,2.5749931,-1.7949715,1.0622253,-0.99085695,-0.83686525,-4.088745,86
387,1.2635226,-1.842288,0.8596039,-0.99085695,-0.83686525,-4.088745,86
388,1.2635226,-1.842288,0.8596039,-1.1395386,-0.63933104,-3.9347534,86
389,-0.43561745,-1.7035303,0.43936157,-1.1395386,-0.63933104,-3.9347534,86
390,-0.43561745,-1.7035303,0.43936157,-1.2160034,-0.5501221,-3.6756227,86
391,-1.8256056,-1.3317089,-0.2024231,-1.2160034,-0.5501221,-3.6756227,86
392,-1.8256056,-1.3317089,-0.2024231,-1.4974365,-0.52250975,-3.4090576,86
393,-2.3461046,-1.0212269,-0.861145,-1.4974365,-0.52250975,-3.4090576,86
394,-2.3461046,-1.0212269,-0.861145,-1.5898316,-0.30161133,-3.1212525,86
395,-1.933146,-1.1201067,-1.0748291,-1.5898316,-0.30161133,-3.1212525,86
396,-1.933146,-1.1201067,-1.0748291,-1.2839721,-0.362146,-2.8164551,86
397,-0.8975301,-1.291666,-0.9187927,-1.2839721,-0.362146,-2.8164551,86
398,-0.8975301,-1.291666,-0.9187927,-1.2393677,-0.30373535,-2.6730835,86
399,0.40571856,-1.4076004,-0.76875305,-1.2393677,-0.30373535,-2.6730835,86
400,0.40571856,-1.4076004,-0.76875305,-1.3827393,-0.32178956,-2.3895264,86
401,1.616152,-1.6640072,-0.7255554,-1.3827393,-0.32178956,-2.3895264,86
402,1.616152,-1.6640072,-0.7255554,-1.6992188,-0.34090576,-2.261023,86
403,2.5407124,-2.0630293,-0.67648315,-1.6992188,-0.34090576,-2.261023,86
404,2.5407124,-2.0630293,-0.67648315,-2.1261475,-0.16885987,-2.1994264,86
405,3.2068133,-2.7833824,-0.47521973,-2.1261475,-0.16885987,-2.1994264,86
406,3.2068133,-2.7833824,-0.47521973,-1.8351563,-0.17523193,-2.086853,86
407,3.4719934,-3.3122287,-0.13677979,-1.8351563,-0.17523193,-2.086853,86
408,3.4719934,-3.3122287,-0.13677979,-1.3763672,-0.107263185,-1.8022339,86
409,3.2522411,-3.2001495,0.11532593,-1.3763672,-0.107263185,-1.8022339,86
410,3.2522411,-3.2001495,0.11532593,-1.173523,0.0722168,-1.6163819,86
411,3.2522411,-3.2001495,0.11532593,-0.62127686,0.09239502,-1.2170655,86
412,2.7377305,-2.869495,0.18666077,-0.62127686,0.09239502,-1.2170655,86
413,2.203063,-1.110867,-0.83361816,-0.62127686,0.09239502,-1.2170655,86
414,2.203063,-1.110867,-0.83361816,0.090270996,-0.057348635,-0.6637573,86
415,2.203063,-1.110867,-0.83361816,0.2548828,-0.06478272,-0.14018555,86
416,2.203063,-1.110867,-0.83361816,0.45772704,-0.05628662,0.22196046,86
417,3.12506,-0.46476793,-0.676651,0.45772704,-0.05628662,0.22196046,86
418,3.12506,-0.46476793,-0.676651,0.8007569,-0.17947999,0.6053467,86
419,3.6409903,-0.20761776,-0.17556763,0.8007569,-0.17947999,0.6053467,86
420,3.6409903,-0.20761776,-0.17556763,0.7975708,-0.14761963,1.002539,86
421,2.4056025,0.03545618,0.1587677,0.7975708,-0.14761963,1.002539,86
422,2.4056025,0.03545618,0.1587677,0.7678345,-0.11044922,1.3912354,86
423,0.5958929,0.18911934,0.073913574,0.7678345,-0.11044922,1.3912354,86
424,0.5958929,0.18911934,0.073913574,1.0906861,-0.13381349,1.81073,86
425,-0.20139885,0.10494518,-0.14680481,1.0906861,-0.13381349,1.81073,86
426,-0.20139885,0.10494518,-0.14680481,1.9041871,-0.2623169,2.1378295,86
427,-0.20139885,0.10494518,-0.14680481,1.9041871,-0.2623169,2.1378295,86
428,0.085035324,-0.04621935,-0.14906311,1.9041871,-0.2623169,2.1378295,86
429,0.085035324,-0.04621935,-0.14906311,2.9162843,-0.39082032,2.3852785,86
430,0.7243271,0.021923542,0.13638306,2.9162843,-0.39082032,2.3852785,86
431,0.7243271,0.021923542,0.13638306,3.810498,-0.4885254,2.5806885,86
432,0.8841982,0.5566988,0.5847473,3.810498,-0.4885254,2.5806885,86
433,0.8841982,0.5566988,0.5847473,4.2374268,-0.21983643,2.5923707,86
434,-0.33153343,1.3775735,1.154953,4.2374268,-0.21983643,2.5923707,86
435,-0.33153343,1.3775735,1.154953,4.077063,-0.011682129,2.5976808,86
436,-2.5142622,2.1192584,1.6450043,4.077063,-0.011682129,2.5976808,86
437,-2.5142622,2.1192584,1.6450043,3.5779176,0.42374268,2.6401613,86
438,-4.0859823,2.8708339,1.6414032,3.5779176,0.42374268,2.6401613,86
439,-4.0859823,2.8708339,1.6414032,2.0539308,1.1013062,2.5859985,86
440,-4.9678216,3.2516594,1.3343506,2.0539308,1.1013062,2.5859985,86
441,-4.9678216,3.2516594,1.3343506,1.4145997,1.2627319,3.0989501,86
442,-5.452932,3.1683445,0.80332947,1.4145997,1.2627319,3.0989501,86
443,-5.452932,3.1683445,0.80332947,0.7699585,1.2765381,3.3347168,86
444,-5.160673,2.8387403,4.12E-04,0.7699585,1.2765381,3.3347168,86
445,-5.160673,2.8387403,4.12E-04,0.45666504,1.4199097,3.3368409,86
446,-4.317528,2.2837124,-0.7503357,0.45666504,1.4199097,3.3368409,86
447,-4.317528,2.2837124,-0.7503357,0.44498292,1.3413209,3.4653442,86
448,-3.2525208,1.7779589,-1.2209167,0.44498292,1.3413209,3.4653442,86
449,-3.2525208,1.7779589,-1.2209167,0.635083,1.2924683,3.534375,86
450,-2.122085,1.4766636,-1.3757629,0.635083,1.2924683,3.534375,86
451,-2.122085,1.4766636,-1.3757629,0.97386473,1.2138795,3.5173829,86
452,-1.0142452,1.4273758,-1.2793427,0.97386473,1.2138795,3.5173829,86
453,-1.0142452,1.4273758,-1.2793427,1.2414917,1.1246704,3.344275,86
454,0.06444621,1.5844536,-1.1437225,1.2414917,1.1246704,3.344275,86
455,0.06444621,1.5844536,-1.1437225,1.2160034,1.0142212,2.9534547,86
456,1.1806829,1.6689663,-1.1040497,1.2160034,1.0142212,2.9534547,86
457,1.1806829,1.6689663,-1.1040497,0.8963379,0.89102787,2.3183715,86
458,2.1303253,1.5068035,-1.0265808,0.8963379,0.89102787,2.3183715,86
459,2.1303253,1.5068035,-1.0265808,0.34833986,0.7412842,1.6089478,86
460,2.2705688,1.2282448,-0.7382355,0.34833986,0.7412842,1.6089478,86
461,2.2705688,1.2282448,-0.7382355,-0.23364258,0.67437744,1.0099732,86
462,0.96794415,1.0232697,-0.22427368,-0.23364258,0.67437744,1.0099732,86
463,0.96794415,1.0232697,-0.22427368,-0.93563235,0.63933104,0.4694092,86
464,-1.098362,0.95071983,0.28466797,-0.93563235,0.63933104,0.4694092,86
465,-1.098362,0.95071983,0.28466797,-1.4029175,0.4354248,0.08602295,86
466,-2.1890047,0.9279709,0.4122162,-1.4029175,0.4354248,0.08602295,86
467,-2.1890047,0.9279709,0.4122162,-1.4273437,0.10513916,-0.4056885,86
468,-2.024788,0.8105526,0.16941833,-1.4273437,0.10513916,-0.4056885,86
469,-2.024788,0.8105526,0.16941833,-1.3211426,-0.10301514,-1.0482056,86
470,-1.7147399,0.46337128,0.07763672,-1.3211426,-0.10301514,-1.0482056,86
471,-1.7147399,0.46337128,0.07763672,-1.2892822,-0.22939454,-1.6163819,86
472,-1.494668,-0.15823364,0.29563904,-1.2892822,-0.22939454,-1.6163819,86
473,-1.494668,-0.15823364,0.29563904,-1.4039795,-0.4715332,-2.1197755,86
474,-0.76277536,-0.8487425,0.50653076,-1.4039795,-0.4715332,-2.1197755,86
475,-0.76277536,-0.8487425,0.50653076,-1.5016845,-0.7880127,-2.6093628,86
476,0.706186,-1.4335966,0.6608887,-1.5016845,-0.7880127,-2.6093628,86
477,0.706186,-1.4335966,0.6608887,-1.4029175,-1.075818,-3.1924074,86
478,2.3418164,-1.9582787,1.0296173,-1.4029175,-1.075818,-3.1924074,86
479,2.3418164,-1.9582787,1.0296173,-1.0174073,-1.1384766,-3.7765138,86
480,3.3141758,-2.497532,1.7449799,-1.0174073,-1.1384766,-3.7765138,86
481,3.3141758,-2.497532,1.7449799,-0.39294434,-1.0386475,-4.1078615,86
482,3.1409283,-2.9059963,2.3697662,-0.39294434,-1.0386475,-4.1078615,86
483,3.1409283,-2.9059963,2.3697662,0.2262085,-0.811377,-4.087683,86
484,1.8010969,-2.8155193,2.286377,0.2262085,-0.811377,-4.087683,86
485,1.8010969,-2.8155193,2.286377,0.6138428,-0.6690674,-3.7605836,86
486,-0.070072174,-2.131895,1.5421143,0.6138428,-0.6690674,-3.7605836,86
487,-0.070072174,-2.131895,1.5421143,0.73597413,-0.59897465,-3.348523,86
488,-1.581131,-1.266222,0.6623535,0.73597413,-0.59897465,-3.348523,86
489,-1.581131,-1.266222,0.6623535,0.6085327,-0.6637573,-3.090454,86
490,-2.296179,-0.56997204,0.05328369,0.6085327,-0.6637573,-3.090454,86
491,-2.296179,-0.56997204,0.05328369,0.3345337,-0.7062378,-2.5031617,86
492,-2.0544114,-0.31728172,-0.008728027,0.3345337,-0.7062378,-2.5031617,86
493,-2.0544114,-0.31728172,-0.008728027,0.3440918,-0.7189819,-2.1781862,86
494,-1.0758045,-0.24337578,0.33758545,0.3440918,-0.7189819,-2.1781862,86
495,-1.0758045,-0.24337578,0.33758545,-0.07540283,-0.6669434,-1.8702027,86
496,-0.057127953,-0.36717415,0.7300873,-0.07540283,-0.6669434,-1.8702027,86
497,-0.057127953,-0.36717415,0.7300873,-0.8028809,-0.4258667,-1.8213501,86
498,0.52291346,-0.8542986,0.8899994,-0.8028809,-0.4258667,-1.8213501,86
499,0.52291346,-0.8542986,0.8899994,-1.3710572,-0.35895997,-1.5675293,86
500,0.7371173,-1.4356365,0.72206116,-1.3710572,-0.35895997,-1.5675293,86
501,0.7371173,-1.4356365,0.72206116,-1.8648926,-0.24213867,-1.4114136,86
502,0.9040494,-2.1565046,0.37861633,-1.8648926,-0.24213867,-1.4114136,86
503,0.9040494,-2.1565046,0.37861633,-1.8500245,-0.28568116,-1.3115845,86
504,1.2604344,-2.7810268,0.027862549,-1.8500245,-0.28568116,-1.3115845,86
505,1.2604344,-2.7810268,0.027862549,-1.5877075,-0.2166504,-1.1076783,86
506,2.012034,-3.2126265,-0.25170898,-1.5877075,-0.2166504,-1.1076783,86
507,2.012034,-3.2126265,-0.25170898,-1.0630738,-0.087084964,-1.0099732,86
508,3.04919,-3.6050134,-0.530777,-1.0630738,-0.087084964,-1.0099732,86
509,3.04919,-3.6050134,-0.530777,-0.39613038,0.025488282,-0.95581055,86
510,3.04919,-3.6050134,-0.530777,0.4088745,-0.039294433,-0.7519043,86
511,3.8550625,-3.7614522,-0.89341736,0.4088745,-0.039294433,-0.7519043,86
512,3.4840136,-1.409565,-1.4335175,0.4088745,-0.039294433,-0.7519043,86
513,3.4840136,-1.409565,-1.4335175,0.813501,-0.083898924,-0.23045655,86
514,3.4840136,-1.409565,-1.4335175,0.7476563,-0.040356446,0.32178956,86
515,3.4840136,-1.409565,-1.4335175,1.1384766,-0.14761963,0.66588134,86
516,3.215055,-0.82555246,-0.76297,1.1384766,-0.14761963,0.66588134,86
517,3.215055,-0.82555246,-0.76297,1.445398,-0.20709229,0.8750977,86
518,3.215055,-0.82555246,-0.76297,1.445398,-0.20709229,0.8750977,87
519,3.361168,0.04993391,0.34059143,1.445398,-0.20709229,0.8750977,87
520,3.361168,0.04993391,0.34059143,1.9753418,-0.23682861,1.5282348,87
521,2.1513004,0.392828,0.5825958,1.9753418,-0.23682861,1.5282348,87
522,2.1513004,0.392828,0.5825958,2.0263183,-0.2357666,1.7332032,87
523,0.35794258,0.9718795,0.060256958,2.0263183,-0.2357666,1.7332032,87
524,0.35794258,0.9718795,0.060256958,2.52334,-0.35577393,2.357666,87
525,0.10595894,0.9712901,0.10475159,2.52334,-0.35577393,2.357666,87
526,0.10595894,0.9712901,0.10475159,2.7814088,-0.40250245,2.4171388,87
527,1.4958019,0.8038511,-0.10877991,2.7814088,-0.40250245,2.4171388,87
528,1.4958019,0.8038511,-0.10877991,3.4674683,-0.44498292,2.5031617,87
529,1.4100323,0.9462061,0.2495575,3.4674683,-0.44498292,2.5031617,87
530,1.4100323,0.9462061,0.2495575,3.62677,-0.3069214,2.526526,87
531,-0.16534615,1.711689,0.68704224,3.62677,-0.3069214,2.526526,87
532,-0.16534615,1.711689,0.68704224,3.274182,-0.013806152,2.5913086,87
533,-1.5055189,2.0920196,0.96961975,3.274182,-0.013806152,2.5913086,87
534,-1.5055189,2.0920196,0.96961975,3.074524,0.10513916,2.6072388,87
535,-4.746444,3.2397165,1.0529327,3.074524,0.10513916,2.6072388,87
536,-4.746444,3.2397165,1.0529327,1.7459472,0.8358032,2.6964478,87
537,-4.920434,3.3024302,0.8278198,1.7459472,0.8358032,2.6964478,87
538,-4.920434,3.3024302,0.8278198,1.6790406,0.7784546,3.0150514,87
539,-5.9609566,3.4822521,0.057418823,1.6790406,0.7784546,3.0150514,87
540,-5.9609566,3.4822521,0.057418823,1.2850342,0.85598147,3.169043,87
541,-5.2462554,3.2990217,-0.28134155,1.2850342,0.85598147,3.169043,87
542,-5.2462554,3.2990217,-0.28134155,1.2244996,0.8772217,3.163733,87
543,-4.4773755,2.810543,-0.9506531,1.2244996,0.8772217,3.163733,87
544,-4.4773755,2.810543,-0.9506531,1.2839721,0.83474123,3.170105,87
545,-3.622025,2.6150484,-0.93518066,1.2839721,0.83474123,3.170105,87
546,-3.622025,2.6150484,-0.93518066,1.2988404,0.8485474,3.149927,87
547,-2.3161626,2.3143415,-0.7870941,1.2988404,0.8485474,3.149927,87
548,-2.3161626,2.3143415,-0.7870941,1.4167236,0.85385746,2.89292,87
549,-1.5815678,2.2480068,-0.61376953,1.4167236,0.85385746,2.89292,87
550,-1.5815678,2.2480068,-0.61376953,1.4369019,0.83686525,2.7537963,87
551,-0.3406692,2.1273117,-0.36869812,1.4369019,0.83686525,2.7537963,87
552,-0.3406692,2.1273117,-0.36869812,1.3370727,0.79332274,2.3714721,87
553,-0.3406692,2.1273117,-0.36869812,1.0089111,0.71154785,1.8808228,87
554,1.0523548,1.9521055,-0.26548767,1.0089111,0.71154785,1.8808228,87
555,3.492714,1.4201202,-0.2151947,1.0089111,0.71154785,1.8808228,87
556,3.492714,1.4201202,-0.2151947,0.29523927,0.6403931,1.0450195,87
557,3.61203,1.1560059,-0.21736145,0.29523927,0.6403931,1.0450195,87
558,3.61203,1.1560059,-0.21736145,-0.013806152,0.65207523,0.8485474,87
559,3.5599122,1.0429811,-0.08377075,-0.013806152,0.65207523,0.8485474,87
560,3.5599122,1.0429811,-0.08377075,-0.75721437,0.813501,0.49383545,87
561,1.567522,1.2997293,0.123428345,-0.75721437,0.813501,0.49383545,87
562,1.567522,1.2997293,0.123428345,-1.3965454,0.7455322,0.3791382,87
563,-0.9925034,1.559021,0.2955017,-1.3965454,0.7455322,0.3791382,87
564,-0.9925034,1.559021,0.2955017,-1.5993897,0.36851808,0.2899292,87
565,-2.1772304,1.512744,0.38908386,-1.5993897,0.36851808,0.2899292,87
566,-2.1772304,1.512744,0.38908386,-1.5919555,0.02442627,-0.10513916,87
567,-2.0522091,1.0193253,0.6130829,-1.5919555,0.02442627,-0.10513916,87
568,-2.0522091,1.0193253,0.6130829,-1.4230957,-0.14549561,-0.67331547,87
569,-1.8400583,0.0911808,1.1673889,-1.4230957,-0.14549561,-0.67331547,87
570,-1.8400583,0.0911808,1.1673889,-1.1193603,-0.44604492,-1.3137085,87
571,-1.681556,-0.8946581,1.7649384,-1.1193603,-0.44604492,-1.3137085,87
572,-1.681556,-0.8946581,1.7649384,-0.65419924,-0.8050049,-1.8500245,87
573,-0.90818423,-1.6496258,2.214325,-0.65419924,-0.8050049,-1.8500245,87
574,-0.90818423,-1.6496258,2.214325,0.02442627,-1.1363525,-2.3820922,87
575,1.0073516,-2.1435661,2.917282,0.02442627,-1.1363525,-2.3820922,87
576,1.0073516,-2.1435661,2.917282,1.270166,-1.3285767,-3.1371827,87
577,1.4232397,-2.210165,2.8996277,1.270166,-1.3285767,-3.1371827,87
578,1.4232397,-2.210165,2.8996277,1.6046997,-1.3466309,-3.3187866,87
579,1.7962334,-2.122673,2.942871,1.6046997,-1.3466309,-3.3187866,87
580,1.7962334,-2.122673,2.942871,1.9710938,-1.2977784,-3.5025146,87
581,1.3302362,-1.722455,2.4003754,1.9710938,-1.2977784,-3.5025146,87
582,1.3302362,-1.722455,2.4003754,1.9827759,-1.1618408,-3.432422,87
583,0.11420107,-0.9335556,1.6086731,1.9827759,-1.1618408,-3.432422,87
584,0.11420107,-0.9335556,1.6086731,1.5654052,-1.0460815,-3.1095703,87
585,-1.3876798,-0.04027748,0.93156433,1.5654052,-1.0460815,-3.1095703,87
586,-1.3876798,-0.04027748,0.93156433,0.7062378,-0.83686525,-2.9003541,87
587,-2.545239,0.45155525,0.46577454,0.7062378,-0.83686525,-2.9003541,87
588,-2.545239,0.45155525,0.46577454,0.02442627,-0.6754395,-2.5456421,87
589,-2.8882787,0.2403822,-0.021759033,0.02442627,-0.6754395,-2.5456421,87
590,-2.8882787,0.2403822,-0.021759033,-0.39506838,-0.66481936,-2.2132325,87
591,-2.3214629,-0.41731358,-0.36517334,-0.39506838,-0.66481936,-2.2132325,87
592,-2.3214629,-0.41731358,-0.36517334,-0.45029297,-0.52888185,-2.1431396,87
593,-1.1921313,-1.0265636,-0.24118042,-0.45029297,-0.52888185,-2.1431396,87
594,-1.1921313,-1.0265636,-0.24118042,-0.7699585,-0.37701416,-2.083667,87
595,0.5863707,-1.9840813,0.24430847,-0.7699585,-0.37701416,-2.083667,87
596,0.5863707,-1.9840813,0.24430847,-1.1841431,-0.27506104,-1.8298463,87
597,1.1491747,-2.2389488,0.20471191,-1.1841431,-0.27506104,-1.8298463,87
598,1.1491747,-2.2389488,0.20471191,-1.2446778,-0.2782471,-1.7289551,87
599,2.140458,-2.9089203,0.12338257,-1.2446778,-0.2782471,-1.7289551,87
600,2.140458,-2.9089203,0.12338257,-1.350879,-0.27612305,-1.6057618,87
601,3.056983,-3.4916258,0.07766724,-1.350879,-0.27612305,-1.6057618,87
602,3.056983,-3.4916258,0.07766724,-1.3179566,-0.19328614,-1.4581422,87
603,3.745379,-3.9339743,0.23135376,-1.3179566,-0.19328614,-1.4581422,87
604,3.745379,-3.9339743,0.23135376,-0.9834229,-0.10407715,-1.3211426,87
605,3.908205,-4.0193596,0.4627533,-0.9834229,-0.10407715,-1.3211426,87
606,3.908205,-4.0193596,0.4627533,-0.41843262,-0.04991455,-1.1522827,87
607,3.5583754,-3.7263393,0.4906006,-0.41843262,-0.04991455,-1.1522827,87
608,3.5583754,-3.7263393,0.4906006,0.17947999,-0.012744141,-0.9324463,87
609,3.022799,-3.221758,0.16261292,0.17947999,-0.012744141,-0.9324463,87
610,3.022799,-3.221758,0.16261292,0.92713624,-0.12850343,-0.5766724,87
611,2.2544332,-2.3233047,-0.41145325,0.92713624,-0.12850343,-0.5766724,87
612,2.2544332,-2.3233047,-0.41145325,1.2563599,-0.16248779,-0.04885254,87
613,1.3700991,-1.0478039,-0.8697052,1.2563599,-0.16248779,-0.04885254,87
614,1.3700991,-1.0478039,-0.8697052,1.3859253,-0.09133301,0.5129517,87
615,1.3361673,0.046412468,-0.79374695,1.3859253,-0.09133301,0.5129517,87
616,1.3361673,0.046412468,-0.79374695,1.7321411,-0.1709839,0.9430664,87
617,1.6735115,0.9036703,-0.26405334,1.7321411,-0.1709839,0.9430664,87
618,1.6735115,0.9036703,-0.26405334,1.8521484,-0.14124756,1.4347779,87
619,1.0314116,1.5019035,0.22138977,1.8521484,-0.14124756,1.4347779,87
620,1.0314116,1.5019035,0.22138977,1.8245362,-0.11044922,1.8372803,87
621,-0.15723133,1.6513519,0.36691284,1.8245362,-0.11044922,1.8372803,87
622,-0.15723133,1.6513519,0.36691284,2.0199463,-0.11044922,2.2100465,87
623,-0.15723133,1.6513519,0.36691284,2.0199463,-0.11044922,2.2100465,87
624,-0.5494909,1.518323,0.29907227,2.0199463,-0.11044922,2.2100465,87
625,-0.5494909,1.518323,0.29907227,2.5998046,-0.19541016,2.4734254,87
626,0.27526283,1.4460301,0.2328186,2.5998046,-0.19541016,2.4734254,87
627,0.27526283,1.4460301,0.2328186,3.2147095,-0.2527588,2.6433473,87
628,1.5452347,1.7089119,0.26008606,3.2147095,-0.2527588,2.6433473,87
629,1.5452347,1.7089119,0.26008606,3.5141969,-0.2166504,2.6656494,87
630,1.9313412,2.2374058,0.4388733,3.5141969,-0.2166504,2.6656494,87
631,1.9313412,2.2374058,0.4388733,3.619336,0.0637207,2.625293,87
632,0.5842328,2.9874468,0.7100067,3.619336,0.0637207,2.625293,87
633,0.5842328,2.9874468,0.7100067,3.5057008,0.29311523,2.7803466,87
634,-1.859518,3.9616375,0.73587036,3.5057008,0.29311523,2.7803466,87
635,-1.859518,3.9616375,0.73587036,2.355542,0.72854006,2.6911378,87
636,-4.219719,4.5517197,0.4610138,2.355542,0.72854006,2.6911378,87
637,-4.219719,4.5517197,0.4610138,2.0029542,0.90908206,3.1053224,87
638,-5.555438,4.5468445,0.0715332,2.0029542,0.90908206,3.1053224,87
639,-5.555438,4.5468445,0.0715332,1.7544434,0.903772,3.3177247,87
640,-5.5180078,4.2713137,-0.4494171,1.7544434,0.903772,3.3177247,87
641,-5.5180078,4.2713137,-0.4494171,1.5229248,1.0142212,3.347461,87
642,-4.717434,3.7809792,-1.0432434,1.5229248,1.0142212,3.347461,87
643,-4.717434,3.7809792,-1.0432434,1.44646,1.0184692,3.355957,87
644,-3.7728972,3.254508,-1.573288,1.44646,1.0184692,3.355957,87
645,-3.7728972,3.254508,-1.573288,1.4963745,0.97386473,3.2869263,87
646,-2.778059,2.8487597,-1.8940887,1.4963745,0.97386473,3.2869263,87
647,-2.778059,2.8487597,-1.8940887,1.6036377,0.90802,3.1042602,87
648,-1.6215683,2.5583172,-1.9914551,1.6036377,0.90802,3.1042602,87
649,-1.6215683,2.5583172,-1.9914551,1.6694825,0.7625244,2.704944,87
650,-1.6215683,2.5583172,-1.9914551,1.4560181,0.49171144,2.1314576,87
651,-0.09378788,2.255455,-2.065216,1.4560181,0.49171144,2.1314576,87
652,7.3712344,1.5125313,-2.266159,1.4560181,0.49171144,2.1314576,87
653,7.3712344,1.5125313,-2.266159,0.9611206,0.23151855,1.4772583,87
654,7.3712344,1.5125313,-2.266159,0.37489015,0.18797608,0.8219971,87
655,7.3712344,1.5125313,-2.266159,-0.33665773,0.26656494,0.35046387,87
656,6.084158,1.3810081,-0.9513855,-0.33665773,0.26656494,0.35046387,87
657,6.084158,1.3810081,-0.9513855,-1.0418335,0.3802002,-0.019116212,87
658,2.7296553,1.6449795,0.28770447,-1.0418335,0.3802002,-0.019116212,87
659,2.7296553,1.6449795,0.28770447,-1.5123047,0.22408448,-0.12531738,87
660,-0.11775303,1.9957924,0.9699249,-1.5123047,0.22408448,-0.12531738,87
661,-0.11775303,1.9957924,0.9699249,-1.6981567,-0.08920898,-0.23682861,87
662,-0.7974372,1.9423981,1.0023346,-1.6981567,-0.08920898,-0.23682861,87
663,-0.7974372,1.9423981,1.0023346,-1.8404664,-0.27506104,-0.53737795,87
664,-0.5247297,1.1635742,0.98091125,-1.8404664,-0.27506104,-0.53737795,87
665,-0.5247297,1.1635742,0.98091125,-1.5792115,-0.24638672,-0.9791748,87
666,-0.99201274,-0.002269745,1.3599701,-1.5792115,-0.24638672,-0.9791748,87
667,-0.99201274,-0.002269745,1.3599701,-1.174585,-0.39294434,-1.3126465,87
668,-1.8850043,-0.8750591,1.7635803,-1.174585,-0.39294434,-1.3126465,87
669,-1.8850043,-0.8750591,1.7635803,-0.8209351,-0.6074707,-1.4570801,87
670,-1.7507038,-1.2952633,1.8627625,-0.8209351,-0.6074707,-1.4570801,87
671,-1.7507038,-1.2952633,1.8627625,-0.22833252,-0.81987303,-1.6652344,87
672,-0.35449386,-1.4781666,1.898407,-0.22833252,-0.81987303,-1.6652344,87
673,-0.35449386,-1.4781666,1.898407,0.63720703,-0.99085695,-1.9498535,87
674,1.0291979,-1.4094009,2.087799,0.63720703,-0.99085695,-1.9498535,87
675,1.0291979,-1.4094009,2.087799,1.2213135,-1.1066163,-2.1580079,87
676,1.3972476,-1.0557556,2.196289,1.2213135,-1.1066163,-2.1580079,87
677,1.3972476,-1.0557556,2.196289,1.26167,-1.0322754,-2.3045654,87
678,0.6436281,-0.4993286,2.0390625,1.26167,-1.0322754,-2.3045654,87
679,0.6436281,-0.4993286,2.0390625,0.7742066,-0.9165161,-2.3236816,87
680,-0.8465233,0.14382362,1.6251068,0.7742066,-0.9165161,-2.3236816,87
681,-0.8465233,0.14382362,1.6251068,-0.23682861,-0.79119873,-2.2950075,87
682,-2.3661835,0.5191612,1.1107635,-0.23682861,-0.79119873,-2.2950075,87
683,-2.3661835,0.5191612,1.1107635,-1.3954834,-0.4895874,-2.3396118,87
684,-3.304031,0.1758995,0.7236786,-1.3954834,-0.4895874,-2.3396118,87
685,-3.304031,0.1758995,0.7236786,-1.6482422,-0.5766724,-2.1293335,87
686,-3.3643308,-0.5552273,0.42312622,-1.6482422,-0.5766724,-2.1293335,87
687,-3.3643308,-0.5552273,0.42312622,-2.3300538,-0.38763428,-2.18562,87
688,-2.7597384,-1.2345505,0.06187439,-2.3300538,-0.38763428,-2.18562,87
689,-2.7597384,-1.2345505,0.06187439,-2.623169,-0.23364258,-1.9902099,87
690,-1.9518338,-2.014923,-0.27598572,-2.623169,-0.23364258,-1.9902099,87
691,-1.9518338,-2.014923,-0.27598572,-2.8504395,-0.124255374,-1.992334,87
692,-1.10551,-2.7294674,-0.40190125,-2.8504395,-0.124255374,-1.992334,87
693,-1.10551,-2.7294674,-0.40190125,-2.7750366,-0.001062012,-1.9169312,87
694,-0.14585823,-3.394926,-0.24395752,-2.7750366,-0.001062012,-1.9169312,87
695,-0.14585823,-3.394926,-0.24395752,-2.715564,-0.04141846,-1.8054199,87
696,1.0633305,-4.0514145,-0.056106567,-2.715564,-0.04141846,-1.8054199,87
697,1.0633305,-4.0514145,-0.056106567,-2.4543092,-0.090270996,-1.902063,87
698,2.47824,-4.6107483,-0.061843872,-2.4543092,-0.090270996,-1.902063,87
699,2.47824,-4.6107483,-0.061843872,-1.7820557,-0.21558838,-1.8447144,87
700,3.7968745,-5.033386,-0.05593872,-1.7820557,-0.21558838,-1.8447144,87
701,3.7968745,-5.033386,-0.05593872,-1.0014771,-0.23045655,-1.8723267,87
702,4.556176,-5.068824,0.10316467,-1.0014771,-0.23045655,-1.8723267,87
703,4.556176,-5.068824,0.10316467,-0.41418457,-0.022302246,-1.7724975,87
704,4.3996286,-4.700836,0.21485901,-0.41418457,-0.022302246,-1.7724975,87
705,4.3996286,-4.700836,0.21485901,0.23364258,0.06690674,-1.4910644,87
706,3.3656254,-3.786255,0.14477539,0.23364258,0.06690674,-1.4910644,87
707,3.3656254,-3.786255,0.14477539,0.99510497,-0.04991455,-0.8644776,87
708,1.8789873,-2.0978637,-0.056381226,0.99510497,-0.04991455,-0.8644776,87
709,1.8789873,-2.0978637,-0.056381226,1.263794,-0.038232423,-0.22196046,87
710,1.1133828,-0.3579297,-0.14572144,1.263794,-0.038232423,-0.22196046,87
711,1.1133828,-0.3579297,-0.14572144,1.4740723,-0.002124023,0.15611573,87
712,1.6358109,0.65794325,0.16403198,1.4740723,-0.002124023,0.15611573,87
713,1.6358109,0.65794325,0.16403198,1.8946289,-0.10089111,0.61702883,87
714,1.6358109,0.65794325,0.16403198,1.8946289,-0.10089111,0.61702883,87
715,1.6747255,1.2029295,0.54473877,1.8946289,-0.10089111,0.61702883,87
716,1.6747255,1.2029295,0.54473877,1.7374512,-0.022302246,1.1331666,87
717,0.4255104,1.5039577,0.44091797,1.7374512,-0.022302246,1.1331666,87
718,0.4255104,1.5039577,0.44091797,1.621692,0.005310059,1.6248779,87
719,-0.30542946,1.4512005,-0.11833191,1.621692,0.005310059,1.6248779,87
720,-0.30542946,1.4512005,-0.11833191,1.8330323,0.020178223,2.0645509,87
721,0.34893036,1.3322735,-0.63734436,1.8330323,0.020178223,2.0645509,87
722,0.34893036,1.3322735,-0.63734436,2.4065187,-0.08920898,2.5031617,87
723,1.428009,1.5610456,-0.86886597,2.4065187,-0.08920898,2.5031617,87
724,1.428009,1.5610456,-0.86886597,2.8238893,-0.070092775,2.7824707,87
725,2.0199094,2.1812954,-0.85668945,2.8238893,-0.070092775,2.7824707,87
726,2.0199094,2.1812954,-0.85668945,2.9598267,0.08283692,2.7304323,87
727,1.506186,2.8560715,-0.51498413,2.9598267,0.08283692,2.7304323,87
728,1.506186,2.8560715,-0.51498413,3.0511596,0.29417726,2.6518433,87
729,-0.3148384,3.530939,0.21572876,3.0511596,0.29417726,2.6518433,87
730,-0.3148384,3.530939,0.21572876,2.9226563,0.5140137,2.701758,87
731,-2.499393,4.286214,0.71736145,2.9226563,0.5140137,2.701758,87
732,-2.499393,4.286214,0.71736145,1.5962037,1.0195312,2.5488281,87
733,-4.137552,4.6058636,0.46780396,1.5962037,1.0195312,2.5488281,87
734,-4.137552,4.6058636,0.46780396,0.53525394,1.3030884,2.8812377,87
735,-5.0468583,4.2336903,-0.15388489,0.53525394,1.3030884,2.8812377,87
736,-5.0468583,4.2336903,-0.15388489,0.11151123,1.1671509,3.1966553,87
737,-5.090221,3.623867,-0.8043213,0.11151123,1.1671509,3.1966553,87
738,-5.090221,3.623867,-0.8043213,0.10089111,1.1427246,3.3379028,87
739,-4.2756314,3.054636,-1.3824463,0.10089111,1.1427246,3.3379028,87
740,-4.2756314,3.054636,-1.3824463,0.28568116,1.0386475,3.4749024,87
741,-2.9145117,2.6018887,-1.8489075,0.28568116,1.0386475,3.4749024,87
742,-2.9145117,2.6018887,-1.8489075,0.65419924,0.89208984,3.6044679,87
743,-1.4964529,2.3119545,-2.1517181,0.65419924,0.89208984,3.6044679,87
744,-1.4964529,2.3119545,-2.1517181,0.98448485,0.8241211,3.61615,87
745,-0.31445974,2.1402988,-2.1705627,0.98448485,0.8241211,3.61615,87
746,-0.31445974,2.1402988,-2.1705627,1.351941,0.6680054,3.3198488,87
747,0.7135446,2.0903645,-1.84935,1.351941,0.6680054,3.3198488,87
748,0.7135446,2.0903645,-1.84935,1.6025757,0.452417,2.9258423,87
749,0.7135446,2.0903645,-1.84935,1.6131958,0.3462158,2.2153566,87
750,1.6912704,2.0860615,-1.2543488,1.6131958,0.3462158,2.2153566,87
751,4.266554,1.6618671,0.44891357,1.6131958,0.3462158,2.2153566,87
752,4.266554,1.6618671,0.44891357,1.4337158,0.24532472,1.4061035,87
753,4.266554,1.6618671,0.44891357,1.0142212,0.15505372,0.6074707,87
754,4.266554,1.6618671,0.44891357,0.33878174,0.15611573,-0.002124023,87
755,3.1670275,1.2239628,0.480011,0.33878174,0.15611573,-0.002124023,87
756,3.1670275,1.2239628,0.480011,-0.2177124,0.11151123,-0.45454103,87
757,1.6470499,1.1437092,0.29188538,-0.2177124,0.11151123,-0.45454103,87
758,1.6470499,1.1437092,0.29188538,-0.55968016,-0.10938721,-0.8241211,87
759,0.7861581,1.1548615,-0.011688232,-0.55968016,-0.10938721,-0.8241211,87
760,0.7861581,1.1548615,-0.011688232,-0.7168579,-0.3727661,-1.273352,87
761,0.62782764,0.8641968,-0.15830994,-0.7168579,-0.3727661,-1.273352,87
762,0.62782764,0.8641968,-0.15830994,-0.7880127,-0.52888185,-1.7491333,87
763,0.19779444,0.27266884,0.14682007,-0.7880127,-0.52888185,-1.7491333,87
764,0.19779444,0.27266884,0.14682007,-0.75615233,-0.6775635,-2.0911012,87
765,-0.50474024,-0.31593323,0.83981323,-0.75615233,-0.6775635,-2.0911012,87
766,-0.50474024,-0.31593323,0.83981323,-0.6754395,-0.81668705,-2.269519,87
767,-0.5638995,-0.67147255,1.5051422,-0.6754395,-0.81668705,-2.269519,87
768,-0.5638995,-0.67147255,1.5051422,-0.47578126,-0.9420044,-2.4320068,87
769,0.43129015,-0.8577728,1.8873291,-0.47578126,-0.9420044,-2.4320068,87
770,0.43129015,-0.8577728,1.8873291,-0.11469727,-1.0375855,-2.628479,87
771,1.727222,-0.9637947,1.9781342,-0.11469727,-1.0375855,-2.628479,87
772,1.727222,-0.9637947,1.9781342,0.08602295,-1.0991821,-2.7877808,87
773,2.0719995,-0.9904461,1.7796631,0.08602295,-1.0991821,-2.7877808,87
774,2.0719995,-0.9904461,1.7796631,-0.14337158,-1.0237793,-2.8631837,87
775,0.93413734,-0.9883537,1.3820801,-0.14337158,-1.0237793,-2.8631837,87
776,0.93413734,-0.9883537,1.3820801,-0.62340087,-0.8793457,-2.7676027,87
777,-1.1656175,-0.90263367,0.9899597,-0.62340087,-0.8793457,-2.7676027,87
778,-1.1656175,-0.90263367,0.9899597,-1.2361816,-0.67437744,-2.5764406,87
779,-3.2708726,-0.7564583,0.7221985,-1.2361816,-0.67437744,-2.5764406,87
780,-3.2708726,-0.7564583,0.7221985,-1.7831177,-0.5140137,-2.4033325,87
781,-4.607396,-0.74230003,0.5089264,-1.7831177,-0.5140137,-2.4033325,87
782,-4.607396,-0.74230003,0.5089264,-2.3035035,-0.35471192,-2.247217,87
783,-4.7943645,-1.1203289,0.30796814,-2.3035035,-0.35471192,-2.247217,87
784,-4.7943645,-1.1203289,0.30796814,-2.3194337,-0.29630128,-2.0284424,87
785,-4.0331845,-1.7454948,0.19625854,-2.3194337,-0.29630128,-2.0284424,87
786,-4.0331845,-1.7454948,0.19625854,-2.0571167,-0.362146,-1.9328613,87
787,-2.7865696,-2.093296,0.105911255,-2.0571167,-0.362146,-1.9328613,87
788,-2.7865696,-2.093296,0.105911255,-2.2270386,-0.1274414,-1.814978,87
789,-1.4927933,-2.3031025,-0.08480835,-2.2270386,-0.1274414,-1.814978,87
790,-1.4927933,-2.3031025,-0.08480835,-2.6667116,-0.0361084,-1.6737305,87
791,-0.38984007,-2.7923489,-0.2894287,-2.6667116,-0.0361084,-1.6737305,87
792,-0.38984007,-2.7923489,-0.2894287,-2.7431762,-0.078588866,-1.5792115,87
793,0.65878224,-3.4644089,-0.32125854,-2.7431762,-0.078588866,-1.5792115,87
794,0.65878224,-3.4644089,-0.32125854,-2.6093628,-0.14337158,-1.6376221,87
795,1.7670649,-4.0659485,-0.15538025,-2.6093628,-0.14337158,-1.6376221,87
796,1.7670649,-4.0659485,-0.15538025,-2.450061,-0.2262085,-1.5484132,87
797,2.8469162,-4.521167,0.008666992,-2.450061,-0.2262085,-1.5484132,87
798,2.8469162,-4.521167,0.008666992,-2.5721924,-0.060534667,-1.5494751,87
799,3.6202943,-4.8814726,0.08343506,-2.5721924,-0.060534667,-1.5494751,87
800,3.6202943,-4.8814726,0.08343506,-2.4713013,0.15505372,-1.545227,87
801,3.776106,-5.186696,0.07304382,-2.4713013,0.15505372,-1.545227,87
802,3.776106,-5.186696,0.07304382,-1.803296,0.17947999,-1.5154908,87
803,3.2436023,-4.9916544,-0.0940094,-1.803296,0.17947999,-1.5154908,87
804,3.2436023,-4.9916544,-0.0940094,-1.0513916,0.093457036,-1.1841431,87
805,2.144247,-3.87284,-0.4065094,-1.0513916,0.093457036,-1.1841431,87
806,2.144247,-3.87284,-0.4065094,-0.7168579,0.095581055,-0.6956177,87
807,1.3353682,-2.3499317,-0.60198975,-0.7168579,0.095581055,-0.6956177,87
808,1.3353682,-2.3499317,-0.60198975,-0.3440918,0.022302246,-0.26975098,87
809,1.9887047,-1.2985363,-0.43338013,-0.3440918,0.022302246,-0.26975098,87
810,1.9887047,-1.2985363,-0.43338013,0.41099855,-0.11151123,-0.040356446,87
811,3.1296234,-0.77077484,-0.02218628,0.41099855,-0.11151123,-0.040356446,87
812,3.1296234,-0.77077484,-0.02218628,0.9239502,-0.15186767,0.3154175,87
813,3.1296234,-0.77077484,-0.02218628,0.9239502,-0.15186767,0.3154175,87
814,2.435254,-0.23422241,0.13671875,0.9239502,-0.15186767,0.3154175,87
815,2.435254,-0.23422241,0.13671875,0.92713624,-0.1529297,0.811377,87
816,0.2331276,0.4674921,-0.19825745,0.92713624,-0.1529297,0.811377,87
817,0.2331276,0.4674921,-0.19825745,0.9632446,-0.22514649,1.2924683,87
818,-1.0468721,1.0176945,-0.568985,0.9632446,-0.22514649,1.2924683,87
819,-1.0468721,1.0176945,-0.568985,1.5250489,-0.4439209,1.7767457,87
820,-0.4954691,1.3016558,-0.57499695,1.5250489,-0.4439209,1.7767457,87
821,-0.4954691,1.3016558,-0.57499695,2.345984,-0.56817627,2.0603027,87
822,0.7360468,1.6334143,-0.34570312,2.345984,-0.56817627,2.0603027,87
823,0.7360468,1.6334143,-0.34570312,3.0097413,-0.54693604,2.1505737,87
824,1.118537,2.2063408,6.10E-05,3.0097413,-0.54693604,2.1505737,87
825,1.118537,2.2063408,6.10E-05,3.3952515,-0.41418457,2.2026124,87
826,-0.051398277,2.8156948,0.52853394,3.3952515,-0.41418457,2.2026124,87
827,-0.051398277,2.8156948,0.52853394,3.7828858,-0.34090576,2.4808595,87
828,-1.9228449,3.5178757,0.9351349,3.7828858,-0.34090576,2.4808595,87
829,-1.9228449,3.5178757,0.9351349,3.7404053,-0.14337158,2.5944946,87
830,-3.133564,4.40296,0.7303009,3.7404053,-0.14337158,2.5944946,87
831,-3.133564,4.40296,0.7303009,2.3725343,0.5235718,2.356604,87
832,-3.9101105,4.823906,0.2627411,2.3725343,0.5235718,2.356604,87
833,-3.9101105,4.823906,0.2627411,1.8054199,0.8379273,2.7665405,87
834,-4.5694823,4.6764107,-0.029647827,1.8054199,0.8379273,2.7665405,87
835,-4.5694823,4.6764107,-0.029647827,1.6801026,0.68499756,3.3517091,87
836,-4.239033,4.4761143,-0.53396606,1.6801026,0.68499756,3.3517091,87
837,-4.239033,4.4761143,-0.53396606,1.5494751,0.7497803,3.440918,87
838,-2.915006,4.1964684,-1.246048,1.5494751,0.7497803,3.440918,87
839,-2.915006,4.1964684,-1.246048,1.5494751,0.7625244,3.4419801,87
840,-1.5238383,3.637497,-1.7565308,1.5494751,0.7625244,3.4419801,87
841,-1.5238383,3.637497,-1.7565308,1.5728394,0.6903076,3.4175537,87
842,-0.45316482,2.9421635,-1.8534698,1.5728394,0.6903076,3.4175537,87
843,-0.45316482,2.9421635,-1.8534698,1.4974365,0.57561034,3.2975464,87
844,0.45994127,2.4174023,-1.5222778,1.4974365,0.57561034,3.2975464,87
845,0.45994127,2.4174023,-1.5222778,1.2489258,0.49383545,2.8769898,87
846,1.341598,2.113903,-0.931427,1.2489258,0.49383545,2.8769898,87
847,1.341598,2.113903,-0.931427,0.98448485,0.46409914,2.1580079,87
848,1.341598,2.113903,-0.931427,0.81668705,0.41524658,1.3689331,87
849,2.0606441,1.7458229,-0.2569275,0.81668705,0.41524658,1.3689331,87
850,4.3206835,0.818388,0.18081665,0.81668705,0.41524658,1.3689331,87
851,4.3206835,0.818388,0.18081665,0.6605713,0.3345337,0.60109866,87
852,4.3206835,0.818388,0.18081665,0.20072022,0.3334717,-0.016992187,87
853,4.3206835,0.818388,0.18081665,-0.29630128,0.29311523,-0.47790527,87
854,3.3789344,0.8429184,-0.44444275,-0.29630128,0.29311523,-0.47790527,87
855,3.3789344,0.8429184,-0.44444275,-0.70198977,0.16461182,-0.8867798,87
856,2.1798563,0.9311466,-0.82225037,-0.70198977,0.16461182,-0.8867798,87
857,2.1798563,0.9311466,-0.82225037,-0.93350834,-0.16354981,-1.3168945,87
858,1.5298471,0.7031326,-0.8173065,-0.93350834,-0.16354981,-1.3168945,87
859,1.5298471,0.7031326,-0.8173065,-1.0736939,-0.47790527,-1.8638306,87
860,1.1363044,0.03442955,-0.31513977,-1.0736939,-0.47790527,-1.8638306,87
861,1.1363044,0.03442955,-0.31513977,-1.1650269,-0.71791995,-2.3969605,87
862,0.3793683,-0.85658646,0.66033936,-1.1650269,-0.71791995,-2.3969605,87
863,0.3793683,-0.85658646,0.66033936,-1.1926392,-0.9154541,-2.6667116,87
864,-0.36296034,-1.5029697,1.6623688,-1.1926392,-0.9154541,-2.6667116,87
865,-0.36296034,-1.5029697,1.6623688,-1.0237793,-0.97492677,-2.7399902,87
866,-0.18016338,-1.6862144,2.242569,-1.0237793,-0.97492677,-2.7399902,87
867,-0.18016338,-1.6862144,2.242569,-0.52675784,-0.96643066,-2.707068,87
868,0.7630596,-1.545517,2.3023224,-0.52675784,-0.96643066,-2.707068,87
869,0.7630596,-1.545517,2.3023224,0.17841797,-0.9600586,-2.6412232,87
870,1.3144517,-1.1894417,1.9537659,0.17841797,-0.9600586,-2.6412232,87
871,1.3144517,-1.1894417,1.9537659,0.6053467,-0.88996583,-2.5031617,87
872,0.6906972,-0.7699852,1.3816681,0.6053467,-0.88996583,-2.5031617,87
873,0.6906972,-0.7699852,1.3816681,0.541626,-0.72004396,-2.2928834,87
874,-0.9615655,-0.4152794,0.82470703,0.541626,-0.72004396,-2.2928834,87
875,-0.9615655,-0.4152794,0.82470703,0.0722168,-0.4715332,-2.0188844,87
876,-2.9216084,-0.06277847,0.42330933,0.0722168,-0.4715332,-2.0188844,87
877,-2.9216084,-0.06277847,0.42330933,-0.60959476,-0.2984253,-1.7459472,87
878,-4.4399967,0.27784157,0.15202332,-0.60959476,-0.2984253,-1.7459472,87
879,-4.4399967,0.27784157,0.15202332,-1.4262818,-0.12000733,-1.4836304,87
880,-4.984456,0.30623245,-0.01928711,-1.4262818,-0.12000733,-1.4836304,87
881,-4.984456,0.30623245,-0.01928711,-2.079419,-0.007434082,-1.2531738,87
882,-4.4275064,-0.16111755,-0.08958435,-2.079419,-0.007434082,-1.2531738,87
883,-4.4275064,-0.16111755,-0.08958435,-2.5966187,0.098767094,-1.1682129,87
884,-3.2183723,-0.89126015,-0.113464355,-2.5966187,0.098767094,-1.1682129,87
885,-3.2183723,-0.89126015,-0.113464355,-3.1594849,0.20921631,-1.1034302,87
886,-1.9141753,-1.8483353,-0.1461792,-3.1594849,0.20921631,-1.1034302,87
887,-1.9141753,-1.8483353,-0.1461792,-3.2667482,0.16673584,-0.9770508,87
888,-0.77657956,-2.8246517,-0.10942078,-3.2667482,0.16673584,-0.9770508,87
889,-0.77657956,-2.8246517,-0.10942078,-3.2826784,0.12531738,-1.0014771,87
890,0.23320413,-3.773016,-0.08564758,-3.2826784,0.12531738,-1.0014771,87
891,0.23320413,-3.773016,-0.08564758,-3.3570192,0.18585205,-1.1883911,87
892,1.2599398,-4.9022503,-0.115371704,-3.3570192,0.18585205,-1.1883911,87
893,1.2599398,-4.9022503,-0.115371704,-3.078772,0.17523193,-1.5016845,87
894,2.2788503,-5.780406,-0.0723114,-3.078772,0.17523193,-1.5016845,87
895,2.2788503,-5.780406,-0.0723114,-2.6635253,0.31860352,-1.6960328,87
896,2.8951628,-6.172701,0.009460449,-2.6635253,0.31860352,-1.6960328,87
897,2.8951628,-6.172701,0.009460449,-2.2334106,0.4980835,-1.7703736,87
898,2.8453662,-6.124647,-0.16792297,-2.2334106,0.4980835,-1.7703736,87
899,2.8453662,-6.124647,-0.16792297,-1.6036377,0.47578126,-1.6493043,87
900,2.731066,-5.5790386,-0.6173401,-1.6036377,0.47578126,-1.6493043,87
901,2.731066,-5.5790386,-0.6173401,-0.5320679,0.29205322,-1.3338867,87
902,2.8327165,-4.3615465,-0.93569946,-0.5320679,0.29205322,-1.3338867,87
903,2.8327165,-4.3615465,-0.93569946,0.5734863,0.0722168,-0.95368654,87
904,3.0652208,-2.5719523,-0.8733978,0.5734863,0.0722168,-0.95368654,87
905,3.0652208,-2.5719523,-0.8733978,1.2244996,-0.08814698,-0.6711914,87
906,3.5433145,-0.99210787,-0.3018341,1.2244996,-0.08814698,-0.6711914,87
907,3.5433145,-0.99210787,-0.3018341,1.6992188,-0.13062744,-0.40250245,87
908,3.1710653,0.06911898,0.5319824,1.6992188,-0.13062744,-0.40250245,87
909,3.1710653,0.06911898,0.5319824,1.7268311,-0.08071289,0.0722168,87
910,1.2030754,0.9583225,0.8656616,1.7268311,-0.08071289,0.0722168,87
911,1.2030754,0.9583225,0.8656616,1.4677002,-0.095581055,0.74659425,87
912,-0.8046174,1.6991291,0.361557,1.4677002,-0.095581055,0.74659425,87
913,-0.8046174,1.6991291,0.361557,1.4570801,-0.18160401,1.3795532,87
914,-1.1099296,2.020937,-0.38119507,1.4570801,-0.18160401,1.3795532,87
915,-1.1099296,2.020937,-0.38119507,1.8617066,-0.32072756,1.8595825,87
916,-0.041386127,2.0269308,-0.76457214,1.8617066,-0.32072756,1.8595825,87
917,-0.041386127,2.0269308,-0.76457214,2.362976,-0.44179687,2.265271,87
918,-0.041386127,2.0269308,-0.76457214,2.362976,-0.44179687,2.265271,87
919,0.9073205,2.0870228,-0.7424774,2.362976,-0.44179687,2.265271,87
920,0.9073205,2.0870228,-0.7424774,2.6890137,-0.362146,2.4840455,87
921,0.72718716,2.4530163,-0.36671448,2.6890137,-0.362146,2.4840455,87
922,0.72718716,2.4530163,-0.36671448,2.909912,-0.30161133,2.6879518,87
923,-0.45744705,3.1424675,0.13116455,2.909912,-0.30161133,2.6879518,87
924,-0.45744705,3.1424675,0.13116455,2.3077514,0.14655761,2.7569826,87
925,-1.9330354,3.8036957,0.4717865,2.3077514,0.14655761,2.7569826,87
926,-1.9330354,3.8036957,0.4717865,1.9583496,0.32497558,3.1000123,87
927,-3.150908,4.2478266,0.46676636,1.9583496,0.32497558,3.1000123,87
928,-3.150908,4.2478266,0.46676636,1.6864747,0.4056885,3.3028564,87
929,-3.754479,4.542719,0.13026428,1.6864747,0.4056885,3.3028564,87
930,-3.754479,4.542719,0.13026428,1.3710572,0.53525394,3.4334838,87
931,-3.6776066,4.4342356,-0.29562378,1.3710572,0.53525394,3.4334838,87
932,-3.6776066,4.4342356,-0.29562378,1.2574219,0.5957886,3.5407472,87
933,-3.0170364,3.9721928,-0.7110901,1.2574219,0.5957886,3.5407472,87
934,-3.0170364,3.9721928,-0.7110901,1.363623,0.5533081,3.6405761,87
935,-1.9537536,3.506466,-1.1098785,1.363623,0.5533081,3.6405761,87
936,-1.9537536,3.506466,-1.1098785,1.4135376,0.5649902,3.6511962,87
937,-0.7196801,3.157444,-1.403717,1.4135376,0.5649902,3.6511962,87
938,-0.7196801,3.157444,-1.403717,1.4634522,0.50870365,3.5577393,87
939,0.46368468,2.858755,-1.4247742,1.4634522,0.50870365,3.5577393,87
940,0.46368468,2.858755,-1.4247742,1.5993897,0.36851808,3.2964845,87
941,1.5405889,2.5971718,-1.0729675,1.5993897,0.36851808,3.2964845,87
942,1.5405889,2.5971718,-1.0729675,1.7427613,0.26656494,2.8238893,87
943,2.5867925,2.3328152,-0.44754028,1.7427613,0.26656494,2.8238893,87
944,2.5867925,2.3328152,-0.44754028,1.7926759,0.18691407,2.162256,87
945,3.5325565,1.9798393,0.17785645,1.7926759,0.18691407,2.162256,87
946,3.5325565,1.9798393,0.17785645,1.6397461,0.16779785,1.4050416,87
947,3.5325565,1.9798393,0.17785645,1.0269654,0.25594482,0.69136965,87
948,3.913301,1.6103611,0.43666077,1.0269654,0.25594482,0.69136965,87
949,1.5555921,1.9542313,-0.6307373,1.0269654,0.25594482,0.69136965,87
950,1.5555921,1.9542313,-0.6307373,0.20496826,0.33134767,0.22727051,87
951,1.5555921,1.9542313,-0.6307373,-0.41949463,0.29311523,-0.1274414,87
952,1.5555921,1.9542313,-0.6307373,-0.7742066,0.03186035,-0.57561034,87
953,1.220902,1.6998596,-0.8227844,-0.7742066,0.03186035,-0.57561034,87
954,1.220902,1.6998596,-0.8227844,-1.0949341,-0.25063476,-1.264856,87
955,1.1174564,0.83795166,-0.6145172,-1.0949341,-0.25063476,-1.264856,87
956,1.1174564,0.83795166,-0.6145172,-1.3349488,-0.44179687,-2.0093262,87
957,0.4424634,-0.37888145,0.15934753,-1.3349488,-0.44179687,-2.0093262,87
958,0.4424634,-0.37888145,0.15934753,-1.4188477,-0.68712157,-2.526526,87
959,-0.16509676,-1.2973671,1.1494598,-1.4188477,-0.68712157,-2.526526,87
960,-0.16509676,-1.2973671,1.1494598,-1.3200806,-0.7954468,-2.7654786,87
961,0.12137699,-1.638174,1.7956543,-1.3200806,-0.7954468,-2.7654786,87
962,0.12137699,-1.638174,1.7956543,-0.93563235,-0.84748536,-2.9279664,87
963,0.8764839,-1.5504322,1.9168854,-0.93563235,-0.84748536,-2.9279664,87
964,0.8764839,-1.5504322,1.9168854,-0.32816163,-0.9324463,-3.0617797,87
965,1.1322298,-1.2832184,1.7312012,-0.32816163,-0.9324463,-3.0617797,87
966,1.1322298,-1.2832184,1.7312012,0.06159668,-0.8867798,-3.1010742,87
967,0.33077192,-1.0456047,1.4191589,0.06159668,-0.8867798,-3.1010742,87
968,0.33077192,-1.0456047,1.4191589,0.05522461,-0.7051758,-3.068152,87
969,-1.343781,-0.89668846,1.0122986,0.05522461,-0.7051758,-3.068152,87
970,-1.343781,-0.89668846,1.0122986,-0.27718505,-0.5331299,-2.8589356,87
971,-3.185462,-0.7280197,0.55921936,-0.27718505,-0.5331299,-2.8589356,87
972,-3.185462,-0.7280197,0.55921936,-0.72641605,-0.40037844,-2.6454713,87
973,-4.457049,-0.5302067,0.13624573,-0.72641605,-0.40037844,-2.6454713,87
974,-4.457049,-0.5302067,0.13624573,-1.2075074,-0.32391357,-2.450061,87
975,-4.7706075,-0.51385117,-0.21714783,-1.2075074,-0.32391357,-2.450061,87
976,-4.7706075,-0.51385117,-0.21714783,-1.5494751,-0.2347046,-2.256775,87
977,-4.117792,-0.79535866,-0.43714905,-1.5494751,-0.2347046,-2.256775,87
978,-4.117792,-0.79535866,-0.43714905,-1.7501954,-0.1444336,-2.160132,87
979,-2.8943315,-1.2005196,-0.47790527,-1.7501954,-0.1444336,-2.160132,87
980,-2.8943315,-1.2005196,-0.47790527,-2.2164185,0.04885254,-2.1548219,87
981,-1.606322,-1.7709255,-0.3812256,-2.2164185,0.04885254,-2.1548219,87
982,-1.606322,-1.7709255,-0.3812256,-2.535022,0.10407715,-2.0369384,87
983,-0.49261382,-2.5534458,-0.18544006,-2.535022,0.10407715,-2.0369384,87
984,-0.49261382,-2.5534458,-0.18544006,-2.2790773,0.016992187,-1.991272,87
985,0.5965462,-3.067562,0.024108887,-2.2790773,0.016992187,-1.991272,87
986,0.5965462,-3.067562,0.024108887,-2.4107666,0.005310059,-2.1930542,87
987,1.9202545,-3.4464931,0.1412201,-2.4107666,0.005310059,-2.1930542,87
988,1.9202545,-3.4464931,0.1412201,-3.09364,0.095581055,-2.5753784,87
989,3.3897681,-4.2418633,0.21606445,-3.09364,0.095581055,-2.5753784,87
990,3.3897681,-4.2418633,0.21606445,-3.7467773,0.23895264,-2.9226563,87
991,4.37003,-5.428341,0.3768463,-3.7467773,0.23895264,-2.9226563,87
992,4.37003,-5.428341,0.3768463,-4.0388308,0.51932377,-3.1435547,87
993,4.2320104,-6.509946,0.4088745,-4.0388308,0.51932377,-3.1435547,87
994,4.2320104,-6.509946,0.4088745,-3.6873047,0.6180908,-3.0426636,87
995,3.2071295,-6.901353,0.086746216,-3.6873047,0.6180908,-3.0426636,87
996,3.2071295,-6.901353,0.086746216,-2.6327271,0.46516114,-2.5721924,87
997,1.7431817,-6.122572,-0.38189697,-2.6327271,0.46516114,-2.5721924,87
998,1.7431817,-6.122572,-0.38189697,-1.538855,0.26975098,-1.7395753,87
999,0.6628561,-4.4707627,-0.64134216,-1.538855,0.26975098,-1.7395753,87
1000,0.6628561,-4.4707627,-0.64134216,-0.5076416,0.13912354,-0.9526245,87
1001,1.2031975,-2.9106803,-0.31021118,-0.5076416,0.13912354,-0.9526245,87
1002,1.2031975,-2.9106803,-0.31021118,0.9228882,-0.10407715,-0.28568116,87
1003,2.1050997,-1.3815346,0.29284668,0.9228882,-0.10407715,-0.28568116,87
1004,2.1050997,-1.3815346,0.29284668,1.7268311,-0.20496826,0.54906005,87
1005,1.4359107,0.32497263,0.39637756,1.7268311,-0.20496826,0.54906005,87
1006,1.4359107,0.32497263,0.39637756,1.9785279,-0.25806886,1.3083985,87
1007,0.22610855,1.5438042,-0.063430786,1.9785279,-0.25806886,1.3083985,87
1008,0.22610855,1.5438042,-0.063430786,2.1463258,-0.29417726,1.8680786,87
1009,0.09147024,1.8988738,-0.5513153,2.1463258,-0.29417726,1.8680786,87
1010,0.09147024,1.8988738,-0.5513153,2.3937745,-0.32709962,2.3969605,87
1011,0.8193922,1.6897783,-0.7075653,2.3937745,-0.32709962,2.3969605,87
1012,0.8193922,1.6897783,-0.7075653,2.8302612,-0.4078125,2.8207033,87
1013,1.3743982,1.618742,-0.5012512,2.8302612,-0.4078125,2.8207033,87
1014,1.3743982,1.618742,-0.5012512,3.1308105,-0.36108398,3.059656,87
1015,1.0510325,2.261962,0.027175903,3.1308105,-0.36108398,3.059656,87
1016,1.0510325,2.261962,0.027175903,3.0224855,-0.057348635,3.3793213,87
1017,-0.41383743,3.3473988,0.6405792,3.0224855,-0.057348635,3.3793213,87
1018,-0.41383743,3.3473988,0.6405792,2.7474244,0.29099122,3.4218018,87
1019,-2.6136017,4.303749,0.97010803,2.7474244,0.29099122,3.4218018,87
1020,-2.6136017,4.303749,0.97010803,2.7421143,0.45878908,3.7637696,87
1021,-3.217688,4.586628,0.7700043,2.7421143,0.45878908,3.7637696,87
1022,-3.217688,4.586628,0.7700043,2.151636,0.5851685,3.7212892,87
1023,-4.7658987,5.528531,0.43719482,2.151636,0.5851685,3.7212892,87
1024,-4.7658987,5.528531,0.43719482,1.1968873,1.3434448,4.177954,87
1025,-4.220727,5.2609596,0.09126282,1.1968873,1.3434448,4.177954,87
1026,-4.220727,5.2609596,0.09126282,0.9451904,1.3466309,4.342566,87
1027,-4.220727,5.2609596,0.09126282,0.9451904,1.3466309,4.342566,88
1028,-3.6567574,5.1555443,-0.8690338,0.9451904,1.3466309,4.342566,88
1029,-3.6567574,5.1555443,-0.8690338,0.032922365,1.725769,4.4646974,88
1030,-2.6376252,4.6517296,-1.2684326,0.032922365,1.725769,4.4646974,88
1031,-2.6376252,4.6517296,-1.2684326,-0.19753419,1.7555054,4.466821,88
1032,-0.98806643,3.5761204,-2.1870422,-0.19753419,1.7555054,4.466821,88
1033,-0.98806643,3.5761204,-2.1870422,-0.50020754,1.4793824,4.2830935,88
1034,-0.23970842,3.01186,-2.0991058,-0.50020754,1.4793824,4.2830935,88
1035,-0.23970842,3.01186,-2.0991058,-0.51826173,1.3445069,4.162024,88
1036,1.1285214,1.8257713,-1.7199554,-0.51826173,1.3445069,4.162024,88
1037,1.1285214,1.8257713,-1.7199554,-0.3419678,0.9143921,3.258252,88
1038,1.1285214,1.8257713,-1.7199554,-0.21346436,0.815625,2.819641,88
1039,1.4921117,1.4491539,-1.1308746,-0.21346436,0.815625,2.819641,88
1040,3.2546391,0.27690125,1.8981476,-0.21346436,0.815625,2.819641,88
1041,3.2546391,0.27690125,1.8981476,0.35152587,0.5214478,1.4294678,88
1042,3.2546391,0.27690125,1.8981476,0.5171997,0.42161867,1.0205933,88
1043,3.2546391,0.27690125,1.8981476,0.60322267,0.2548828,0.13912354,88
1044,2.6037111,0.22152138,1.5185242,0.60322267,0.2548828,0.13912354,88
1045,0.48421383,1.8593941,-0.36247253,0.60322267,0.2548828,0.13912354,88
1046,0.48421383,1.8593941,-0.36247253,0.60109866,0.16779785,-0.087084964,88
1047,0.48421383,1.8593941,-0.36247253,0.55968016,-0.34727785,-0.77526855,88
1048,0.48421383,1.8593941,-0.36247253,0.6287109,-0.5479981,-1.0917481,88
1049,0.2519951,1.6568146,-0.52360535,0.6287109,-0.5479981,-1.0917481,88
1050,0.2519951,1.6568146,-0.52360535,0.7327881,-0.905896,-1.9222412,88
1051,-0.042520046,1.09552,-0.177948,0.7327881,-0.905896,-1.9222412,88
1052,-0.042520046,1.09552,-0.177948,0.58410645,-0.93350834,-2.0709229,88
1053,-0.6823926,0.5179806,0.46846008,0.58410645,-0.93350834,-2.0709229,88
1054,-0.6823926,0.5179806,0.46846008,0.0998291,-0.9409424,-2.3098755,88
1055,-0.7844763,0.020511627,0.76260376,0.0998291,-0.9409424,-2.3098755,88
1056,-0.7844763,0.020511627,0.76260376,-0.15717773,-1.0556396,-2.5445802,88
1057,0.21078563,-0.39044,0.596344,-0.15717773,-1.0556396,-2.5445802,88
1058,0.21078563,-0.39044,0.596344,-0.07646485,-1.2574219,-2.8345094,88
1059,1.4816899,-0.73140717,0.43582153,-0.07646485,-1.2574219,-2.8345094,88
1060,1.4816899,-0.73140717,0.43582153,0.007434082,-1.3402588,-3.1796632,88
1061,1.4918094,-1.1451473,0.8980255,0.007434082,-1.3402588,-3.1796632,88
1062,1.4918094,-1.1451473,0.8980255,-0.44179687,-1.1034302,-3.5513673,88
1063,0.56123304,-1.487114,1.059082,-0.44179687,-1.1034302,-3.5513673,88
1064,0.56123304,-1.487114,1.059082,-0.65844727,-0.9897949,-3.5460572,88
1065,-1.3403935,-1.7705994,1.0681763,-0.65844727,-0.9897949,-3.5460572,88
1066,-1.3403935,-1.7705994,1.0681763,-1.1512207,-0.721106,-3.4048097,88
1067,-3.0792727,-1.7191887,0.56307983,-1.1512207,-0.721106,-3.4048097,88
1068,-3.0792727,-1.7191887,0.56307983,-1.6939087,-0.49064943,-3.2295778,88
1069,-4.426407,-1.5228119,-0.37469482,-1.6939087,-0.49064943,-3.2295778,88
1070,-4.426407,-1.5228119,-0.37469482,-2.356604,-0.32285157,-3.1010742,88
1071,-3.762866,-1.8787231,-0.4242096,-2.356604,-0.32285157,-3.1010742,88
1072,-3.762866,-1.8787231,-0.4242096,-2.2227905,-0.3802002,-2.994873,88
1073,-2.9119775,-2.425415,-0.3910675,-2.2227905,-0.3802002,-2.994873,88
1074,-2.9119775,-2.425415,-0.3910675,-2.3651001,-0.3154175,-2.9736328,88
1075,-1.6005049,-2.8903923,-0.17012024,-2.3651001,-0.3154175,-2.9736328,88
1076,-1.6005049,-2.8903923,-0.17012024,-2.4829834,-0.22196046,-2.709192,88
1077,-0.24612659,-3.4836884,0.005371094,-2.4829834,-0.22196046,-2.709192,88
1078,-0.24612659,-3.4836884,0.005371094,-2.1187134,-0.30267334,-2.6656494,88
1079,0.9887433,-3.9902592,0.014678955,-2.1187134,-0.30267334,-2.6656494,88
1080,0.9887433,-3.9902592,0.014678955,-2.18031,-0.14124756,-2.611487,88
1081,2.3626378,-4.398384,-0.03199768,-2.18031,-0.14124756,-2.611487,88
1082,2.3626378,-4.398384,-0.03199768,-2.35979,0.121069334,-2.7760987,88
1083,3.8337748,-4.976446,0.13253784,-2.35979,0.121069334,-2.7760987,88
1084,3.8337748,-4.976446,0.13253784,-1.9827759,0.16779785,-2.8387573,88
1085,4.6860266,-5.345024,0.3526764,-1.9827759,0.16779785,-2.8387573,88
1086,4.6860266,-5.345024,0.3526764,-1.7140869,0.26019287,-2.7697265,88
1087,4.140203,-5.1022406,0.30541992,-1.7140869,0.26019287,-2.7697265,88
1088,4.140203,-5.1022406,0.30541992,-1.7926759,0.30373535,-2.436255,88
1089,1.9684,-4.524872,0.03883362,-1.7926759,0.30373535,-2.436255,88
1090,1.9684,-4.524872,0.03883362,-1.5951416,0.21983643,-1.2903442,88
1091,1.0613413,-3.7043705,-0.1439209,-1.5951416,0.21983643,-1.2903442,88
1092,1.0613413,-3.7043705,-0.1439209,-1.2977784,0.10620117,-0.80819094,88
1093,0.49027157,-2.4552932,-0.36654663,-1.2977784,0.10620117,-0.80819094,88
1094,0.49027157,-2.4552932,-0.36654663,-0.3451538,-0.10938721,-0.1359375,88
1095,1.9957085,-1.1593761,-0.46723938,-0.3451538,-0.10938721,-0.1359375,88
1096,1.9957085,-1.1593761,-0.46723938,0.74659425,-0.40144044,0.2803711,88
1097,3.7045622,-0.2598009,-0.2549286,0.74659425,-0.40144044,0.2803711,88
1098,3.7045622,-0.2598009,-0.2549286,1.2446778,-0.4163086,0.83049315,88
1099,2.8009672,0.34766483,0.089660645,1.2446778,-0.4163086,0.83049315,88
1100,2.8009672,0.34766483,0.089660645,1.1841431,-0.36320803,1.3678712,88
1101,0.20652103,0.7644844,0.2539673,1.1841431,-0.36320803,1.3678712,88
1102,0.20652103,0.7644844,0.2539673,1.0227174,-0.33878174,1.8022339,88
1103,-1.4565487,1.029849,0.17245483,1.0227174,-0.33878174,1.8022339,88
1104,-1.4565487,1.029849,0.17245483,1.1883911,-0.4056885,2.1834962,88
1105,-1.5317554,1.26155,0.03616333,1.1883911,-0.4056885,2.1834962,88
1106,-1.5317554,1.26155,0.03616333,1.5919555,-0.45560303,2.4256349,88
1107,-0.90667915,1.5973377,-0.019195557,1.5919555,-0.45560303,2.4256349,88
1108,-0.90667915,1.5973377,-0.019195557,2.0263183,-0.44710693,2.5891845,88
1109,-0.48529243,2.0916395,0.05491638,2.0263183,-0.44710693,2.5891845,88
1110,-0.48529243,2.0916395,0.05491638,2.2748291,-0.29630128,2.7463624,88
1111,-0.93300915,2.6585045,0.27114868,2.2748291,-0.29630128,2.7463624,88
1112,-0.93300915,2.6585045,0.27114868,2.3321779,-0.2177124,2.9906251,88
1113,-2.045333,3.100583,0.35176086,2.3321779,-0.2177124,2.9906251,88
1114,-2.045333,3.100583,0.35176086,2.4054565,-0.060534667,3.0288575,88
1115,-3.0567985,3.5699682,0.14318848,2.4054565,-0.060534667,3.0288575,88
1116,-3.0567985,3.5699682,0.14318848,2.6093628,-0.010620117,3.354895,88
1117,-3.403703,4.062517,-0.29553223,2.6093628,-0.010620117,3.354895,88
1118,-3.403703,4.062517,-0.29553223,2.0040162,0.36427003,3.268872,88
1119,-3.1337292,4.219532,-0.70744324,2.0040162,0.36427003,3.268872,88
1120,-3.1337292,4.219532,-0.70744324,1.9541016,0.3345337,3.62677,88
1121,-2.469276,3.9604893,-0.9260254,1.9541016,0.3345337,3.62677,88
1122,-2.469276,3.9604893,-0.9260254,1.9530395,0.3982544,3.6384523,88
1123,-2.469276,3.9604893,-0.9260254,1.9530395,0.3982544,3.6384523,88
1124,-1.5007384,3.6511917,-0.9845123,1.9530395,0.3982544,3.6384523,88
1125,-1.5007384,3.6511917,-0.9845123,1.9806519,0.3812622,3.5991578,88
1126,-0.49431634,3.3404121,-0.87890625,1.9806519,0.3812622,3.5991578,88
1127,-0.49431634,3.3404121,-0.87890625,2.0687988,0.3993164,3.4653442,88
1128,0.38855577,3.0489044,-0.6874237,2.0687988,0.3993164,3.4653442,88
1129,0.38855577,3.0489044,-0.6874237,2.2440307,0.4088745,3.2869263,88
1130,1.0824022,2.8736935,-0.5713043,2.2440307,0.4088745,3.2869263,88
1131,1.0824022,2.8736935,-0.5713043,2.275891,0.45029297,3.0543458,88
1132,1.8566201,2.8310966,-0.6365814,2.275891,0.45029297,3.0543458,88
1133,1.8566201,2.8310966,-0.6365814,2.0210083,0.5055176,2.720874,88
1134,2.8420832,2.7596893,-0.79634094,2.0210083,0.5055176,2.720874,88
1135,2.8420832,2.7596893,-0.79634094,1.5845215,0.48640138,2.2928834,88
1136,3.6650238,2.6230717,-0.92085266,1.5845215,0.48640138,2.2928834,88
1137,3.6650238,2.6230717,-0.92085266,1.0237793,0.4439209,1.6694825,88
1138,3.6926146,2.605074,-0.9239807,1.0237793,0.4439209,1.6694825,88
1139,3.6926146,2.605074,-0.9239807,0.23789063,0.50233155,0.9632446,88
1140,2.3198385,2.6657982,-0.7290344,0.23789063,0.50233155,0.9632446,88
1141,2.3198385,2.6657982,-0.7290344,-0.7104859,0.5607422,0.41737062,88
1142,0.2207756,2.5073204,-0.34474182,-0.7104859,0.5607422,0.41737062,88
1143,0.2207756,2.5073204,-0.34474182,-1.4347779,0.38763428,-0.0722168,88
1144,-0.6698761,1.8103237,0.034317017,-1.4347779,0.38763428,-0.0722168,88
1145,-0.6698761,1.8103237,0.034317017,-1.6588624,0.15611573,-0.67650145,88
1146,-0.2783203,0.7173252,0.33602905,-1.6588624,0.15611573,-0.67650145,88
1147,-0.2783203,0.7173252,0.33602905,-1.7289551,0.11257324,-1.2807862,88
1148,-0.1838255,-0.34584236,0.5931244,-1.7289551,0.11257324,-1.2807862,88
1149,-0.1838255,-0.34584236,0.5931244,-1.7576294,0.004248047,-1.8553345,88
1150,-0.5004053,-1.1994648,0.80656433,-1.7576294,0.004248047,-1.8553345,88
1151,-0.5004053,-1.1994648,0.80656433,-1.5781494,-0.16036378,-2.1909301,88
1152,-0.4040351,-1.6927624,1.026947,-1.5781494,-0.16036378,-2.1909301,88
1153,-0.4040351,-1.6927624,1.026947,-1.1671509,-0.33028564,-2.4489992,88
1154,0.10549545,-1.7763653,1.354065,-1.1671509,-0.33028564,-2.4489992,88
1155,0.10549545,-1.7763653,1.354065,-0.62977296,-0.48427734,-2.6890137,88
1156,0.35220623,-1.6602039,1.7816772,-0.62977296,-0.48427734,-2.6890137,88
1157,0.35220623,-1.6602039,1.7816772,-0.06903076,-0.62127686,-2.9598267,88
1158,-0.061387062,-1.4943619,1.9943085,-0.06903076,-0.62127686,-2.9598267,88
1159,-0.061387062,-1.4943619,1.9943085,0.10620117,-0.62552494,-3.0670898,88
1160,-1.1681161,-1.3749466,1.6985321,0.10620117,-0.62552494,-3.0670898,88
1161,-1.1681161,-1.3749466,1.6985321,-0.17735596,-0.4991455,-3.0554078,88
1162,-2.7239952,-1.3015823,1.045227,-0.17735596,-0.4991455,-3.0554078,88
1163,-2.7239952,-1.3015823,1.045227,-0.58304447,-0.39082032,-2.9226563,88
1164,-4.101425,-1.1341362,0.35612488,-0.58304447,-0.39082032,-2.9226563,88
1165,-4.101425,-1.1341362,0.35612488,-1.0906861,-0.2516968,-2.8557496,88
1166,-4.5738525,-0.95762634,-0.2247467,-1.0906861,-0.2516968,-2.8557496,88
1167,-4.5738525,-0.95762634,-0.2247467,-1.7438233,-0.06478272,-2.817517,88
1168,-3.9435182,-1.1796513,-0.63456726,-1.7438233,-0.06478272,-2.817517,88
1169,-3.9435182,-1.1796513,-0.63456726,-2.2312868,0.03186035,-2.9237182,88
1170,-2.7080128,-1.9651814,-0.85484314,-2.2312868,0.03186035,-2.9237182,88
1171,-2.7080128,-1.9651814,-0.85484314,-2.095349,-0.11151123,-2.802649,88
1172,-1.4581339,-2.7812634,-0.80911255,-2.095349,-0.11151123,-2.802649,88
1173,-1.4581339,-2.7812634,-0.80911255,-1.7002808,-0.22833252,-2.8100832,88
1174,-0.20378739,-3.230711,-0.44847107,-1.7002808,-0.22833252,-2.8100832,88
1175,-0.20378739,-3.230711,-0.44847107,-1.8181641,-0.12956543,-3.0192993,88
1176,1.2802929,-3.6955929,0.035186768,-1.8181641,-0.12956543,-3.0192993,88
1177,1.2802929,-3.6955929,0.035186768,-2.1165893,-0.04991455,-3.2763062,88
1178,2.7902744,-4.4506397,0.50579834,-2.1165893,-0.04991455,-3.2763062,88
1179,2.7902744,-4.4506397,0.50579834,-2.261023,-0.047790527,-3.4610963,88
1180,3.9073782,-5.2109756,0.9553528,-2.261023,-0.047790527,-3.4610963,88
1181,3.9073782,-5.2109756,0.9553528,-2.3013794,0.09770508,-3.4600341,88
1182,4.215722,-5.6961613,1.1961212,-2.3013794,0.09770508,-3.4600341,88
1183,4.215722,-5.6961613,1.1961212,-2.1431396,0.27718505,-3.2869263,88
1184,3.6221871,-5.7585278,0.9129944,-2.1431396,0.27718505,-3.2869263,88
1185,3.6221871,-5.7585278,0.9129944,-1.5951416,0.26125488,-2.7760987,88
1186,2.6328325,-5.3371563,0.15507507,-1.5951416,0.26125488,-2.7760987,88
1187,2.6328325,-5.3371563,0.15507507,-0.630835,0.095581055,-1.9689697,88
1188,1.6028361,-4.169627,-0.53341675,-0.630835,0.095581055,-1.9689697,88
1189,1.6028361,-4.169627,-0.53341675,0.21877442,-0.052038576,-0.9759888,88
1190,1.5507627,-2.3793907,-0.6341095,0.21877442,-0.052038576,-0.9759888,88
1191,1.5507627,-2.3793907,-0.6341095,1.0205933,-0.18903808,-0.28780517,88
1192,2.9480443,-0.63785076,-0.11405945,1.0205933,-0.18903808,-0.28780517,88
1193,2.9480443,-0.63785076,-0.11405945,1.4900025,-0.3069214,0.2782471,88
1194,3.3545418,0.6089821,0.5583801,1.4900025,-0.3069214,0.2782471,88
1195,3.3545418,0.6089821,0.5583801,1.1639649,-0.17841797,0.9122681,88
1196,1.1806059,1.1923008,0.8211212,1.1639649,-0.17841797,0.9122681,88
1197,1.1806059,1.1923008,0.8211212,0.6446411,-0.14230958,1.5271729,88
1198,-1.3871555,1.1873121,0.5120697,0.6446411,-0.14230958,1.5271729,88
1199,-1.3871555,1.1873121,0.5120697,0.5968506,-0.11151123,2.0475585,88
1200,-2.0550365,0.9015951,0.018920898,0.5968506,-0.11151123,2.0475585,88
1201,-2.0550365,0.9015951,0.018920898,1.080066,-0.20603028,2.4638672,88
1202,-1.1492419,0.65353966,-0.27955627,1.080066,-0.20603028,2.4638672,88
1203,-1.1492419,0.65353966,-0.27955627,1.9487915,-0.32391357,2.7867188,88
1204,0.002017975,0.7558031,-0.32002258,1.9487915,-0.32391357,2.7867188,88
1205,0.002017975,0.7558031,-0.32002258,2.8727417,-0.35895997,3.1255004,88
1206,0.002017975,0.7558031,-0.32002258,2.8727417,-0.35895997,3.1255004,88
1207,0.41982746,1.5341959,-0.15608215,2.8727417,-0.35895997,3.1255004,88
1208,0.41982746,1.5341959,-0.15608215,3.4876466,-0.1359375,3.449414,88
1209,-0.2802148,2.8624277,0.04550171,3.4876466,-0.1359375,3.449414,88
1210,-0.2802148,2.8624277,0.04550171,3.8816528,0.023364259,3.812622,88
1211,-1.4837303,4.262513,-0.066604614,3.8816528,0.023364259,3.812622,88
1212,-1.4837303,4.262513,-0.066604614,3.9485595,0.19328614,4.0855594,88
1213,-2.4720917,5.3587656,-0.52575684,3.9485595,0.19328614,4.0855594,88
1214,-2.4720917,5.3587656,-0.52575684,3.6586304,0.39082032,4.083435,88
1215,-3.1783814,5.841322,-0.9101715,3.6586304,0.39082032,4.083435,88
1216,-3.1783814,5.841322,-0.9101715,3.2157714,0.6074707,4.1121097,88
1217,-3.3958912,5.5914536,-0.9926758,3.2157714,0.6074707,4.1121097,88
1218,-3.3958912,5.5914536,-0.9926758,2.7591064,0.7497803,4.044141,88
1219,-2.841432,4.850422,-0.9440155,2.7591064,0.7497803,4.044141,88
1220,-2.841432,4.850422,-0.9440155,2.3725343,0.9505005,3.9177613,88
1221,-1.7850475,4.0363426,-0.9647217,2.3725343,0.9505005,3.9177613,88
1222,-1.7850475,4.0363426,-0.9647217,2.18031,1.0620117,3.6958008,88
1223,-0.70046234,3.344944,-1.1481171,2.18031,1.0620117,3.6958008,88
1224,-0.70046234,3.344944,-1.1481171,2.1431396,1.1331666,3.3963134,88
1225,0.31879282,2.8194733,-1.4545135,2.1431396,1.1331666,3.3963134,88
1226,0.31879282,2.8194733,-1.4545135,2.156946,1.2011353,3.0139892,88
1227,1.3604541,2.4266853,-1.7339172,2.156946,1.2011353,3.0139892,88
1228,1.3604541,2.4266853,-1.7339172,2.1357057,1.2223755,2.4893556,88
1229,2.5421228,2.2027988,-1.821579,2.1357057,1.2223755,2.4893556,88
1230,2.5421228,2.2027988,-1.821579,1.7841797,1.2595459,1.8139161,88
1231,3.7637396,2.1376553,-1.6790314,1.7841797,1.2595459,1.8139161,88
1232,3.7637396,2.1376553,-1.6790314,1.0620117,1.363623,1.0790039,88
1233,4.2710867,2.2244186,-1.4111328,1.0620117,1.363623,1.0790039,88
1234,4.2710867,2.2244186,-1.4111328,-0.004248047,1.4857544,0.27718505,88
1235,3.2321525,2.4090042,-1.0566711,-0.004248047,1.4857544,0.27718505,88
1236,3.2321525,2.4090042,-1.0566711,-1.445398,1.5664673,-0.23789063,88
1237,0.88567305,2.4482117,-0.51412964,-1.445398,1.5664673,-0.23789063,88
1238,0.88567305,2.4482117,-0.51412964,-2.5658205,1.4177856,-0.33134767,88
1239,-1.1811099,2.06925,0.2419281,-2.5658205,1.4177856,-0.33134767,88
1240,-1.1811099,2.06925,0.2419281,-3.1414306,0.9420044,-0.30161133,88
1241,-1.573245,0.96144295,0.9272156,-3.1414306,0.9420044,-0.30161133,88
1242,-1.573245,0.96144295,0.9272156,-2.8706176,0.33984375,-0.6446411,88
1243,-0.9319725,-0.39195442,1.3625641,-2.8706176,0.33984375,-0.6446411,88
1244,-0.9319725,-0.39195442,1.3625641,-2.2514648,-0.08602295,-1.0046631,88
1245,-0.59982634,-1.3838654,1.6221771,-2.2514648,-0.08602295,-1.0046631,88
1246,-0.59982634,-1.3838654,1.6221771,-1.5303589,-0.4715332,-1.4666382,88
1247,-0.57362366,-1.8935432,1.7427826,-1.5303589,-0.4715332,-1.4666382,88
1248,-0.57362366,-1.8935432,1.7427826,-0.8623535,-0.74022216,-1.8202881,88
1249,-0.2544675,-1.9012737,1.7352142,-0.8623535,-0.74022216,-1.8202881,88
1250,-0.2544675,-1.9012737,1.7352142,-0.30479738,-0.9165161,-2.1165893,88
1251,0.23137474,-1.6072502,1.6059265,-0.30479738,-0.9165161,-2.1165893,88
1252,0.23137474,-1.6072502,1.6059265,0.11257324,-1.1384766,-2.4054565,88
1253,0.3462324,-1.2338963,1.3177185,0.11257324,-1.1384766,-2.4054565,88
1254,0.3462324,-1.2338963,1.3177185,0.009558106,-1.3083985,-2.6858277,88
1255,-0.06384659,-1.0825024,0.968338,0.009558106,-1.3083985,-2.6858277,88
1256,-0.06384659,-1.0825024,0.968338,-0.3164795,-1.2818482,-2.8674316,88
1257,-0.9959259,-1.190258,0.87971497,-0.3164795,-1.2818482,-2.8674316,88
1258,-0.9959259,-1.190258,0.87971497,-0.50445557,-1.088562,-2.885486,88
1259,-2.2946534,-1.2039394,0.97821045,-0.50445557,-1.088562,-2.885486,88
1260,-2.2946534,-1.2039394,0.97821045,-0.8421753,-0.81031495,-2.7984009,88
1261,-3.422661,-1.0585251,0.6903229,-0.8421753,-0.81031495,-2.7984009,88
1262,-3.422661,-1.0585251,0.6903229,-1.2945923,-0.55543214,-2.6826417,88
1263,-3.9425602,-1.0257378,-0.058151245,-1.2945923,-0.55543214,-2.6826417,88
1264,-3.9425602,-1.0257378,-0.058151245,-1.6365601,-0.41312256,-2.5552003,88
1265,-3.960701,-1.2171612,-0.5943146,-1.6365601,-0.41312256,-2.5552003,88
1266,-3.960701,-1.2171612,-0.5943146,-1.7884277,-0.32922363,-2.4224489,88
1267,-3.6186464,-1.5120354,-0.5558014,-1.7884277,-0.32922363,-2.4224489,88
1268,-3.6186464,-1.5120354,-0.5558014,-2.3056276,-0.1985962,-2.3321779,88
1269,-2.8050733,-2.0608864,-0.1593628,-2.3056276,-0.1985962,-2.3321779,88
1270,-2.8050733,-2.0608864,-0.1593628,-2.795215,-0.06478272,-2.2684572,88
1271,-1.5801182,-3.030838,0.45822144,-2.795215,-0.06478272,-2.2684572,88
1272,-1.5801182,-3.030838,0.45822144,-2.6953857,-0.045666505,-2.2026124,88
1273,-0.14191441,-4.042261,1.017746,-2.6953857,-0.045666505,-2.2026124,88
1274,-0.14191441,-4.042261,1.017746,-2.163318,-0.23045655,-2.177124,88
1275,1.4479797,-4.7599926,1.2957611,-2.163318,-0.23045655,-2.177124,88
1276,1.4479797,-4.7599926,1.2957611,-1.3869873,-0.31860352,-2.3300538,88
1277,1.4479797,-4.7599926,1.2957611,-0.6690674,-0.2623169,-2.4957275,88
1278,2.8932471,-5.0848007,1.462143,-0.6690674,-0.2623169,-2.4957275,88
1279,3.7805889,-4.438507,1.0596161,-0.6690674,-0.2623169,-2.4957275,88
1280,3.7805889,-4.438507,1.0596161,-0.24744873,-0.05628662,-2.4224489,88
1281,3.7805889,-4.438507,1.0596161,-0.07540283,0.06478272,-2.1548219,88
1282,3.7805889,-4.438507,1.0596161,0.18479005,0.052038576,-1.7374512,88
1283,3.6002035,-3.0022707,0.2108612,0.18479005,0.052038576,-1.7374512,88
1284,3.6002035,-3.0022707,0.2108612,0.48427734,-0.057348635,-1.2372437,88
1285,3.7284172,-1.7623024,-0.13819885,0.48427734,-0.057348635,-1.2372437,88
1286,3.7284172,-1.7623024,-0.13819885,0.55968016,-0.11151123,-0.8262451,88
1287,3.9863958,-0.91991234,-0.016342163,0.55968016,-0.11151123,-0.8262451,88
1288,3.9863958,-0.91991234,-0.016342163,0.43117675,-0.12956543,-0.45454103,88
1289,3.7622247,-0.6572914,0.3450775,0.43117675,-0.12956543,-0.45454103,88
1290,3.7622247,-0.6572914,0.3450775,0.32497558,-0.027612304,-0.07115479,88
1291,2.5224266,-0.6870642,0.6576538,0.32497558,-0.027612304,-0.07115479,88
1292,2.5224266,-0.6870642,0.6576538,0.34940186,-0.023364259,0.3706421,88
1293,0.684433,-0.5297537,0.5303345,0.34940186,-0.023364259,0.3706421,88
1294,0.684433,-0.5297537,0.5303345,0.3079834,0.0180542,0.8209351,88
1295,-0.82454824,-0.15203857,-0.055130005,0.3079834,0.0180542,0.8209351,88
1296,-0.82454824,-0.15203857,-0.055130005,0.4364868,0.043542482,1.1586548,88
1297,-1.4286695,0.16540527,-0.6134033,0.4364868,0.043542482,1.1586548,88
1298,-1.4286695,0.16540527,-0.6134033,0.83049315,-0.012744141,1.4528321,88
1299,-1.0643587,0.3994379,-0.7438965,0.83049315,-0.012744141,1.4528321,88
1300,-1.0643587,0.3994379,-0.7438965,1.3997315,-0.07115479,1.6737305,88
1301,-0.3818946,0.7823067,-0.51286316,1.3997315,-0.07115479,1.6737305,88
1302,-0.3818946,0.7823067,-0.51286316,1.7533814,-0.007434082,1.9349854,88
1303,-0.32724428,1.3877106,-0.14001465,1.7533814,-0.007434082,1.9349854,88
1304,-0.32724428,1.3877106,-0.14001465,1.718335,0.22939454,2.083667,88
1305,-1.2319126,1.9921513,0.14624023,1.718335,0.22939454,2.083667,88
1306,-1.2319126,1.9921513,0.14624023,1.7416992,0.35577393,2.3767822,88
1307,-2.56501,2.5301838,0.14376831,1.7416992,0.35577393,2.3767822,88
1308,-2.56501,2.5301838,0.14376831,1.8712647,0.33984375,2.5849366,88
1309,-3.3519838,3.062355,-0.18132019,1.8712647,0.33984375,2.5849366,88
1310,-3.3519838,3.062355,-0.18132019,1.4581422,0.69136965,2.5615723,88
1311,-3.3692093,3.3455143,-0.56637573,1.4581422,0.69136965,2.5615723,88
1312,-3.3692093,3.3455143,-0.56637573,1.1384766,0.90270996,2.8207033,88
1313,-2.8751771,3.2042313,-0.8639984,1.1384766,0.90270996,2.8207033,88
1314,-2.8751771,3.2042313,-0.8639984,0.9855469,0.9133301,3.0405395,88
1315,-2.019978,2.8861637,-1.1527863,0.9855469,0.9133301,3.0405395,88
1316,-2.019978,2.8861637,-1.1527863,1.0237793,0.9133301,3.087268,88
1317,-0.98868763,2.5556602,-1.3715668,1.0237793,0.9133301,3.087268,88
1318,-0.98868763,2.5556602,-1.3715668,1.175647,0.83898926,3.0416017,88
1319,0.12714064,2.2750206,-1.4116821,1.175647,0.83898926,3.0416017,88
1320,0.12714064,2.2750206,-1.4116821,1.4018555,0.75509036,2.9194703,88
1321,1.2136388,2.071848,-1.2312927,1.4018555,0.75509036,2.9194703,88
1322,1.2136388,2.071848,-1.2312927,1.5802735,0.6786255,2.6847656,88
1323,1.2136388,2.071848,-1.2312927,1.629126,0.6074707,2.3088136,88
1324,2.168616,1.9338093,-0.9241791,1.629126,0.6074707,2.3088136,88
1325,4.368963,2.022169,-0.43795776,1.629126,0.6074707,2.3088136,88
1326,4.368963,2.022169,-0.43795776,1.629126,0.6074707,2.3088136,88
1327,4.368963,2.022169,-0.43795776,1.5176147,0.5331299,1.8733886,88
1328,4.368963,2.022169,-0.43795776,1.2563599,0.46834716,1.4114136,88
1329,4.368963,2.022169,-0.43795776,0.75721437,0.45772704,0.90270996,88
1330,4.514677,1.9397926,-0.3448944,0.75721437,0.45772704,0.90270996,88
1331,1.2184067,2.6155548,-1.0256348,0.75721437,0.45772704,0.90270996,88
1332,1.2184067,2.6155548,-1.0256348,0.06690674,0.50445557,0.4725952,88
1333,1.2184067,2.6155548,-1.0256348,-0.6510132,0.3334717,0.14655761,88
1334,1.2184067,2.6155548,-1.0256348,-1.0428956,0.052038576,-0.33240968,88
1335,0.7208557,1.6890488,-0.9174347,-1.0428956,0.052038576,-0.33240968,88
1336,0.7208557,1.6890488,-0.9174347,-1.2860962,-0.14655761,-0.7965088,88
1337,0.27120352,0.7426567,-0.45298767,-1.2860962,-0.14655761,-0.7965088,88
1338,0.27120352,0.7426567,-0.45298767,-1.356189,-0.30161133,-1.2128174,88
1339,-0.4903617,0.023763657,0.19815063,-1.356189,-0.30161133,-1.2128174,88
1340,-0.4903617,0.023763657,0.19815063,-1.2882203,-0.4248047,-1.4687623,88
1341,-1.0690594,-0.38103867,0.73812866,-1.2882203,-0.4248047,-1.4687623,88
1342,-1.0690594,-0.38103867,0.73812866,-1.0280274,-0.55543214,-1.6046997,88
1343,-0.854393,-0.568491,1.0914001,-1.0280274,-0.55543214,-1.6046997,88
1344,-0.854393,-0.568491,1.0914001,-0.63933104,-0.6446411,-1.7735596,88
1345,-0.025604248,-0.7149124,1.32341,-0.63933104,-0.6446411,-1.7735596,88
1346,-0.025604248,-0.7149124,1.32341,-0.2623169,-0.6977417,-1.9201173,88
1347,0.5495119,-0.8405838,1.4139099,-0.2623169,-0.6977417,-1.9201173,88
1348,0.5495119,-0.8405838,1.4139099,-0.025488282,-0.6552612,-1.983838,88
1349,0.201365,-0.83441734,1.3119354,-0.025488282,-0.6552612,-1.983838,88
1350,0.201365,-0.83441734,1.3119354,-0.007434082,-0.47684327,-1.8871949,88
1351,-1.2001505,-0.5285206,1.0314941,-0.007434082,-0.47684327,-1.8871949,88
1352,-1.2001505,-0.5285206,1.0314941,-0.3079834,-0.26019287,-1.6662964,88
1353,-3.1144416,0.011766434,0.57281494,-0.3079834,-0.26019287,-1.6662964,88
1354,-3.1144416,0.011766434,0.57281494,-0.8071289,-0.11363526,-1.4273437,88
1355,-4.595191,0.39193344,-0.003875732,-0.8071289,-0.11363526,-1.4273437,88
1356,-4.595191,0.39193344,-0.003875732,-1.2202514,-0.0637207,-1.2361816,88
1357,-4.9796076,0.31773376,-0.4635315,-1.2202514,-0.0637207,-1.2361816,88
1358,-4.9796076,0.31773376,-0.4635315,-1.3391968,-0.07752686,-1.1565307,88
1359,-4.101325,-0.20831299,-0.56318665,-1.3391968,-0.07752686,-1.1565307,88
1360,-4.101325,-0.20831299,-0.56318665,-1.4581422,-0.08602295,-1.1968873,88
1361,-2.520147,-1.0259895,-0.31022644,-1.4581422,-0.08602295,-1.1968873,88
1362,-2.520147,-1.0259895,-0.31022644,-1.3869873,-0.16036378,-1.1915772,88
1363,-0.9901045,-1.8618202,0.06350708,-1.3869873,-0.16036378,-1.1915772,88
1364,-0.9901045,-1.8618202,0.06350708,-1.3795532,-0.16673584,-1.2383057,88
1365,0.35889292,-2.556509,0.42381287,-1.3795532,-0.16673584,-1.2383057,88
1366,0.35889292,-2.556509,0.42381287,-1.170337,-0.23789063,-1.4114136,88
1367,1.6216115,-3.0799847,0.8827057,-1.170337,-0.23789063,-1.4114136,88
1368,1.6216115,-3.0799847,0.8827057,-0.9802368,-0.2984253,-1.6408081,88
1369,1.6216115,-3.0799847,0.8827057,-1.1182984,-0.15717773,-1.8532104,88
1370,2.6815789,-3.4987526,1.4143524,-1.1182984,-0.15717773,-1.8532104,88
1371,3.5486567,-5.100601,1.6537933,-1.1182984,-0.15717773,-1.8532104,88
1372,3.5486567,-5.100601,1.6537933,-1.0609497,-0.052038576,-1.991272,88
1373,3.5486567,-5.100601,1.6537933,-0.99085695,-0.002124023,-1.9190552,88
1374,3.5486567,-5.100601,1.6537933,-0.7508423,-0.060534667,-1.7586914,88
1375,3.2263887,-4.226404,0.9408264,-0.7508423,-0.060534667,-1.7586914,88
1376,3.2263887,-4.226404,0.9408264,-0.14549561,-0.16567384,-1.5208008,88
1377,3.0839674,-3.183528,0.5735016,-0.14549561,-0.16567384,-1.5208008,88
1378,3.0839674,-3.183528,0.5735016,0.1083252,-0.26125488,-1.2276856,88
1379,3.3593004,-2.2727995,0.46574402,0.1083252,-0.26125488,-1.2276856,88
1380,3.3593004,-2.2727995,0.46574402,0.38232422,-0.26868898,-1.0513916,88
1381,4.0862684,-1.7983055,0.66033936,0.38232422,-0.26868898,-1.0513916,88
1382,4.0862684,-1.7983055,0.66033936,0.5734863,-0.25700685,-0.73703617,88
1383,3.8021445,-1.4027319,0.87371826,0.5734863,-0.25700685,-0.73703617,88
1384,3.8021445,-1.4027319,0.87371826,0.4725952,-0.11469727,-0.25594482,88
1385,1.9632978,-0.82063484,0.6082001,0.4725952,-0.11469727,-0.25594482,88
1386,1.9632978,-0.82063484,0.6082001,0.19116211,-0.008496094,0.27718505,88
1387,-0.06763077,-0.19528961,-0.11225891,0.19116211,-0.008496094,0.27718505,88
1388,-0.06763077,-0.19528961,-0.11225891,0.28355715,0.039294433,0.77314454,88
1389,-0.8310456,0.20114136,-0.69664,0.28355715,0.039294433,0.77314454,88
1390,-0.8310456,0.20114136,-0.69664,0.8442993,-0.0722168,1.1076783,88
1391,-0.56282234,0.44539833,-0.83784485,0.8442993,-0.0722168,1.1076783,88
1392,-0.56282234,0.44539833,-0.83784485,1.3976074,-0.13168946,1.3933594,88
1393,-0.23083687,0.7890701,-0.6275482,1.3976074,-0.13168946,1.3933594,88
1394,-0.23083687,0.7890701,-0.6275482,1.6036377,-0.015930176,1.5781494,88
1395,-0.4235978,1.2276669,-0.28900146,1.6036377,-0.015930176,1.5781494,88
1396,-0.4235978,1.2276669,-0.28900146,1.6514282,0.124255374,1.7300171,88
1397,-1.2914662,1.7180471,-0.026931763,1.6514282,0.124255374,1.7300171,88
1398,-1.2914662,1.7180471,-0.026931763,1.6578003,0.21027832,2.0210083,88
1399,-2.5111518,2.2810545,-0.019470215,1.6578003,0.21027832,2.0210083,88
1400,-2.5111518,2.2810545,-0.019470215,1.5770874,0.3812622,2.1070313,88
1401,-3.51367,2.8645163,-0.23361206,1.5770874,0.3812622,2.1070313,88
1402,-3.51367,2.8645163,-0.23361206,1.2000732,0.6085327,2.156946,88
1403,-3.957518,3.1025877,-0.4059906,1.2000732,0.6085327,2.156946,88
1404,-3.957518,3.1025877,-0.4059906,1.176709,0.77951664,2.4521852,88
1405,-3.9917958,3.0006847,-0.39701843,1.176709,0.77951664,2.4521852,88
1406,-3.9917958,3.0006847,-0.39701843,1.3168945,0.79332274,2.6072388,88
1407,-3.6587076,2.878111,-0.45617676,1.3168945,0.79332274,2.6072388,88
1408,-3.6587076,2.878111,-0.45617676,1.445398,0.8623535,2.5817506,88
1409,-2.7097054,2.6302967,-0.75354004,1.445398,0.8623535,2.5817506,88
1410,-2.7097054,2.6302967,-0.75354004,1.6174439,0.88996583,2.5063477,88
1411,-1.2169343,2.2052631,-1.1943359,1.6174439,0.88996583,2.5063477,88
1412,-1.2169343,2.2052631,-1.1943359,1.8213501,0.8581055,2.3757203,88
1413,0.4579345,1.792141,-1.5634003,1.8213501,0.8581055,2.3757203,88
1414,0.4579345,1.792141,-1.5634003,2.0263183,0.84111327,2.1367676,88
1415,0.4579345,1.792141,-1.5634003,2.2174804,0.8527954,1.719397,88
1416,2.1173363,1.5201874,-1.6745911,2.2174804,0.8527954,1.719397,88
1417,2.1173363,1.5201874,-1.6745911,2.2174804,0.8527954,1.719397,88
1418,5.4259005,1.8735352,-1.5985718,2.2174804,0.8527954,1.719397,88
1419,5.4259005,1.8735352,-1.5985718,2.1463258,0.87403566,1.3179566,88
1420,5.4259005,1.8735352,-1.5985718,1.7077149,0.9122681,0.98448485,88
1421,5.4259005,1.8735352,-1.5985718,0.9366943,0.93563235,0.6818115,88
1422,5.7163305,1.9590569,-1.4768982,0.9366943,0.93563235,0.6818115,88
1423,4.6561337,2.9313927,-1.73349,0.9366943,0.93563235,0.6818115,88
1424,4.6561337,2.9313927,-1.73349,0.08602295,0.89208984,0.5033936,88
1425,4.6561337,2.9313927,-1.73349,-0.89846194,0.817749,0.2814331,88
1426,2.3536787,3.0268764,-1.5227051,-0.89846194,0.817749,0.2814331,88
1427,2.3536787,3.0268764,-1.5227051,-1.8171021,0.49064943,0.13062744,88
1428,1.0187097,2.3666058,-1.2109833,-1.8171021,0.49064943,0.13062744,88
1429,1.0187097,2.3666058,-1.2109833,-2.1813722,0.14018555,-0.23789063,88
1430,0.64640045,0.9867039,-0.6639099,-2.1813722,0.14018555,-0.23789063,88
1431,0.64640045,0.9867039,-0.6639099,-2.1781862,-0.095581055,-0.634021,88
1432,0.06801176,-0.45853806,0.14379883,-2.1781862,-0.095581055,-0.634021,88
1433,0.06801176,-0.45853806,0.14379883,-1.893567,-0.32285157,-1.0152832,88
1434,-0.8357396,-1.2971287,0.8109741,-1.893567,-0.32285157,-1.0152832,88
1435,-0.8357396,-1.2971287,0.8109741,-1.628064,-0.41524658,-1.2234375,88
1436,-1.2542243,-1.3949051,0.9907074,-1.628064,-0.41524658,-1.2234375,88
1437,-1.2542243,-1.3949051,0.9907074,-1.2351197,-0.42055663,-1.3530029,88
1438,-0.7475567,-1.0649357,0.8399811,-1.2351197,-0.42055663,-1.3530029,88
1439,-0.7475567,-1.0649357,0.8399811,-0.724292,-0.47790527,-1.4804443,88
1440,-0.014964581,-0.56432724,0.6065521,-0.724292,-0.47790527,-1.4804443,88
1441,-0.014964581,-0.56432724,0.6065521,-0.39506838,-0.53950197,-1.6716064,88
1442,0.015823841,-0.2517662,0.39744568,-0.39506838,-0.53950197,-1.6716064,88
1443,0.015823841,-0.2517662,0.39744568,-0.45560303,-0.5214478,-1.8871949,88
1444,-0.9267087,-0.34856796,0.27713013,-0.45560303,-0.5214478,-1.8871949,88
1445,-0.9267087,-0.34856796,0.27713013,-0.7126099,-0.5214478,-2.0178223,88
1446,-2.4514377,-0.63526344,0.27793884,-0.7126099,-0.5214478,-2.0178223,88
1447,-2.4514377,-0.63526344,0.27793884,-1.089624,-0.5161377,-2.0603027,88
1448,-3.787383,-0.8914509,0.40612793,-1.089624,-0.5161377,-2.0603027,88
1449,-3.787383,-0.8914509,0.40612793,-1.3816773,-0.4980835,-2.0709229,88
1450,-4.3136225,-1.1169567,0.5984955,-1.3816773,-0.4980835,-2.0709229,88
1451,-4.3136225,-1.1169567,0.5984955,-1.5176147,-0.4067505,-2.081543,88
1452,-3.8157053,-1.4046497,0.69581604,-1.5176147,-0.4067505,-2.081543,88
1453,-3.8157053,-1.4046497,0.69581604,-1.5823975,-0.32178956,-2.1526978,88
1454,-2.7858648,-1.8674812,0.6191101,-1.5823975,-0.32178956,-2.1526978,88
1455,-2.7858648,-1.8674812,0.6191101,-1.5845215,-0.3079834,-2.2174804,88
1456,-1.8541192,-2.4344387,0.39605713,-1.5845215,-0.3079834,-2.2174804,88
1457,-1.8541192,-2.4344387,0.39605713,-1.4581422,-0.33134767,-2.2185426,88
1458,-0.90248483,-2.875103,0.21826172,-1.4581422,-0.33134767,-2.2185426,88
1459,-0.90248483,-2.875103,0.21826172,-1.1076783,-0.4885254,-2.1187134,88
1460,0.14230657,-3.046896,0.42318726,-1.1076783,-0.4885254,-2.1187134,88
1461,0.14230657,-3.046896,0.42318726,-0.8336792,-0.6966797,-2.1558838,88
1462,1.2591822,-3.0714035,1.056839,-0.8336792,-0.6966797,-2.1558838,88
1463,1.2591822,-3.0714035,1.056839,-1.2882203,-0.74447024,-2.2132325,88
1464,2.5678072,-3.3085995,1.8146057,-1.2882203,-0.74447024,-2.2132325,88
1465,2.5678072,-3.3085995,1.8146057,-1.8234742,-0.50233155,-2.253589,88
1466,3.8331032,-3.896061,2.3619843,-1.8234742,-0.50233155,-2.253589,88
1467,3.8331032,-3.896061,2.3619843,-1.8277222,-0.2888672,-2.3013794,88
1468,4.3406525,-4.4670677,2.3646393,-1.8277222,-0.2888672,-2.3013794,88
1469,4.3406525,-4.4670677,2.3646393,-1.364685,-0.09239502,-2.1994264,88
1470,3.755176,-4.5620575,1.6794281,-1.364685,-0.09239502,-2.1994264,88
1471,3.755176,-4.5620575,1.6794281,-0.75721437,0.0180542,-1.9541016,88
1472,2.4989653,-4.0044193,0.6547241,-0.75721437,0.0180542,-1.9541016,88
1473,2.4989653,-4.0044193,0.6547241,-0.1539917,0.019116212,-1.4900025,88
1474,1.1565456,-2.8414268,-0.23893738,-0.1539917,0.019116212,-1.4900025,88
1475,1.1565456,-2.8414268,-0.23893738,0.2803711,-0.014868164,-0.8591675,88
1476,0.88539267,-1.5474577,-0.630249,0.2803711,-0.014868164,-0.8591675,88
1477,0.88539267,-1.5474577,-0.630249,0.8092529,-0.05628662,-0.41418457,88
1478,2.1730967,-0.64608383,-0.2572174,0.8092529,-0.05628662,-0.41418457,88
1479,2.1730967,-0.64608383,-0.2572174,1.2765381,-0.10301514,-0.038232423,88
1480,3.068592,-0.010532379,0.42034912,1.2765381,-0.10301514,-0.038232423,88
1481,3.068592,-0.010532379,0.42034912,1.1597168,-0.002124023,0.42692873,88
1482,2.119339,0.5426359,0.5794525,1.1597168,-0.002124023,0.42692873,88
1483,2.119339,0.5426359,0.5794525,0.65844727,0.10089111,0.91864014,88
1484,0.54766846,0.8611355,0.12634277,0.65844727,0.10089111,0.91864014,88
1485,0.54766846,0.8611355,0.12634277,0.52675784,0.15930176,1.3413209,88
1486,-0.27924824,0.9619303,-0.40802002,0.52675784,0.15930176,1.3413209,88
1487,-0.27924824,0.9619303,-0.40802002,0.85704345,0.10089111,1.7002808,88
1488,-0.4489479,1.0482912,-0.7182312,0.85704345,0.10089111,1.7002808,88
1489,-0.4489479,1.0482912,-0.7182312,1.2903442,0.040356446,1.9583496,88
1490,-0.32240295,1.2058697,-0.78300476,1.2903442,0.040356446,1.9583496,88
1491,-0.32240295,1.2058697,-0.78300476,1.6418701,0.05522461,2.1388917,88
1492,-0.3486328,1.5264387,-0.6430969,1.6418701,0.05522461,2.1388917,88
1493,-0.3486328,1.5264387,-0.6430969,1.803296,0.20709229,2.3247437,88
1494,-1.1304321,2.0535975,-0.49389648,1.803296,0.20709229,2.3247437,88
1495,-1.1304321,2.0535975,-0.49389648,1.8287842,0.3090454,2.6029909,88
1496,-2.3625736,2.7182312,-0.5912018,1.8287842,0.3090454,2.6029909,88
1497,-2.3625736,2.7182312,-0.5912018,1.812854,0.37807617,2.9523926,88
1498,-3.2904496,3.399805,-0.9512024,1.812854,0.37807617,2.9523926,88
1499,-3.2904496,3.399805,-0.9512024,1.6408081,0.5511841,2.9460206,88
1500,-3.6539783,3.7868977,-1.2806244,1.6408081,0.5511841,2.9460206,88
1501,-3.6539783,3.7868977,-1.2806244,1.2829102,0.73809814,3.079834,88
1502,-3.386598,3.6550426,-1.4010315,1.2829102,0.73809814,3.079834,88
1503,-3.386598,3.6550426,-1.4010315,1.1883911,0.7168579,3.342151,88
1504,-2.6139538,3.2649288,-1.4408569,1.1883911,0.7168579,3.342151,88
1505,-2.6139538,3.2649288,-1.4408569,1.178833,0.7338501,3.3867555,88
1506,-1.7386729,2.9204636,-1.4796906,1.178833,0.7338501,3.3867555,88
1507,-1.7386729,2.9204636,-1.4796906,1.2595459,0.6966797,3.352771,88
1508,-0.98921704,2.6783142,-1.482666,1.2595459,0.6966797,3.352771,88
1509,-0.98921704,2.6783142,-1.482666,1.359375,0.67331547,3.259314,88
1510,-0.3561319,2.4991703,-1.4407806,1.359375,0.67331547,3.259314,88
1511,-0.3561319,2.4991703,-1.4407806,1.4347779,0.63826907,3.0023072,88
1512,0.21870768,2.306612,-1.364212,1.4347779,0.63826907,3.0023072,88
1513,0.21870768,2.306612,-1.364212,1.535669,0.5055176,2.6401613,88
1514,0.9723172,2.0983658,-1.1954803,1.535669,0.5055176,2.6401613,88
1515,0.9723172,2.0983658,-1.1954803,1.5048707,0.37701416,2.1452637,88
1516,2.0769017,1.8044624,-0.85250854,1.5048707,0.37701416,2.1452637,88
1517,2.0769017,1.8044624,-0.85250854,1.4369019,0.271875,1.4857544,88
1518,3.459898,1.3518581,-0.32344055,1.4369019,0.271875,1.4857544,88
1519,3.459898,1.3518581,-0.32344055,1.2372437,0.20496826,0.75721437,88
1520,4.5523424,0.869915,0.23417664,1.2372437,0.20496826,0.75721437,88
1521,4.5523424,0.869915,0.23417664,0.80181885,0.271875,0.059472658,88
1522,4.5523424,0.869915,0.23417664,0.80181885,0.271875,0.059472658,89
1523,4.3072186,0.62740135,0.5175781,0.80181885,0.271875,0.059472658,89
1524,4.3072186,0.62740135,0.5175781,0.17523193,0.39613038,-0.35046387,89
1525,2.592577,0.8759575,0.31253052,0.17523193,0.39613038,-0.35046387,89
1526,2.592577,0.8759575,0.31253052,-0.5299439,0.32178956,-0.5235718,89
1527,1.4186049,1.0028667,0.073013306,-0.5299439,0.32178956,-0.5235718,89
1528,1.4186049,1.0028667,0.073013306,-0.81987303,0.19434814,-0.6159668,89
1529,0.031502247,1.9584217,-0.58721924,-0.81987303,0.19434814,-0.6159668,89
1530,0.031502247,1.9584217,-0.58721924,-1.3901733,-0.16992188,-0.93563235,89
1531,-0.31329918,1.5851212,-0.35469055,-1.3901733,-0.16992188,-0.93563235,89
1532,-0.31329918,1.5851212,-0.35469055,-1.3997315,-0.3069214,-1.0439576,89
1533,-1.1578903,0.7129822,0.64256287,-1.3997315,-0.3069214,-1.0439576,89
1534,-1.1578903,0.7129822,0.64256287,-1.3168945,-0.73809814,-1.2627319,89
1535,-0.93609047,0.017906189,1.070343,-1.3168945,-0.73809814,-1.2627319,89
1536,-0.93609047,0.017906189,1.070343,-1.1820191,-0.8400513,-1.3689331,89
1537,0.99507284,-1.1838932,1.8558807,-1.1820191,-0.8400513,-1.3689331,89
1538,0.99507284,-1.1838932,1.8558807,-0.36851808,-1.0120972,-1.717273,89
1539,1.5199108,-1.3789139,1.7732391,-0.36851808,-1.0120972,-1.717273,89
1540,1.5199108,-1.3789139,1.7732391,-0.15823975,-1.0269654,-1.8372803,89
1541,1.5293322,-1.3428783,1.5872955,-0.15823975,-1.0269654,-1.8372803,89
1542,1.5293322,-1.3428783,1.5872955,-0.11363526,-0.84111327,-2.0592408,89
1543,0.430192,-1.1489735,1.2607422,-0.11363526,-0.84111327,-2.0592408,89
1544,0.430192,-1.1489735,1.2607422,-0.19541016,-0.7327881,-2.0603027,89
1545,-3.37257,-0.38362122,0.6906128,-0.19541016,-0.7327881,-2.0603027,89
1546,-3.37257,-0.38362122,0.6906128,-0.60216063,-0.5564942,-1.8510865,89
1547,-4.0252776,-0.25606728,0.4608612,-0.60216063,-0.5564942,-1.8510865,89
1548,-4.0252776,-0.25606728,0.4608612,-0.7678345,-0.542688,-1.7916138,89
1549,-6.073579,0.28165627,-0.39993286,-0.7678345,-0.542688,-1.7916138,89
1550,-6.073579,0.28165627,-0.39993286,-1.3360108,-0.46728516,-1.7024049,89
1551,-5.402088,-0.03115654,-0.5110321,-1.3360108,-0.46728516,-1.7024049,89
1552,-5.402088,-0.03115654,-0.5110321,-1.6726685,-0.35683593,-1.7151489,89
1553,-4.500724,-1.0612411,-0.6904602,-1.6726685,-0.35683593,-1.7151489,89
1554,-4.500724,-1.0612411,-0.6904602,-1.9477295,-0.5692383,-1.5739014,89
1555,-3.34616,-1.6968327,-0.35829163,-1.9477295,-0.5692383,-1.5739014,89
1556,-3.34616,-1.6968327,-0.35829163,-2.1834962,-0.60216063,-1.5027466,89
1557,-2.090612,-2.588667,0.098983765,-2.1834962,-0.60216063,-1.5027466,89
1558,-2.090612,-2.588667,0.098983765,-2.5477662,-0.5331299,-1.3052124,89
1559,-0.8897748,-3.1992416,0.41023254,-2.5477662,-0.5331299,-1.3052124,89
1560,-0.8897748,-3.1992416,0.41023254,-2.7357423,-0.5331299,-1.26698,89
1561,0.5027431,-3.8642387,0.58309937,-2.7357423,-0.5331299,-1.26698,89
1562,0.5027431,-3.8642387,0.58309937,-2.6709595,-0.48640138,-1.4390259,89
1563,2.0758274,-4.794504,0.83981323,-2.6709595,-0.48640138,-1.4390259,89
1564,2.0758274,-4.794504,0.83981323,-2.262085,-0.3345337,-1.7884277,89
1565,4.030901,-6.3682213,1.3261414,-2.262085,-0.3345337,-1.7884277,89
1566,4.030901,-6.3682213,1.3261414,-1.3859253,0.026550293,-2.165442,89
1567,4.030901,-6.3682213,1.3261414,-1.1660889,0.14230958,-2.177124,89
1568,3.7200944,-5.9831514,1.1629181,-1.1660889,0.14230958,-2.177124,89
1569,3.144618,-4.986253,1.2151642,-1.1660889,0.14230958,-2.177124,89
1570,3.144618,-4.986253,1.2151642,-0.56180423,0.32816163,-1.9041871,89
1571,3.144618,-4.986253,1.2151642,0.4800293,0.30161133,-1.3848633,89
1572,3.144618,-4.986253,1.2151642,1.4645141,0.15505372,-0.86766356,89
1573,2.5221887,-2.3875008,0.9733429,1.4645141,0.15505372,-0.86766356,89
1574,2.5221887,-2.3875008,0.9733429,1.6864747,0.04885254,-0.36851808,89
1575,3.0886984,-0.48165607,0.8654785,1.6864747,0.04885254,-0.36851808,89
1576,3.0886984,-0.48165607,0.8654785,1.7799317,-0.016992187,-0.015930176,89
1577,4.422204,0.2154808,1.1372833,1.7799317,-0.016992187,-0.015930176,89
1578,4.422204,0.2154808,1.1372833,1.8319702,-0.027612304,0.4885254,89
1579,3.98979,0.5471897,1.280838,1.8319702,-0.027612304,0.4885254,89
1580,3.98979,0.5471897,1.280838,1.270166,0.0541626,1.0715698,89
1581,1.4819441,1.0365067,0.6296997,1.270166,0.0541626,1.0715698,89
1582,1.4819441,1.0365067,0.6296997,0.51082766,0.24638672,1.5133667,89
1583,-0.6670084,1.3848934,-0.9494324,0.51082766,0.24638672,1.5133667,89
1584,-0.6670084,1.3848934,-0.9494324,0.90802,0.21877442,2.1165893,89
1585,-0.34581375,1.4211102,-1.1244049,0.90802,0.21877442,2.1165893,89
1586,-0.34581375,1.4211102,-1.1244049,1.2967163,0.17735596,2.272705,89
1587,0.6523895,1.5011339,-1.2275696,1.2967163,0.17735596,2.272705,89
1588,0.6523895,1.5011339,-1.2275696,1.991272,0.078588866,2.2907593,89
1589,0.9861326,1.8593426,-0.9651489,1.991272,0.078588866,2.2907593,89
1590,0.9861326,1.8593426,-0.9651489,2.2748291,0.14761963,2.3364258,89
1591,0.23076391,2.353733,-0.6179657,2.2748291,0.14761963,2.3364258,89
1592,0.23076391,2.353733,-0.6179657,2.0518067,0.32816163,2.163318,89
1593,-1.0971642,2.8563023,-0.3914032,2.0518067,0.32816163,2.163318,89
1594,-1.0971642,2.8563023,-0.3914032,0.8262451,0.77314454,2.1070313,89
1595,-2.4982634,3.0525103,-0.36637878,0.8262451,0.77314454,2.1070313,89
1596,-2.4982634,3.0525103,-0.36637878,0.11682129,1.1055542,2.3162477,89
1597,-3.6834617,2.933611,-0.54714966,0.11682129,1.1055542,2.3162477,89
1598,-3.6834617,2.933611,-0.54714966,0.20072022,0.8071289,2.7028198,89
1599,-4.112748,2.926466,-0.90960693,0.20072022,0.8071289,2.7028198,89
1600,-4.112748,2.926466,-0.90960693,0.2081543,0.8973999,2.7686646,89
1601,-3.6673105,2.8132439,-1.2874451,0.2081543,0.8973999,2.7686646,89
1602,-3.6673105,2.8132439,-1.2874451,0.40993652,0.85491943,2.901416,89
1603,-2.8631086,2.440256,-1.5662537,0.40993652,0.85491943,2.901416,89
1604,-2.8631086,2.440256,-1.5662537,0.8814697,0.7338501,3.071338,89
1605,-1.948397,2.189865,-1.7709503,0.8814697,0.7338501,3.071338,89
1606,-1.948397,2.189865,-1.7709503,1.26698,0.6966797,3.1318727,89
1607,-0.96909356,2.2092285,-1.8626251,1.26698,0.6966797,3.1318727,89
1608,-0.96909356,2.2092285,-1.8626251,1.4528321,0.67437744,3.0862062,89
1609,-0.96909356,2.2092285,-1.8626251,1.4528321,0.67437744,3.0862062,89
1610,-0.041119576,2.3499641,-1.7678833,1.4528321,0.67437744,3.0862062,89
1611,-0.041119576,2.3499641,-1.7678833,1.4815063,0.63826907,2.896106,89
1612,0.77208483,2.4161282,-1.4934692,1.4815063,0.63826907,2.896106,89
1613,0.77208483,2.4161282,-1.4934692,1.4145997,0.5384399,2.5658205,89
1614,0.77208483,2.4161282,-1.4934692,1.3073364,0.40250245,2.0220704,89
1615,1.5998945,2.2758713,-1.1092529,1.3073364,0.40250245,2.0220704,89
1616,4.7170496,1.3070126,-0.022064209,1.3073364,0.40250245,2.0220704,89
1617,4.7170496,1.3070126,-0.022064209,1.0609497,0.26656494,1.2829102,89
1618,4.7170496,1.3070126,-0.022064209,0.6637573,0.17735596,0.4694092,89
1619,4.7170496,1.3070126,-0.022064209,0.14337158,0.09133301,-0.21027832,89
1620,3.5560741,0.7726364,0.22885132,0.14337158,0.09133301,-0.21027832,89
1621,3.5560741,0.7726364,0.22885132,-0.44498292,0.059472658,-0.6117188,89
1622,1.7911973,0.65675545,0.15310669,-0.44498292,0.059472658,-0.6117188,89
1623,1.7911973,0.65675545,0.15310669,-0.74022216,-0.2166504,-0.9568726,89
1624,0.8589101,0.67622185,-0.15254211,-0.74022216,-0.2166504,-0.9568726,89
1625,0.8589101,0.67622185,-0.15254211,-0.6924316,-0.5957886,-1.5197388,89
1626,1.0328679,0.36356163,-0.27897644,-0.6924316,-0.5957886,-1.5197388,89
1627,1.0328679,0.36356163,-0.27897644,-0.45029297,-0.93775636,-2.176062,89
1628,1.1336551,-0.27009964,0.14775085,-0.45029297,-0.93775636,-2.176062,89
1629,1.1336551,-0.27009964,0.14775085,-0.41737062,-1.1862671,-2.6635253,89
1630,0.8455105,-0.897171,0.96868896,-0.41737062,-1.1862671,-2.6635253,89
1631,0.8455105,-0.897171,0.96868896,-0.48746338,-1.3052124,-2.890796,89
1632,0.83363485,-1.3030262,1.6928711,-0.48746338,-1.3052124,-2.890796,89
1633,0.83363485,-1.3030262,1.6928711,-0.29948732,-1.3816773,-2.9502685,89
1634,1.2535172,-1.3003559,1.9780884,-0.29948732,-1.3816773,-2.9502685,89
1635,1.2535172,-1.3003559,1.9780884,-0.05628662,-1.4082276,-2.8823,89
1636,1.5377865,-1.0442657,1.8785553,-0.05628662,-1.4082276,-2.8823,89
1637,1.5377865,-1.0442657,1.8785553,0.09133301,-1.2776002,-2.7453003,89
1638,1.0961962,-0.95952225,1.6367645,0.09133301,-1.2776002,-2.7453003,89
1639,1.0961962,-0.95952225,1.6367645,0.06478272,-1.0407715,-2.4882934,89
1640,-0.3359089,-0.99420357,1.2372437,0.06478272,-1.0407715,-2.4882934,89
1641,-0.3359089,-0.99420357,1.2372437,-0.050976563,-0.7497803,-2.156946,89
1642,-2.353078,-0.5485363,0.59532166,-0.050976563,-0.7497803,-2.156946,89
1643,-2.353078,-0.5485363,0.59532166,-0.4354248,-0.6839356,-1.899939,89
1644,-4.08527,0.12166786,0.028717041,-0.4354248,-0.6839356,-1.899939,89
1645,-4.08527,0.12166786,0.028717041,-1.2234375,-0.45454103,-1.6461182,89
1646,-4.792166,-0.19851494,-0.02355957,-1.2234375,-0.45454103,-1.6461182,89
1647,-4.792166,-0.19851494,-0.02355957,-1.8298463,-0.3525879,-1.3381348,89
1648,-4.3929005,-1.4723854,0.34909058,-1.8298463,-0.3525879,-1.3381348,89
1649,-4.3929005,-1.4723854,0.34909058,-2.1558838,-0.4322388,-0.9866089,89
1650,-3.3355973,-2.4380894,0.66600037,-2.1558838,-0.4322388,-0.9866089,89
1651,-3.3355973,-2.4380894,0.66600037,-2.8568115,-0.13168946,-0.8326172,89
