,accx,accy,accz,gyrox,gyroy,gyroz,heart rate
0,walk,walk,walk,walk,walk,walk,walk
1,-0.05679932,0.43865967,0.5242065,0.0,0.0,0.0,0.0
2,-0.05679932,0.43865967,0.5242065,-0.3419678,0.15823975,-0.48533937,0.0
3,-0.012382815,0.022814944,-0.010725096,-0.3419678,0.15823975,-0.48533937,0.0
4,-0.012382815,0.022814944,-0.010725096,-0.23789063,0.10938721,-0.05628662,0.0
5,-0.015008792,-0.30572265,-0.31301123,-0.23789063,0.10938721,-0.05628662,0.0
6,-0.015008792,-0.30572265,-0.31301123,-0.046728518,0.08071289,-0.020178223,0.0
7,-0.06735371,-0.17078663,-0.32083136,-0.046728518,0.08071289,-0.020178223,0.0
8,-0.06735371,-0.17078663,-0.32083136,-0.0021240234,0.059472658,-0.0021240234,0.0
9,-0.12625846,0.028019134,-0.20075688,-0.0021240234,0.059472658,-0.0021240234,0.0
10,-0.12625846,0.028019134,-0.20075688,0.04885254,0.060534667,-0.012744141,0.0
11,-0.09458587,0.07665115,-0.10553959,0.04885254,0.060534667,-0.012744141,0.0
12,-0.09458587,0.07665115,-0.10553959,0.08283692,0.047790527,-0.0010620117,0.0
13,-0.018075928,0.035344355,-0.08576223,0.08283692,0.047790527,-0.0010620117,0.0
14,-0.018075928,0.035344355,-0.08576223,0.16885987,-0.013806152,-0.057348635,0.0
15,-0.018075928,0.035344355,-0.08576223,0.18797608,-0.0010620117,-0.028674318,0.0
16,0.011064157,0.05779209,-0.087799236,0.18797608,-0.0010620117,-0.028674318,0.0
17,0.0019055232,0.1846492,-0.052258432,0.18797608,-0.0010620117,-0.028674318,0.0
18,0.0019055232,0.1846492,-0.052258432,0.14018555,-0.0021240234,-0.046728518,0.0
19,0.00604102,0.26696986,0.009145409,0.14018555,-0.0021240234,-0.046728518,0.0
20,0.00604102,0.26696986,0.009145409,0.08602295,-0.0063720704,-0.06796875,0.0
21,0.012804009,0.18949142,0.045292407,0.08602295,-0.0063720704,-0.06796875,0.0
22,0.012804009,0.18949142,0.045292407,0.0541626,-0.027612304,-0.032922365,0.0
23,0.024720743,0.008880734,0.066385284,0.0541626,-0.027612304,-0.032922365,0.0
24,0.024720743,0.008880734,0.066385284,0.03186035,-0.043542482,-0.013806152,0.0
25,0.014674053,-0.09328604,0.11845247,0.03186035,-0.043542482,-0.013806152,0.0
26,0.014674053,-0.09328604,0.11845247,0.011682129,-0.0722168,-0.038232423,0.0
27,-0.060794942,-0.024128348,0.15877566,0.011682129,-0.0722168,-0.038232423,0.0
28,-0.060794942,-0.024128348,0.15877566,0.0637207,-0.06159668,-0.08283692,0.0
29,-0.10321359,0.04589507,0.1538882,0.0637207,-0.06159668,-0.08283692,0.0
30,-0.10321359,0.04589507,0.1538882,0.08496094,-0.04991455,-0.06159668,0.0
31,-0.04610847,0.002450928,0.11852072,0.08496094,-0.04991455,-0.06159668,0.0
32,-0.04610847,0.002450928,0.11852072,0.095581055,-0.038232423,-0.05522461,0.0
33,0.015676707,-0.10173799,0.065641776,0.095581055,-0.038232423,-0.05522461,0.0
34,0.015676707,-0.10173799,0.065641776,0.09133301,-0.025488282,-0.009558106,0.0
35,0.007206887,-0.20042115,0.06077758,0.09133301,-0.025488282,-0.009558106,0.0
36,0.007206887,-0.20042115,0.06077758,0.11151123,-0.070092775,-0.07434082,0.0
37,-0.078755975,-0.22944093,-0.029148933,0.11151123,-0.070092775,-0.07434082,0.0
38,-0.078755975,-0.22944093,-0.029148933,0.14018555,-0.15717773,0.021240234,0.0
39,-0.14191103,-0.2147173,-0.16684942,0.14018555,-0.15717773,0.021240234,0.0
40,-0.14191103,-0.2147173,-0.16684942,0.23258057,-0.14018555,0.045666505,0.0
41,-0.14191103,-0.2147173,-0.16684942,0.27506104,-0.13275146,0.0998291,0.0
42,-0.054727554,-0.1340419,-0.22033256,0.27506104,-0.13275146,0.0998291,0.0
43,0.01858367,0.037505243,-0.19098774,0.27506104,-0.13275146,0.0998291,0.0
44,0.01858367,0.037505243,-0.19098774,0.20921631,-0.12956543,0.057348635,0.0
45,0.04151489,0.1796624,-0.10040982,0.20921631,-0.12956543,0.057348635,0.0
46,0.04151489,0.1796624,-0.10040982,0.09770508,-0.09239502,0.025488282,0.0
47,0.08007471,-0.052437074,-0.032744855,0.09770508,-0.09239502,0.025488282,0.0
48,0.08007471,-0.052437074,-0.032744855,0.29417726,-0.05628662,0.04460449,0.0
49,0.08007471,-0.052437074,-0.032744855,0.8219971,-0.057348635,0.10301514,0.0
50,0.10075411,-0.6855166,-0.08111532,0.8219971,-0.057348635,0.10301514,0.0
51,0.06716335,-1.0343263,-0.1805905,0.8219971,-0.057348635,0.10301514,0.0
52,0.06716335,-1.0343263,-0.1805905,1.2032593,-0.14868164,0.2442627,0.0
53,0.023823455,-0.5444289,-0.19249487,1.2032593,-0.14868164,0.2442627,0.0
54,0.023823455,-0.5444289,-0.19249487,1.2563599,-0.14974366,0.23789063,0.0
55,0.01482293,0.13505018,-0.122697055,1.2563599,-0.14974366,0.23789063,0.0
56,0.01482293,0.13505018,-0.122697055,1.1331666,-0.07434082,0.31010744,0.0
57,-0.02968219,0.3405841,-0.07163176,1.1331666,-0.07434082,0.31010744,0.0
58,-0.02968219,0.3405841,-0.07163176,1.0535157,-0.1274414,0.3706421,0.0
59,-0.02968219,0.3405841,-0.07163176,0.8379273,-0.14974366,0.46728516,0.0
60,-0.1404938,0.26823145,-0.1331721,0.8379273,-0.14974366,0.46728516,0.0
61,-0.27386963,0.19927755,-0.3691231,0.8379273,-0.14974366,0.46728516,0.0
62,-0.27386963,0.19927755,-0.3691231,0.5957886,-0.20496826,0.5501221,0.0
63,-0.38308498,0.18052801,-0.70059633,0.5957886,-0.20496826,0.5501221,0.0
64,-0.38308498,0.18052801,-0.70059633,0.33240968,-0.29099122,0.62127686,0.0
65,-0.4699812,0.18298443,-0.9601841,0.33240968,-0.29099122,0.62127686,0.0
66,-0.4699812,0.18298443,-0.9601841,0.021240234,-0.42799073,0.69136965,0.0
67,-0.4699812,0.18298443,-0.9601841,-0.3430298,-0.5872925,0.74871826,0.0
68,-0.5537437,0.22230308,-1.1117386,-0.3430298,-0.5872925,0.74871826,0.0
69,-0.67511165,0.37972236,-1.1471546,-0.3430298,-0.5872925,0.74871826,0.0
70,-0.67511165,0.37972236,-1.1471546,-0.7848267,-0.75509036,0.7890747,0.0
71,-0.86355126,0.697772,-1.0227652,-0.7848267,-0.75509036,0.7890747,0.0
72,-0.86355126,0.697772,-1.0227652,-1.3317627,-0.9791748,0.74447024,0.0
73,-1.0898278,0.91153795,-0.80706716,-1.3317627,-0.9791748,0.74447024,0.0
74,-1.0898278,0.91153795,-0.80706716,-1.9148072,-1.1883911,0.6159668,0.0
75,-1.207995,0.6265326,-0.6275997,-1.9148072,-1.1883911,0.6159668,0.0
76,-1.207995,0.6265326,-0.6275997,-2.3396118,-1.4379638,0.4609131,0.0
77,-1.0553243,-0.044733405,-0.4652269,-2.3396118,-1.4379638,0.4609131,0.0
78,-1.0553243,-0.044733405,-0.4652269,-2.5010376,-1.6673584,0.3079834,0.0
79,-0.66896653,-0.54929996,-0.30554342,-2.5010376,-1.6673584,0.3079834,0.0
80,-0.66896653,-0.54929996,-0.30554342,-2.6072388,-1.897815,0.29523927,0.0
81,-0.66896653,-0.54929996,-0.30554342,-2.6072388,-1.897815,0.29523927,92.0
82,-0.3230517,-0.4907217,-0.27159548,-2.6072388,-1.897815,0.29523927,92.0
83,-0.3230517,-0.4907217,-0.27159548,-2.7707887,-2.1866822,0.18266602,92.0
84,-0.21862197,0.015088677,-0.3974278,-2.7707887,-2.1866822,0.18266602,92.0
85,-0.21862197,0.015088677,-0.3974278,-2.9109743,-2.5636964,-0.050976563,92.0
86,-0.16004157,0.68245673,-0.47381377,-2.9109743,-2.5636964,-0.050976563,92.0
87,-0.16004157,0.68245673,-0.47381377,-3.2529418,-2.8812377,-0.40462646,92.0
88,0.024872065,1.2519346,-0.38397026,-3.2529418,-2.8812377,-0.40462646,92.0
89,0.024872065,1.2519346,-0.38397026,-3.7850099,-3.1892211,-0.84536135,92.0
90,0.3703127,1.5458348,-0.1684432,-3.7850099,-3.1892211,-0.84536135,92.0
91,0.3703127,1.5458348,-0.1684432,-4.3861084,-3.353833,-1.3668091,92.0
92,0.8439064,1.3913798,0.06611228,-4.3861084,-3.353833,-1.3668091,92.0
93,0.8439064,1.3913798,0.06611228,-4.700464,-3.3602052,-1.9477295,92.0
94,1.3289094,0.7670468,0.36064124,-4.700464,-3.3602052,-1.9477295,92.0
95,1.3289094,0.7670468,0.36064124,-4.426465,-3.2667482,-2.4585571,92.0
96,1.6851124,-0.21802759,0.7962887,-4.426465,-3.2667482,-2.4585571,92.0
97,1.6851124,-0.21802759,0.7962887,-3.4929566,-3.0416017,-3.074524,92.0
98,1.9096377,-1.2715901,1.228303,-3.4929566,-3.0416017,-3.074524,92.0
99,1.9096377,-1.2715901,1.228303,-2.0826051,-2.788843,-3.5131347,92.0
100,2.149036,-2.1688223,1.3133309,-2.0826051,-2.788843,-3.5131347,92.0
101,2.149036,-2.1688223,1.3133309,-0.40993652,-2.5105958,-3.7860718,92.0
102,2.300198,-2.7189326,1.0124323,-0.40993652,-2.5105958,-3.7860718,92.0
103,2.300198,-2.7189326,1.0124323,1.0821899,-2.272705,-4.13866,92.0
104,2.2437596,-2.6477168,0.6749362,1.0821899,-2.272705,-4.13866,92.0
105,2.2437596,-2.6477168,0.6749362,2.4224489,-2.0581787,-4.1938844,92.0
106,1.9735599,-2.0403292,0.5408889,2.4224489,-2.0581787,-4.1938844,92.0
107,1.9735599,-2.0403292,0.5408889,3.3134766,-2.1643798,-3.9198854,92.0
108,1.660696,-1.1985232,0.6722741,3.3134766,-2.1643798,-3.9198854,92.0
109,1.660696,-1.1985232,0.6722741,3.522693,-2.1006591,-3.3262208,92.0
110,1.4031541,-0.43000996,1.0875019,3.522693,-2.1006591,-3.3262208,92.0
111,1.4031541,-0.43000996,1.0875019,3.2317016,-1.899939,-2.441565,92.0
112,0.9943619,0.33714437,1.5374453,3.2317016,-1.899939,-2.441565,92.0
113,0.9943619,0.33714437,1.5374453,2.5424562,-1.7332032,-1.7109009,92.0
114,0.5805845,1.3605725,1.543738,2.5424562,-1.7332032,-1.7109009,92.0
115,0.5805845,1.3605725,1.543738,1.4719483,-1.4772583,-1.2351197,92.0
116,0.45298076,2.2893615,1.0798635,1.4719483,-1.4772583,-1.2351197,92.0
117,0.45298076,2.2893615,1.0798635,0.05628662,-1.1937011,-0.8251831,92.0
118,0.39004564,2.25666,0.5907463,0.05628662,-1.1937011,-0.8251831,92.0
119,0.39004564,2.25666,0.5907463,-1.2882203,-1.1321045,-0.8527954,92.0
120,0.441602,1.3221493,0.23441344,-1.2882203,-1.1321045,-0.8527954,92.0
121,0.441602,1.3221493,0.23441344,-2.7707887,-1.1108643,-0.6616333,92.0
122,1.0664406,-0.22024682,-0.1252622,-2.7707887,-1.1108643,-0.6616333,92.0
123,1.0664406,-0.22024682,-0.1252622,-3.986792,-0.9239502,-0.8379273,92.0
124,1.39429,-1.166969,-0.13088602,-3.986792,-0.9239502,-0.8379273,92.0
125,1.39429,-1.166969,-0.13088602,-4.2820315,-0.85491943,-1.0120972,92.0
126,1.7473412,-3.9183164,-0.40859067,-4.2820315,-0.85491943,-1.0120972,92.0
127,1.7473412,-3.9183164,-0.40859067,-3.9581177,-0.21027832,-1.538855,92.0
128,0.7332125,-3.9164648,-0.11528808,-3.9581177,-0.21027832,-1.538855,92.0
129,0.7332125,-3.9164648,-0.11528808,-3.4504762,-0.17523193,-1.6705445,92.0
130,-2.8050437,-3.7592826,0.7807432,-3.4504762,-0.17523193,-1.6705445,92.0
131,-2.8050437,-3.7592826,0.7807432,-1.2244996,-0.42692873,-1.6365601,92.0
132,-3.2080488,-3.0041914,0.9824315,-1.2244996,-0.42692873,-1.6365601,92.0
133,-3.2080488,-3.0041914,0.9824315,-0.49383545,-0.44179687,-1.5144287,92.0
134,-3.5180383,-1.3208091,1.2788285,-0.49383545,-0.44179687,-1.5144287,92.0
135,-3.5180383,-1.3208091,1.2788285,0.8496094,-0.7051758,-1.1650269,92.0
136,-2.7192159,-0.66278744,1.0498573,0.8496094,-0.7051758,-1.1650269,92.0
137,-2.7192159,-0.66278744,1.0498573,1.0970582,-0.70198977,-0.99298096,92.0
138,-1.6276555,0.91409373,0.51934147,1.0970582,-0.70198977,-0.99298096,92.0
139,-1.6276555,0.91409373,0.51934147,1.4379638,-0.7869507,-0.4248047,92.0
140,-1.1064823,1.0531502,0.3957466,1.4379638,-0.7869507,-0.4248047,92.0
141,-1.1064823,1.0531502,0.3957466,1.4337158,-0.80819094,-0.26868898,92.0
142,-0.62285674,1.6290557,0.21902645,1.4337158,-0.80819094,-0.26868898,92.0
143,-0.62285674,1.6290557,0.21902645,1.0099732,-0.5564942,0.1359375,92.0
144,-0.72749686,1.4311988,0.28292382,1.0099732,-0.5564942,0.1359375,92.0
145,-0.72749686,1.4311988,0.28292382,0.994043,-0.52250975,0.2357666,92.0
146,-2.0920317,1.2830818,0.49008417,0.994043,-0.52250975,0.2357666,92.0
147,-2.0920317,1.2830818,0.49008417,0.9876709,-0.44710693,0.4163086,92.0
148,-2.2509446,1.1953008,0.48385203,0.9876709,-0.44710693,0.4163086,92.0
149,-2.2509446,1.1953008,0.48385203,0.9324463,-0.38338622,0.45560303,92.0
150,-3.1933339,1.4712919,0.41302156,0.9324463,-0.38338622,0.45560303,92.0
151,-3.1933339,1.4712919,0.41302156,0.8527954,-0.271875,0.42374268,92.0
152,-2.8247232,1.3598217,0.31376696,0.8527954,-0.271875,0.42374268,92.0
153,-2.8247232,1.3598217,0.31376696,0.8315552,-0.23789063,0.39082032,92.0
154,-2.248011,1.0272006,6.840229E-4,0.8315552,-0.23789063,0.39082032,92.0
155,-2.248011,1.0272006,6.840229E-4,0.77526855,-0.1274414,0.22302246,92.0
156,-1.519588,0.6643996,-0.12777305,0.77526855,-0.1274414,0.22302246,92.0
157,-1.519588,0.6643996,-0.12777305,0.7699585,-0.09133301,0.17416993,92.0
158,-0.41726947,0.12744248,-0.3823576,0.7699585,-0.09133301,0.17416993,92.0
159,-0.41726947,0.12744248,-0.3823576,0.80606693,0.015930176,0.09133301,92.0
160,0.5521586,-0.19252849,-0.5020287,0.80606693,0.015930176,0.09133301,92.0
161,0.5521586,-0.19252849,-0.5020287,0.9420044,0.050976563,0.058410645,92.0
162,1.3053622,-0.27473807,-0.43975782,0.9420044,0.050976563,0.058410645,92.0
163,1.3053622,-0.27473807,-0.43975782,1.0503296,0.05628662,0.09451904,92.0
164,1.7902126,-0.29022503,-0.2605343,1.0503296,0.05628662,0.09451904,92.0
165,1.7902126,-0.29022503,-0.2605343,1.1618408,0.095581055,0.15080567,92.0
166,1.9079025,-0.3516624,0.13609171,1.1618408,0.095581055,0.15080567,92.0
167,1.9079025,-0.3516624,0.13609171,1.3742431,0.21558838,0.25700685,92.0
168,1.4903723,-0.27915704,0.20793343,1.3742431,0.21558838,0.25700685,92.0
169,1.4903723,-0.27915704,0.20793343,1.4220337,0.27399904,0.29205322,92.0
170,0.97968805,-0.14986372,0.41233063,1.4220337,0.27399904,0.29205322,92.0
171,0.97968805,-0.14986372,0.41233063,1.2085694,0.47684327,0.41418457,92.0
172,0.8313823,0.0071110725,0.18331909,1.2085694,0.47684327,0.41418457,92.0
173,0.8313823,0.0071110725,0.18331909,0.9218262,0.54375,0.4694092,92.0
174,1.0320492,0.06420934,-0.36442876,0.9218262,0.54375,0.4694092,92.0
175,1.0320492,0.06420934,-0.36442876,0.17841797,0.67331547,0.6117188,92.0
176,1.644719,-0.41402555,-0.9386622,0.17841797,0.67331547,0.6117188,92.0
177,1.644719,-0.41402555,-0.9386622,-0.21027832,0.6690674,0.62977296,92.0
178,2.428031,-1.2072458,-1.1195455,-0.21027832,0.6690674,0.62977296,92.0
179,2.428031,-1.2072458,-1.1195455,-0.24851075,0.56392825,0.65419924,92.0
180,2.9177547,-1.6660042,-0.9520694,-0.24851075,0.56392825,0.65419924,92.0
181,2.9177547,-1.6660042,-0.9520694,-0.39400634,0.5341919,0.75509036,92.0
182,3.0310907,-1.7818024,-0.7084329,-0.39400634,0.5341919,0.75509036,92.0
183,3.0310907,-1.7818024,-0.7084329,-0.39613038,0.48533937,0.8687256,92.0
184,3.079914,-1.7536526,-0.49267405,-0.39613038,0.48533937,0.8687256,92.0
185,3.079914,-1.7536526,-0.49267405,-0.14655761,0.44604492,1.0099732,92.0
186,2.7776766,-1.4308763,-0.26590437,-0.14655761,0.44604492,1.0099732,92.0
187,2.7776766,-1.4308763,-0.26590437,0.32178956,0.544812,1.2213135,92.0
188,1.4819558,-0.596349,-0.09354627,0.32178956,0.544812,1.2213135,92.0
189,1.4819558,-0.596349,-0.09354627,0.8464233,0.5479981,1.5547851,92.0
190,1.4819558,-0.596349,-0.09354627,0.8464233,0.5479981,1.5547851,90.0
191,-0.42910814,0.8673301,-0.40349913,0.8464233,0.5479981,1.5547851,90.0
192,-0.42910814,0.8673301,-0.40349913,1.450708,0.4258667,2.1208375,90.0
193,-0.26483202,1.2291546,-0.70326805,1.450708,0.4258667,2.1208375,90.0
194,-0.26483202,1.2291546,-0.70326805,1.5877075,0.4322388,2.2429688,90.0
195,0.50844693,1.5227404,-1.2060226,1.5877075,0.4322388,2.2429688,90.0
196,0.50844693,1.5227404,-1.2060226,1.6503662,0.60322267,2.3948364,90.0
197,0.8939402,1.7549965,-1.4011585,1.6503662,0.60322267,2.3948364,90.0
198,0.8939402,1.7549965,-1.4011585,1.4995606,0.7720825,2.552014,90.0
199,0.24991798,2.1829157,-1.2929116,1.4995606,0.7720825,2.552014,90.0
200,0.24991798,2.1829157,-1.2929116,1.2266235,0.903772,2.720874,90.0
201,-0.80554676,2.6251779,-1.0467073,1.2266235,0.903772,2.720874,90.0
202,-0.80554676,2.6251779,-1.0467073,1.0365235,0.9483765,2.8376954,90.0
203,-1.5384927,2.880562,-0.82108164,1.0365235,0.9483765,2.8376954,90.0
204,-1.5384927,2.880562,-0.82108164,0.905896,0.9866089,2.9162843,90.0
205,-1.7835286,2.8813174,-0.6657765,0.905896,0.9866089,2.9162843,90.0
206,-1.7835286,2.8813174,-0.6657765,0.8251831,1.0089111,2.9385865,90.0
207,-1.7902262,2.6672244,-0.53935945,0.8251831,1.0089111,2.9385865,90.0
208,-1.7902262,2.6672244,-0.53935945,0.85598147,0.9866089,2.9332764,90.0
209,-1.7026155,2.3954494,-0.45088446,0.85598147,0.9866089,2.9332764,90.0
210,-1.7026155,2.3954494,-0.45088446,0.9717407,0.9515625,2.896106,90.0
211,-1.3863966,2.183608,-0.4982686,0.9717407,0.9515625,2.896106,90.0
212,-1.3863966,2.183608,-0.4982686,1.0492676,0.91864014,2.8345094,90.0
213,-0.8466784,2.0257072,-0.7255192,1.0492676,0.91864014,2.8345094,90.0
214,-0.8466784,2.0257072,-0.7255192,1.0163453,0.904834,2.6454713,90.0
215,-0.28090715,1.83497,-0.9818802,1.0163453,0.904834,2.6454713,90.0
216,-0.28090715,1.83497,-0.9818802,0.91120607,0.8644776,2.3778443,90.0
217,0.16813314,1.6072702,-1.1122253,0.91120607,0.8644776,2.3778443,90.0
218,0.16813314,1.6072702,-1.1122253,0.7540283,0.8007569,2.0677369,90.0
219,0.43522668,1.3989878,-1.0683692,0.7540283,0.8007569,2.0677369,90.0
220,0.43522668,1.3989878,-1.0683692,0.5097656,0.75721437,1.6620483,90.0
221,0.4688356,1.2398934,-0.85893106,0.5097656,0.75721437,1.6620483,90.0
222,0.4688356,1.2398934,-0.85893106,0.26019287,0.6988037,1.2308716,90.0
223,0.2521559,1.0822344,-0.58713245,0.26019287,0.6988037,1.2308716,90.0
224,0.2521559,1.0822344,-0.58713245,0.0053100586,0.5766724,0.7720825,90.0
225,-0.011483312,0.91971827,-0.4019935,0.0053100586,0.5766724,0.7720825,90.0
226,-0.011483312,0.91971827,-0.4019935,-0.31116945,0.49171144,0.270813,90.0
227,-0.09279263,0.67781544,-0.29932904,-0.31116945,0.49171144,0.270813,90.0
228,-0.09279263,0.67781544,-0.29932904,-0.5564942,0.31966552,-0.29205322,90.0
229,0.13627613,0.3119545,-0.17035913,-0.5564942,0.31966552,-0.29205322,90.0
230,0.13627613,0.3119545,-0.17035913,-0.74871826,0.13912354,-0.9133301,90.0
231,0.59224844,-0.07204294,0.04641533,-0.74871826,0.13912354,-0.9133301,90.0
232,0.59224844,-0.07204294,0.04641533,-0.92713624,-0.013806152,-1.5600952,90.0
233,0.9125073,-0.37687254,0.33116317,-0.92713624,-0.013806152,-1.5600952,90.0
234,0.9125073,-0.37687254,0.33116317,-1.0705079,-0.12213135,-2.162256,90.0
235,0.980726,-0.4943447,0.572804,-1.0705079,-0.12213135,-2.162256,90.0
236,0.980726,-0.4943447,0.572804,-1.3413209,-0.25063476,-2.7431762,90.0
237,1.1874127,-0.5830369,0.5973668,-1.3413209,-0.25063476,-2.7431762,90.0
238,1.1874127,-0.5830369,0.5973668,-1.6737305,-0.5012695,-3.3517091,90.0
239,1.9919958,-0.85242796,0.3108158,-1.6737305,-0.5012695,-3.3517091,90.0
240,1.9919958,-0.85242796,0.3108158,-2.2057984,-0.7688965,-3.9336915,90.0
241,3.0906549,-1.2957242,-0.050626993,-2.2057984,-0.7688965,-3.9336915,90.0
242,3.0906549,-1.2957242,-0.050626993,-3.0362916,-0.8421753,-4.4126587,90.0
243,3.7394671,-1.9941599,-0.058018684,-3.0362916,-0.8421753,-4.4126587,90.0
244,3.7394671,-1.9941599,-0.058018684,-3.7743897,-0.7890747,-4.597449,90.0
245,3.6092253,-3.0360508,0.55270624,-3.7743897,-0.7890747,-4.597449,90.0
246,3.6092253,-3.0360508,0.55270624,-3.7712038,-0.7104859,-4.5485964,90.0
247,2.790615,-4.1972976,1.5816793,-3.7712038,-0.7104859,-4.5485964,90.0
248,2.790615,-4.1972976,1.5816793,-2.616797,-0.635083,-4.2225585,90.0
249,1.042697,-4.848341,2.440258,-2.616797,-0.635083,-4.2225585,90.0
250,1.042697,-4.848341,2.440258,-0.9505005,-0.73703617,-3.6395142,90.0
251,-2.707529,-3.7005358,2.3264742,-0.9505005,-0.73703617,-3.6395142,90.0
252,-2.707529,-3.7005358,2.3264742,1.44115,-1.0057251,-2.52865,90.0
253,-3.4850664,-2.5922036,1.6060157,1.44115,-1.0057251,-2.52865,90.0
254,-3.4850664,-2.5922036,1.6060157,2.2344728,-1.0726318,-2.252527,90.0
255,-4.798124,-0.6243609,0.6264141,2.2344728,-1.0726318,-2.252527,90.0
256,-4.798124,-0.6243609,0.6264141,3.3219726,-1.2361816,-1.7565674,90.0
257,-5.205186,0.9585191,0.17107758,3.3219726,-1.2361816,-1.7565674,90.0
258,-5.205186,0.9585191,0.17107758,2.9460206,-1.351941,-1.1289185,90.0
259,-4.88816,1.535907,0.1771819,2.9460206,-1.351941,-1.1289185,90.0
260,-4.88816,1.535907,0.1771819,1.4761963,-1.2829102,-1.0004151,90.0
261,-4.071966,0.859817,0.26374257,1.4761963,-1.2829102,-1.0004151,90.0
262,-4.071966,0.859817,0.26374257,0.28780517,-1.2850342,-1.0620117,90.0
263,-3.1412277,-0.3340702,0.18601848,0.28780517,-1.2850342,-1.0620117,90.0
264,-3.1412277,-0.3340702,0.18601848,-0.7327881,-1.4570801,-1.2860962,90.0
265,-2.174811,-1.3201615,0.0781849,-0.7327881,-1.4570801,-1.2860962,90.0
266,-2.174811,-1.3201615,0.0781849,-1.6025757,-1.3997315,-1.8553345,90.0
267,-1.2153736,-2.3141859,0.37122712,-1.6025757,-1.3997315,-1.8553345,90.0
268,-1.2153736,-2.3141859,0.37122712,-1.6662964,-1.3402588,-2.5084717,90.0
269,-0.3015958,-3.5746884,1.2650847,-1.6662964,-1.3402588,-2.5084717,90.0
270,-0.3015958,-3.5746884,1.2650847,-0.7625244,-1.2829102,-2.9938111,90.0
271,0.6668899,-4.513474,2.3707592,-0.7625244,-1.2829102,-2.9938111,90.0
272,0.6668899,-4.513474,2.3707592,-0.06584473,-1.2351197,-3.1414306,90.0
273,1.6105748,-4.9240484,2.966688,-0.06584473,-1.2351197,-3.1414306,90.0
274,1.6105748,-4.9240484,2.966688,0.49489745,-1.075818,-2.535022,90.0
275,2.179854,-5.0202446,3.109593,0.49489745,-1.075818,-2.535022,90.0
276,2.179854,-5.0202446,3.109593,1.531421,-0.7890747,-1.5133667,90.0
277,2.0855458,-3.751792,3.2041416,1.531421,-0.7890747,-1.5133667,90.0
278,2.0855458,-3.751792,3.2041416,2.4967897,-0.61915284,-0.3419678,90.0
279,1.8325968,-0.3259821,2.9390702,2.4967897,-0.61915284,-0.3419678,90.0
280,1.8325968,-0.3259821,2.9390702,2.6847656,-0.2262085,0.5331299,90.0
281,1.8263192,3.5079522,2.1837392,2.6847656,-0.2262085,0.5331299,90.0
282,1.8263192,3.5079522,2.1837392,1.6046997,0.2623169,1.085376,90.0
283,1.5624471,5.20591,1.317316,1.6046997,0.2623169,1.085376,90.0
284,1.5624471,5.20591,1.317316,-0.18266602,0.6637573,1.3445069,90.0
285,0.92184484,4.168146,0.6303911,-0.18266602,0.6637573,1.3445069,90.0
286,0.92184484,4.168146,0.6303911,-1.2436157,0.7848267,1.6450561,90.0
287,0.48688984,1.9011796,0.12666416,-1.2436157,0.7848267,1.6450561,90.0
288,0.48688984,1.9011796,0.12666416,-2.1909301,1.0237793,1.8850708,90.0
289,0.7149391,-0.11727667,-0.3148675,-2.1909301,1.0237793,1.8850708,90.0
290,0.7149391,-0.11727667,-0.3148675,-2.709192,1.4570801,1.99552,90.0
291,1.2693756,-1.4487407,-0.597878,-2.709192,1.4570801,1.99552,90.0
292,1.2693756,-1.4487407,-0.597878,-2.0549927,1.6694825,2.1176515,90.0
293,1.3815894,-1.6586385,-0.77894926,-2.0549927,1.6694825,2.1176515,90.0
294,1.3815894,-1.6586385,-0.77894926,-0.7784546,1.8702027,2.2907593,90.0
295,0.6822002,-0.46365404,-1.1549344,-0.7784546,1.8702027,2.2907593,90.0
296,0.6822002,-0.46365404,-1.1549344,0.17841797,1.8298463,2.5870607,90.0
297,0.017244577,1.1876462,-1.786521,0.17841797,1.8298463,2.5870607,90.0
298,0.017244577,1.1876462,-1.786521,0.9653687,1.5983276,2.6868896,90.0
299,0.46312428,2.2348948,-2.403875,0.9653687,1.5983276,2.6868896,90.0
300,0.46312428,2.2348948,-2.403875,1.5760254,1.4114136,2.5626342,90.0
301,1.5777748,2.578907,-2.5870407,1.5760254,1.4114136,2.5626342,90.0
302,1.5777748,2.578907,-2.5870407,1.5760254,1.4114136,2.5626342,89.0
303,1.5777748,2.578907,-2.5870407,1.7013428,1.4092896,2.2450929,89.0
304,2.0292974,2.3275788,-2.2199256,1.7013428,1.4092896,2.2450929,89.0
305,2.0292974,2.3275788,-2.2199256,1.628064,1.5632813,1.9657837,89.0
306,1.2828007,1.7749293,-1.6326789,1.628064,1.5632813,1.9657837,89.0
307,1.2828007,1.7749293,-1.6326789,1.354065,1.5505371,1.8850708,89.0
308,0.02329874,1.3416109,-1.3970977,1.354065,1.5505371,1.8850708,89.0
309,0.02329874,1.3416109,-1.3970977,1.2531738,1.5962037,1.9625977,89.0
310,-0.9664929,1.3999856,-1.7879052,1.2531738,1.5962037,1.9625977,89.0
311,-0.9664929,1.3999856,-1.7879052,1.2850342,1.6248779,2.1537597,89.0
312,-1.4721811,1.8560724,-2.4876974,1.2850342,1.6248779,2.1537597,89.0
313,-1.4721811,1.8560724,-2.4876974,1.2234375,1.718335,2.342798,89.0
314,-1.6316879,2.1602242,-2.9872038,1.2234375,1.718335,2.342798,89.0
315,-1.6316879,2.1602242,-2.9872038,1.2361816,1.7480713,2.52334,89.0
316,-1.5111241,2.1947932,-3.1452563,1.2361816,1.7480713,2.52334,89.0
317,-1.5111241,2.1947932,-3.1452563,1.1947632,1.7363892,2.6911378,89.0
318,-1.1413944,2.1062617,-3.0848331,1.1947632,1.7363892,2.6911378,89.0
319,-1.1413944,2.1062617,-3.0848331,1.1108643,1.7289551,2.8302612,89.0
320,-0.5600271,1.9924679,-2.904146,1.1108643,1.7289551,2.8302612,89.0
321,-0.5600271,1.9924679,-2.904146,0.90270996,1.7353271,2.8185792,89.0
322,0.10019612,1.9017379,-2.591481,0.90270996,1.7353271,2.8185792,89.0
323,0.10019612,1.9017379,-2.591481,0.6074707,1.7151489,2.7633545,89.0
324,0.67667794,1.8172646,-2.1529822,0.6074707,1.7151489,2.7633545,89.0
325,0.67667794,1.8172646,-2.1529822,0.23682861,1.6885986,2.5955567,89.0
326,1.0233614,1.6791291,-1.7014995,0.23682861,1.6885986,2.5955567,89.0
327,1.0233614,1.6791291,-1.7014995,-0.2357666,1.6163819,2.34917,89.0
328,1.0710328,1.4353075,-1.2767148,-0.2357666,1.6163819,2.34917,89.0
329,1.0710328,1.4353075,-1.2767148,-0.6839356,1.4963745,2.0390625,89.0
330,0.86968017,1.0837562,-0.8487644,-0.6839356,1.4963745,2.0390625,89.0
331,0.86968017,1.0837562,-0.8487644,-1.0004151,1.2924683,1.627002,89.0
332,0.54872274,0.7868538,-0.45858908,-1.0004151,1.2924683,1.627002,89.0
333,0.54872274,0.7868538,-0.45858908,-1.1947632,1.0099732,1.2128174,89.0
334,0.17780876,0.60035706,-0.05745983,-1.1947632,1.0099732,1.2128174,89.0
335,0.17780876,0.60035706,-0.05745983,-1.2871583,0.727478,0.7827026,89.0
336,-0.1527605,0.43916035,0.42919064,-1.2871583,0.727478,0.7827026,89.0
337,-0.1527605,0.43916035,0.42919064,-0.9388184,0.40462646,0.30267334,89.0
338,-0.22866607,0.44004917,0.8952689,-0.9388184,0.40462646,0.30267334,89.0
339,-0.22866607,0.44004917,0.8952689,-0.70942384,0.038232423,-0.1985962,89.0
340,0.07986021,0.6357794,1.0785198,-0.70942384,0.038232423,-0.1985962,89.0
341,0.07986021,0.6357794,1.0785198,-0.7827026,-0.2262085,-0.811377,89.0
342,0.6712978,0.73316,0.9194808,-0.7827026,-0.2262085,-0.811377,89.0
343,0.6712978,0.73316,0.9194808,-1.0630738,-0.56817627,-1.5962037,89.0
344,1.1204491,0.4865036,0.6201186,-1.0630738,-0.56817627,-1.5962037,89.0
345,1.1204491,0.4865036,0.6201186,-1.4560181,-0.901648,-2.461743,89.0
346,0.8991914,-0.055511475,0.6254041,-1.4560181,-0.901648,-2.461743,89.0
347,0.8991914,-0.055511475,0.6254041,-1.8691406,-1.2457398,-3.3177247,89.0
348,0.217412,-0.70252657,1.176544,-1.8691406,-1.2457398,-3.3177247,89.0
349,0.217412,-0.70252657,1.176544,-2.0220704,-1.6843506,-4.0345826,89.0
350,0.026957035,-1.2851171,1.9376583,-2.0220704,-1.6843506,-4.0345826,89.0
351,0.026957035,-1.2851171,1.9376583,-1.7480713,-2.1548219,-4.636743,89.0
352,0.7480426,-1.8227959,2.5350876,-1.7480713,-2.1548219,-4.636743,89.0
353,0.7480426,-1.8227959,2.5350876,-1.0673218,-2.4245727,-5.1178346,89.0
354,1.6659145,-2.4169283,2.8761413,-1.0673218,-2.4245727,-5.1178346,89.0
355,1.6659145,-2.4169283,2.8761413,0.026550293,-2.5859985,-5.248462,89.0
356,1.5789719,-2.9115455,2.8807838,0.026550293,-2.5859985,-5.248462,89.0
357,1.5789719,-2.9115455,2.8807838,1.2043213,-2.4606812,-4.9436646,89.0
358,-0.049188137,-3.1260993,2.4159918,1.2043213,-2.4606812,-4.9436646,89.0
359,-0.049188137,-3.1260993,2.4159918,2.3820922,-2.3268678,-4.253357,89.0
360,-2.496028,-3.0164678,1.6510918,2.3820922,-2.3268678,-4.253357,89.0
361,-2.496028,-3.0164678,1.6510918,3.4780884,-2.2790773,-3.2210815,89.0
362,-4.3689537,-2.2958038,0.9977045,3.4780884,-2.2790773,-3.2210815,89.0
363,-4.3689537,-2.2958038,0.9977045,4.0388308,-2.4256349,-2.3279297,89.0
364,-4.72695,-0.8147924,0.6575142,4.0388308,-2.4256349,-2.3279297,89.0
365,-4.72695,-0.8147924,0.6575142,3.6395142,-2.4734254,-1.5802735,89.0
366,-3.6757617,0.8781465,0.6099591,3.6395142,-2.4734254,-1.5802735,89.0
367,-3.6757617,0.8781465,0.6099591,2.0188844,-2.264209,-1.1267945,89.0
368,-2.0994718,1.3926662,0.6963047,2.0188844,-2.264209,-1.1267945,89.0
369,-2.0994718,1.3926662,0.6963047,0.5256958,-1.905249,-1.0248413,89.0
370,-0.79528785,0.37117642,0.98990506,0.5256958,-1.905249,-1.0248413,89.0
371,-0.79528785,0.37117642,0.98990506,-0.26656494,-1.8415283,-1.1862671,89.0
372,0.073376656,-0.92002666,1.4240286,-0.26656494,-1.8415283,-1.1862671,89.0
373,0.073376656,-0.92002666,1.4240286,-1.26698,-1.8245362,-1.3869873,89.0
374,0.74313736,-2.0055404,1.7740862,-1.26698,-1.8245362,-1.3869873,89.0
375,0.74313736,-2.0055404,1.7740862,-2.350232,-1.6100098,-1.5282348,89.0
376,1.3840119,-3.3608778,2.1707094,-2.350232,-1.6100098,-1.5282348,89.0
377,1.3840119,-3.3608778,2.1707094,-2.6752076,-1.2627319,-1.7671875,89.0
378,1.5809033,-4.7097473,2.8655837,-2.6752076,-1.2627319,-1.7671875,89.0
379,1.5809033,-4.7097473,2.8655837,-2.168628,-1.0078491,-1.8351563,89.0
380,1.0778941,-5.1328,3.4828355,-2.168628,-1.0078491,-1.8351563,89.0
381,1.0778941,-5.1328,3.4828355,-1.5006226,-0.6839356,-1.4783204,89.0
382,0.31392658,-4.423049,3.544386,-1.5006226,-0.6839356,-1.4783204,89.0
383,0.31392658,-4.423049,3.544386,-0.542688,-0.4630371,-0.83049315,89.0
384,-0.14561176,-2.977282,3.0314808,-0.542688,-0.4630371,-0.83049315,89.0
385,-0.14561176,-2.977282,3.0314808,0.7104859,-0.3079834,-0.33665773,89.0
386,-0.120468855,-1.2174215,2.2663956,0.7104859,-0.3079834,-0.33665773,89.0
387,-0.120468855,-1.2174215,2.2663956,1.6917847,-0.26656494,0.11363526,89.0
388,0.15378356,0.15079403,1.4843936,1.6917847,-0.26656494,0.11363526,89.0
389,0.15378356,0.15079403,1.4843936,1.8648926,0.025488282,0.39188233,89.0
390,0.6804366,0.5946708,0.7524681,1.8648926,0.025488282,0.39188233,89.0
391,0.6804366,0.5946708,0.7524681,1.6163819,0.3334717,0.63826907,89.0
392,1.493629,0.29973555,0.05267048,1.6163819,0.3334717,0.63826907,89.0
393,1.493629,0.29973555,0.05267048,1.3147706,0.7975708,0.82836914,89.0
394,1.7129941,0.014581203,-0.59107924,1.3147706,0.7975708,0.82836914,89.0
395,1.7129941,0.014581203,-0.59107924,1.0981201,1.3753052,1.089624,89.0
396,0.72330046,0.3383007,-1.2120724,1.0981201,1.3753052,1.089624,89.0
397,0.72330046,0.3383007,-1.2120724,1.1310425,1.7990478,1.4326538,89.0
398,-0.36204576,1.1297107,-1.9264331,1.1310425,1.7990478,1.4326538,89.0
399,-0.36204576,1.1297107,-1.9264331,1.2988404,1.9679078,1.7501954,89.0
400,-0.10759306,1.7197232,-2.613669,1.2988404,1.9679078,1.7501954,89.0
401,-0.10759306,1.7197232,-2.613669,1.6907227,2.0358765,1.8871949,89.0
402,-0.10759306,1.7197232,-2.613669,1.6907227,2.0358765,1.8871949,89.0
403,1.3245823,1.8647556,-2.9965625,1.6907227,2.0358765,1.8871949,89.0
404,1.3245823,1.8647556,-2.9965625,2.0634887,2.1006591,1.8574585,89.0
405,2.7508402,1.5835648,-2.9919155,2.0634887,2.1006591,1.8574585,89.0
406,2.7508402,1.5835648,-2.9919155,2.451123,2.270581,1.6673584,89.0
407,2.9919076,0.8971498,-3.073342,2.451123,2.270581,1.6673584,89.0
408,2.9919076,0.8971498,-3.073342,3.5067627,2.6656494,1.3933594,89.0
409,1.809505,0.75213146,-3.416181,3.5067627,2.6656494,1.3933594,89.0
410,1.809505,0.75213146,-3.416181,5.169873,2.701758,0.9143921,89.0
411,-0.07117033,2.387008,-3.2269268,5.169873,2.701758,0.9143921,89.0
412,-0.07117033,2.387008,-3.2269268,1.8723267,3.260376,1.3997315,89.0
413,-1.5643826,4.330517,-2.5146835,1.8723267,3.260376,1.3997315,89.0
414,-1.5643826,4.330517,-2.5146835,-1.1979493,3.4228637,1.8022339,89.0
415,-1.9451585,5.068088,-2.2636757,-1.1979493,3.4228637,1.8022339,89.0
416,-1.9451585,5.068088,-2.2636757,-3.7287233,3.700049,2.3247437,89.0
417,-1.6857042,4.511709,-2.734671,-3.7287233,3.700049,2.3247437,89.0
418,-1.6857042,4.511709,-2.734671,-4.5581546,3.805188,2.8238893,89.0
419,-1.4319861,2.929033,-3.233269,-4.5581546,3.805188,2.8238893,89.0
420,-1.4319861,2.929033,-3.233269,-4.4965577,3.341089,3.4069335,89.0
421,-1.0352619,1.4701431,-3.2193666,-4.4965577,3.341089,3.4069335,89.0
422,-1.0352619,1.4701431,-3.2193666,-4.34469,3.0267334,3.7839477,89.0
423,-0.25742102,0.5964637,-2.7972705,-4.34469,3.0267334,3.7839477,89.0
424,-0.25742102,0.5964637,-2.7972705,-3.3771973,2.5817506,3.9432495,89.0
425,0.6150713,0.27763486,-2.1648307,-3.3771973,2.5817506,3.9432495,89.0
426,0.6150713,0.27763486,-2.1648307,-2.069861,2.162256,3.8646607,89.0
427,1.2495887,0.51069427,-1.4797897,-2.069861,2.162256,3.8646607,89.0
428,1.2495887,0.51069427,-1.4797897,-0.78164065,1.8946289,3.6798706,89.0
429,1.3968756,1.0100813,-0.87230873,-0.78164065,1.8946289,3.6798706,89.0
430,1.3968756,1.0100813,-0.87230873,0.028674318,1.7151489,3.1945312,89.0
431,1.1908283,1.6029015,-0.43029356,0.028674318,1.7151489,3.1945312,89.0
432,1.1908283,1.6029015,-0.43029356,0.26444092,1.6110718,2.7686646,89.0
433,0.9695697,1.9369721,-0.16614628,0.26444092,1.6110718,2.7686646,89.0
434,0.9695697,1.9369721,-0.16614628,0.20921631,1.4528321,2.1983643,89.0
435,0.88973045,1.8569386,-0.064032555,0.20921631,1.4528321,2.1983643,89.0
436,0.88973045,1.8569386,-0.064032555,0.058410645,1.1958252,1.5781494,89.0
437,0.75082254,1.5843911,0.006196022,0.058410645,1.1958252,1.5781494,89.0
438,0.75082254,1.5843911,0.006196022,-0.14868164,0.88359374,0.9451904,89.0
439,0.32377815,1.2855916,0.24819422,-0.14868164,0.88359374,0.9451904,89.0
440,0.32377815,1.2855916,0.24819422,-0.2803711,0.56180423,0.32285157,89.0
441,-0.18344593,1.0354314,0.6465535,-0.2803711,0.56180423,0.32285157,89.0
442,-0.18344593,1.0354314,0.6465535,-0.3802002,0.17523193,-0.29948732,89.0
443,-0.31322384,0.8047366,0.94808984,-0.3802002,0.17523193,-0.29948732,89.0
444,-0.31322384,0.8047366,0.94808984,-0.40356445,-0.15717773,-1.0418335,89.0
445,-0.16445827,0.59300804,0.9793701,-0.40356445,-0.15717773,-1.0418335,89.0
446,-0.16445827,0.59300804,0.9793701,-0.47471926,-0.44923097,-1.8733886,89.0
447,-0.34478664,0.3936205,0.84909654,-0.47471926,-0.44923097,-1.8733886,89.0
448,-0.34478664,0.3936205,0.84909654,-0.6510132,-0.73809814,-2.6858277,89.0
449,-0.9629631,0.07582188,0.7554612,-0.6510132,-0.73809814,-2.6858277,89.0
450,-0.9629631,0.07582188,0.7554612,-0.84748536,-1.1257324,-3.4334838,89.0
451,-1.2579436,-0.3478999,0.7713978,-0.84748536,-1.1257324,-3.4334838,89.0
452,-1.2579436,-0.3478999,0.7713978,-0.9515625,-1.5069946,-4.1184816,89.0
453,-0.7649243,-0.8318596,0.90481377,-0.9515625,-1.5069946,-4.1184816,89.0
454,-0.7649243,-0.8318596,0.90481377,-0.8782837,-1.8744507,-4.8470216,89.0
455,0.20848298,-1.3238125,1.1216784,-0.8782837,-1.8744507,-4.8470216,89.0
456,0.20848298,-1.3238125,1.1216784,-0.6711914,-2.1909301,-5.4959106,89.0
457,1.0893941,-1.8632126,1.3606849,-0.6711914,-2.1909301,-5.4959106,89.0
458,1.0893941,-1.8632126,1.3606849,-0.40356445,-2.3119996,-5.9292116,89.0
459,1.245441,-2.5318422,1.5543438,-0.40356445,-2.3119996,-5.9292116,89.0
460,1.245441,-2.5318422,1.5543438,0.058410645,-2.257837,-6.056653,89.0
461,0.44355726,-3.1961892,1.6013974,0.058410645,-2.257837,-6.056653,89.0
462,0.44355726,-3.1961892,1.6013974,0.68499756,-2.1558838,-5.795398,89.0
463,-0.90689707,-3.8778987,1.5017844,0.68499756,-2.1558838,-5.795398,89.0
464,-0.90689707,-3.8778987,1.5017844,1.7055908,-2.0167603,-5.1188965,89.0
465,-2.2274709,-4.429321,1.4150872,1.7055908,-2.0167603,-5.1188965,89.0
466,-2.2274709,-4.429321,1.4150872,2.5785644,-2.088977,-4.1206055,89.0
467,-3.0131536,-4.1918087,1.3512226,2.5785644,-2.088977,-4.1206055,89.0
468,-3.0131536,-4.1918087,1.3512226,3.153113,-2.1325195,-3.0373535,89.0
469,-2.8008428,-2.6866014,1.1169156,3.153113,-2.1325195,-3.0373535,89.0
470,-2.8008428,-2.6866014,1.1169156,3.0915163,-2.3119996,-2.1548219,89.0
471,-1.4080449,-0.54856086,0.7021751,3.0915163,-2.3119996,-2.1548219,89.0
472,-1.4080449,-0.54856086,0.7021751,2.1346436,-2.2780151,-1.6811646,89.0
473,0.38291454,0.5290346,0.5470916,2.1346436,-2.2780151,-1.6811646,89.0
474,0.38291454,0.5290346,0.5470916,0.59897465,-2.1261475,-1.5728394,89.0
475,1.355233,-0.29728007,1.0782006,0.59897465,-2.1261475,-1.5728394,89.0
476,1.355233,-0.29728007,1.0782006,-0.26337892,-2.1877441,-1.5218629,89.0
477,1.3421454,-2.0880315,2.2915888,-0.26337892,-2.1877441,-1.5218629,89.0
478,1.3421454,-2.0880315,2.2915888,-1.0290893,-1.8595825,-1.5728394,89.0
479,0.699461,-3.5089872,3.6584787,-1.0290893,-1.8595825,-1.5728394,89.0
480,0.699461,-3.5089872,3.6584787,-1.8871949,-1.4326538,-1.5431031,89.0
481,-0.30443287,-4.058093,4.3061166,-1.8871949,-1.4326538,-1.5431031,89.0
482,-0.30443287,-4.058093,4.3061166,-2.0305665,-0.9483765,-1.2414917,89.0
483,-1.4527383,-3.861196,3.935872,-2.0305665,-0.9483765,-1.2414917,89.0
484,-1.4527383,-3.861196,3.935872,-1.1108643,-0.79969484,-0.93138427,89.0
485,-2.3142538,-2.906425,3.0715618,-1.1108643,-0.79969484,-0.93138427,89.0
486,-2.3142538,-2.906425,3.0715618,0.026550293,-0.63933104,-0.55755615,89.0
487,-2.448754,-1.5603209,2.3140488,0.026550293,-0.63933104,-0.55755615,89.0
488,-2.448754,-1.5603209,2.3140488,0.8782837,-0.40356445,-0.24320069,89.0
489,-1.9459052,-0.43253422,1.7246766,0.8782837,-0.40356445,-0.24320069,89.0
490,-1.9459052,-0.43253422,1.7246766,1.2021973,-0.2166504,0.09133301,89.0
491,-1.11367,0.3002615,0.97537136,1.2021973,-0.2166504,0.09133301,89.0
492,-1.11367,0.3002615,0.97537136,0.97492677,0.04885254,0.36745605,89.0
493,-0.15978366,0.6355953,0.09814358,0.97492677,0.04885254,0.36745605,89.0
494,-0.15978366,0.6355953,0.09814358,0.58198243,0.50233155,0.64995116,89.0
495,0.92229515,0.5018482,-0.54517937,0.58198243,0.50233155,0.64995116,89.0
496,0.92229515,0.5018482,-0.54517937,0.53950197,0.6977417,0.79119873,89.0
497,1.9163395,-0.0606308,-0.9140854,0.53950197,0.6977417,0.79119873,89.0
498,1.9163395,-0.0606308,-0.9140854,0.72641605,1.0620117,0.9366943,89.0
499,2.1902738,-0.5418277,-1.1202941,0.72641605,1.0620117,0.9366943,89.0
500,2.1902738,-0.5418277,-1.1202941,1.1958252,1.3126465,1.1947632,89.0
501,1.9110327,-0.28126478,-1.4615798,1.1958252,1.3126465,1.1947632,89.0
502,1.9110327,-0.28126478,-1.4615798,1.265918,1.5781494,1.5632813,89.0
503,1.9110327,-0.28126478,-1.4615798,1.265918,1.5781494,1.5632813,89.0
504,1.9754081,0.5580449,-2.0004768,1.265918,1.5781494,1.5632813,89.0
505,1.9754081,0.5580449,-2.0004768,1.270166,1.7629395,1.8691406,89.0
506,2.6195111,1.2790651,-2.401309,1.270166,1.7629395,1.8691406,89.0
507,2.6195111,1.2790651,-2.401309,1.3168945,1.9094971,2.0295045,89.0
508,3.0467443,1.6117163,-2.4174707,1.3168945,1.9094971,2.0295045,89.0
509,3.0467443,1.6117163,-2.4174707,1.2234375,2.2376587,2.1388917,89.0
510,2.4622612,1.7037039,-2.1476364,1.2234375,2.2376587,2.1388917,89.0
511,2.4622612,1.7037039,-2.1476364,0.93138427,2.4829834,2.2716432,89.0
512,1.1685882,1.7763786,-1.9298768,0.93138427,2.4829834,2.2716432,89.0
513,1.1685882,1.7763786,-1.9298768,0.6403931,2.6040528,2.5148437,89.0
514,-0.07219744,2.0680025,-2.0971851,0.6403931,2.6040528,2.5148437,89.0
515,-0.07219744,2.0680025,-2.0971851,0.39188233,2.7782228,2.795215,89.0
516,-1.0013127,2.6828809,-2.5272965,0.39188233,2.7782228,2.795215,89.0
517,-1.0013127,2.6828809,-2.5272965,-0.18054199,2.8610597,3.1435547,89.0
518,-1.6011109,3.2787387,-2.9391835,-0.18054199,2.8610597,3.1435547,89.0
519,-1.6011109,3.2787387,-2.9391835,-0.75615233,2.9120362,3.4568481,89.0
520,-1.7920337,3.433489,-3.208659,-0.75615233,2.9120362,3.4568481,89.0
521,-1.7920337,3.433489,-3.208659,-0.9345703,2.7633545,3.705359,89.0
522,-1.5120695,3.157961,-3.2697225,-0.9345703,2.7633545,3.705359,89.0
523,-1.5120695,3.157961,-3.2697225,-0.9388184,2.5785644,3.8646607,89.0
524,-0.8126707,2.7843885,-3.094489,-0.9388184,2.5785644,3.8646607,89.0
525,-0.8126707,2.7843885,-3.094489,-0.83049315,2.4033325,3.889087,89.0
526,-0.029140472,2.4945765,-2.7625666,-0.83049315,2.4033325,3.889087,89.0
527,-0.029140472,2.4945765,-2.7625666,-0.8421753,2.2440307,3.7404053,89.0
528,0.5436187,2.2270088,-2.3793283,-0.8421753,2.2440307,3.7404053,89.0
529,0.5436187,2.2270088,-2.3793283,-1.0471436,2.0507448,3.5184448,89.0
530,0.9789257,1.9724884,-1.9957843,-1.0471436,2.0507448,3.5184448,89.0
531,0.9789257,1.9724884,-1.9957843,-1.6004517,1.8818848,3.2964845,89.0
532,1.1833973,1.7686036,-1.5748258,-1.6004517,1.8818848,3.2964845,89.0
533,1.1833973,1.7686036,-1.5748258,-1.8946289,1.7045288,3.0214233,89.0
534,0.9268937,1.6628566,-1.0718727,-1.8946289,1.7045288,3.0214233,89.0
535,0.9268937,1.6628566,-1.0718727,-1.8011719,1.4220337,2.811145,89.0
536,0.41180325,1.6187129,-0.5392976,-1.8011719,1.4220337,2.811145,89.0
537,0.41180325,1.6187129,-0.5392976,-1.630188,1.1384766,2.4861696,89.0
538,0.1240716,1.3582883,-0.14725828,-1.630188,1.1384766,2.4861696,89.0
539,0.1240716,1.3582883,-0.14725828,-1.4284058,0.8729736,2.1611938,89.0
540,0.21078062,0.9381685,-0.011751652,-1.4284058,0.8729736,2.1611938,89.0
541,0.21078062,0.9381685,-0.011751652,-1.0195312,0.6085327,1.7066529,89.0
542,0.34070683,0.6503763,-0.029896736,-1.0195312,0.6085327,1.7066529,89.0
543,0.34070683,0.6503763,-0.029896736,-0.6085327,0.3440918,1.1852051,89.0
544,0.25956488,0.5218878,0.06498623,-0.6085327,0.3440918,1.1852051,89.0
545,0.25956488,0.5218878,0.06498623,-0.31116945,-0.013806152,0.6202149,89.0
546,0.36451244,0.42417526,0.42325354,-0.31116945,-0.013806152,0.6202149,89.0
547,0.36451244,0.42417526,0.42325354,-0.10620117,-0.3536499,-0.035046387,89.0
548,0.9404993,0.30971384,0.8950114,-0.10620117,-0.3536499,-0.035046387,89.0
549,0.9404993,0.30971384,0.8950114,-0.06478272,-0.5809204,-0.8379273,89.0
550,1.3556952,0.13711452,1.2225642,-0.06478272,-0.5809204,-0.8379273,89.0
551,1.3556952,0.13711452,1.2225642,-0.04141846,-0.76464844,-1.7905518,89.0
552,0.776402,-0.13029861,1.5179682,-0.04141846,-0.76464844,-1.7905518,89.0
553,0.776402,-0.13029861,1.5179682,0.035046387,-0.9218262,-2.616797,89.0
554,-0.5566497,-0.57269573,2.0271065,0.035046387,-0.9218262,-2.616797,89.0
555,-0.5566497,-0.57269573,2.0271065,0.721106,-0.994043,-3.255066,89.0
556,-1.8055611,-0.87512445,2.578216,0.721106,-0.994043,-3.255066,89.0
557,-1.8055611,-0.87512445,2.578216,1.3243287,-1.3020264,-3.7404053,89.0
558,-2.2957673,-0.5317769,2.6003413,1.3243287,-1.3020264,-3.7404053,89.0
559,-2.2957673,-0.5317769,2.6003413,1.3827393,-1.8319702,-4.0335207,89.0
560,-1.6047049,-0.105658054,1.962988,1.3827393,-1.8319702,-4.0335207,89.0
561,-1.6047049,-0.105658054,1.962988,1.2213135,-2.2142944,-4.533728,89.0
562,-0.31578302,0.027607441,1.167058,1.2213135,-2.2142944,-4.533728,89.0
563,-0.31578302,0.027607441,1.167058,0.8358032,-2.4235108,-4.601697,89.0
564,0.4085307,0.058987617,0.8255775,0.8358032,-2.4235108,-4.601697,89.0
565,0.4085307,0.058987617,0.8255775,0.1720459,-2.4606812,-4.6526732,89.0
566,0.15035963,-0.27142572,1.0093145,0.1720459,-2.4606812,-4.6526732,89.0
567,0.15035963,-0.27142572,1.0093145,-0.53950197,-2.34386,-4.6558595,89.0
568,-0.5603397,-1.0556414,1.2661552,-0.53950197,-2.34386,-4.6558595,89.0
569,-0.5603397,-1.0556414,1.2661552,-1.0981201,-2.0475585,-4.3850465,89.0
570,-1.2313406,-2.2851384,1.3905365,-1.0981201,-2.0475585,-4.3850465,89.0
571,-1.2313406,-2.2851384,1.3905365,-1.178833,-1.7544434,-4.1322875,89.0
572,-1.6652973,-3.7734723,1.4540796,-1.178833,-1.7544434,-4.1322875,89.0
573,-1.6652973,-3.7734723,1.4540796,-0.7688965,-1.3891114,-3.5152588,89.0
574,-1.9286125,-4.749015,1.4368355,-0.7688965,-1.3891114,-3.5152588,89.0
575,-1.9286125,-4.749015,1.4368355,-0.16992188,-1.0991821,-2.8674316,89.0
576,-1.8933907,-4.65595,1.2370417,-0.16992188,-1.0991821,-2.8674316,89.0
577,-1.8933907,-4.65595,1.2370417,0.8814697,-1.3126465,-2.257837,89.0
578,-1.3523225,-3.6111004,0.919382,0.8814697,-1.3126465,-2.257837,89.0
579,-1.3523225,-3.6111004,0.919382,2.2111084,-1.4783204,-1.996582,89.0
580,-0.54223394,-1.9422617,0.6544143,2.2111084,-1.4783204,-1.996582,89.0
581,-0.54223394,-1.9422617,0.6544143,1.8181641,-1.350879,-1.8638306,89.0
582,0.1992451,-1.1219368,0.6011926,1.8181641,-1.350879,-1.8638306,89.0
583,0.1992451,-1.1219368,0.6011926,0.9717407,-1.1682129,-1.8532104,89.0
584,0.3562466,-1.7798982,0.84651804,0.9717407,-1.1682129,-1.8532104,89.0
585,0.3562466,-1.7798982,0.84651804,0.33878174,-0.99722904,-1.7618774,89.0
586,-0.2406497,-2.5638478,1.0729175,0.33878174,-0.99722904,-1.7618774,89.0
587,-0.2406497,-2.5638478,1.0729175,-0.0021240234,-0.815625,-1.5292969,89.0
588,-1.0118191,-2.723185,1.1146572,-0.0021240234,-0.815625,-1.5292969,89.0
589,-1.0118191,-2.723185,1.1146572,0.32603762,-0.72641605,-1.2807862,89.0
590,-1.4513376,-2.3411336,1.0135641,0.32603762,-0.72641605,-1.2807862,89.0
591,-1.4513376,-2.3411336,1.0135641,0.6903076,-0.6159668,-1.0386475,89.0
592,-1.4946638,-1.8985295,0.8014152,0.6903076,-0.6159668,-1.0386475,89.0
593,-1.4946638,-1.8985295,0.8014152,0.93563235,-0.48215333,-0.7827026,89.0
594,-1.2349889,-1.698267,0.5363836,0.93563235,-0.48215333,-0.7827026,89.0
595,-1.2349889,-1.698267,0.5363836,1.1852051,-0.36002198,-0.50020754,89.0
596,-0.76926553,-1.5448318,0.30991745,1.1852051,-0.36002198,-0.50020754,89.0
597,-0.76926553,-1.5448318,0.30991745,1.3806152,-0.20390625,-0.18372802,89.0
598,-0.22781476,-1.1545296,0.045919895,1.3806152,-0.20390625,-0.18372802,89.0
599,-0.22781476,-1.1545296,0.045919895,1.4400879,-0.047790527,0.1444336,89.0
600,0.52387613,-0.72849464,-0.3347361,1.4400879,-0.047790527,0.1444336,89.0
601,0.52387613,-0.72849464,-0.3347361,1.5898316,0.045666505,0.40462646,89.0
602,1.6131805,-0.6491046,-0.6006503,1.5898316,0.045666505,0.40462646,89.0
603,1.6131805,-0.6491046,-0.6006503,1.905249,0.1274414,0.6042847,89.0
604,2.4099293,-0.85605145,-0.55823016,1.905249,0.1274414,0.6042847,89.0
605,2.4099293,-0.85605145,-0.55823016,2.272705,0.31116945,0.7497803,89.0
606,2.3849502,-0.89558315,-0.3979025,2.272705,0.31116945,0.7497803,89.0
607,2.3849502,-0.89558315,-0.3979025,2.715564,0.5150757,0.99085695,89.0
608,2.0135753,-0.4726801,-0.50330734,2.715564,0.5150757,0.99085695,89.0
609,2.0135753,-0.4726801,-0.50330734,3.1138184,0.7104859,1.3020264,89.0
610,2.005721,0.2478447,-1.0430999,3.1138184,0.7104859,1.3020264,89.0
611,2.005721,0.2478447,-1.0430999,3.4536622,0.8581055,1.5962037,89.0
612,2.005721,0.2478447,-1.0430999,3.4536622,0.8581055,1.5962037,89.0
613,2.376696,0.8392668,-1.8237622,3.4536622,0.8581055,1.5962037,89.0
614,2.376696,0.8392668,-1.8237622,3.6862428,1.083252,1.7480713,89.0
615,2.2922382,1.3199,-2.4084725,3.6862428,1.083252,1.7480713,89.0
616,2.2922382,1.3199,-2.4084725,3.5842896,1.4432739,1.8521484,89.0
617,1.1413713,2.0281248,-2.4769979,3.5842896,1.4432739,1.8521484,89.0
618,1.1413713,2.0281248,-2.4769979,3.0808961,1.7937378,2.0687988,89.0
619,-0.46880007,2.8233056,-2.179218,3.0808961,1.7937378,2.0687988,89.0
620,-0.46880007,2.8233056,-2.179218,2.4224489,2.1452637,2.2960694,89.0
621,-1.666605,3.3652608,-1.9611112,2.4224489,2.1452637,2.2960694,89.0
622,-1.666605,3.3652608,-1.9611112,1.7321411,2.2992554,2.5530763,89.0
623,-2.0233963,3.4969695,-2.2242723,1.7321411,2.2992554,2.5530763,89.0
624,-2.0233963,3.4969695,-2.2242723,0.8846558,2.4107666,2.7495484,89.0
625,-1.6137121,3.3399096,-2.8325672,0.8846558,2.4107666,2.7495484,89.0
626,-1.6137121,3.3399096,-2.8325672,-0.09664307,2.3693483,2.989563,89.0
627,-0.80294466,2.9265053,-3.3552506,-0.09664307,2.3693483,2.989563,89.0
628,-0.80294466,2.9265053,-3.3552506,-0.75296634,2.3098755,3.0607178,89.0
629,-0.01192379,2.45357,-3.4905117,-0.75296634,2.3098755,3.0607178,89.0
630,-0.01192379,2.45357,-3.4905117,-1.0450195,2.2026124,3.0373535,89.0
631,0.41419148,2.2624655,-3.1420188,-1.0450195,2.2026124,3.0373535,89.0
632,0.41419148,2.2624655,-3.1420188,-1.350879,2.0252564,3.0214233,89.0
633,0.52478576,2.1313713,-2.5626755,-1.350879,2.0252564,3.0214233,89.0
634,0.52478576,2.1313713,-2.5626755,-1.2117554,1.8181641,3.1212525,89.0
635,0.68738246,1.8650702,-2.0885682,-1.2117554,1.8181641,3.1212525,89.0
636,0.68738246,1.8650702,-2.0885682,-0.99935305,1.5218629,2.8823,89.0
637,1.0544348,1.7708526,-1.7343435,-0.99935305,1.5218629,2.8823,89.0
638,1.0544348,1.7708526,-1.7343435,-1.0322754,1.3721192,2.7389283,89.0
639,1.1677299,1.7718945,-1.347228,-1.0322754,1.3721192,2.7389283,89.0
640,1.1677299,1.7718945,-1.347228,-0.72854006,1.1204224,2.4649293,89.0
641,1.1365156,1.7087876,-1.0337152,-0.72854006,1.1204224,2.4649293,89.0
642,1.1365156,1.7087876,-1.0337152,-0.55755615,1.0067872,2.3725343,89.0
643,0.55078983,1.9573379,-0.68369865,-0.55755615,1.0067872,2.3725343,89.0
644,0.55078983,1.9573379,-0.68369865,-0.35895997,0.66269535,1.9902099,89.0
645,0.46665716,1.8199108,-0.5080066,-0.35895997,0.66269535,1.9902099,89.0
646,0.46665716,1.8199108,-0.5080066,-0.2814331,0.5097656,1.8415283,89.0
647,0.0810895,1.4948568,-0.15130281,-0.2814331,0.5097656,1.8415283,89.0
648,0.0810895,1.4948568,-0.15130281,0.17416993,-0.0053100586,1.2807862,89.0
649,0.108279705,1.1630363,0.029519081,0.17416993,-0.0053100586,1.2807862,89.0
650,0.108279705,1.1630363,0.029519081,0.34833986,-0.15611573,1.0726318,89.0
651,-0.29228258,0.9312227,0.78447914,0.34833986,-0.15611573,1.0726318,89.0
652,-0.29228258,0.9312227,0.78447914,0.65419924,-0.5214478,0.44816896,89.0
653,-0.43481493,0.7621169,0.923079,0.65419924,-0.5214478,0.44816896,89.0
654,-0.43481493,0.7621169,0.923079,0.7041138,-0.62340087,0.21346436,89.0
655,-0.5449953,0.44388533,1.9614735,0.7041138,-0.62340087,0.21346436,89.0
656,-0.5449953,0.44388533,1.9614735,1.1979493,-0.88996583,-0.4991455,89.0
657,-0.42033458,0.041192055,1.9218764,1.1979493,-0.88996583,-0.4991455,89.0
658,-0.42033458,0.041192055,1.9218764,1.5101807,-0.91757816,-0.73703617,89.0
659,-0.15085506,-0.18417263,2.303297,1.5101807,-0.91757816,-0.73703617,89.0
660,-0.15085506,-0.18417263,2.303297,1.6970948,-1.2011353,-1.4114136,89.0
661,-0.33887267,-0.11835861,1.7314925,1.6970948,-1.2011353,-1.4114136,89.0
662,-0.33887267,-0.11835861,1.7314925,1.3317627,-1.3052124,-1.6057618,89.0
663,-0.35892773,0.28103352,0.96718884,1.3317627,-1.3052124,-1.6057618,89.0
664,-0.35892773,0.28103352,0.96718884,0.29736328,-1.7523193,-2.4012086,89.0
665,-0.51894164,0.08771753,0.8777671,0.29736328,-1.7523193,-2.4012086,89.0
666,-0.51894164,0.08771753,0.8777671,-0.0361084,-1.9477295,-2.5934327,89.0
667,-0.14419389,-0.039566994,1.5239787,-0.0361084,-1.9477295,-2.5934327,89.0
668,-0.14419389,-0.039566994,1.5239787,-0.6690674,-2.3958986,-3.3113525,89.0
669,-0.33077264,-0.38261795,1.9161556,-0.6690674,-2.3958986,-3.3113525,89.0
670,-0.33077264,-0.38261795,1.9161556,-0.7880127,-2.4681153,-3.530127,89.0
671,-0.2351625,-1.1378694,2.6517844,-0.7880127,-2.4681153,-3.530127,89.0
672,-0.2351625,-1.1378694,2.6517844,-0.5564942,-2.6826417,-3.897583,89.0
673,-0.37428713,-2.1203542,2.9611616,-0.5564942,-2.6826417,-3.897583,89.0
674,-0.37428713,-2.1203542,2.9611616,0.03186035,-2.799463,-4.0250244,89.0
675,-1.0144932,-2.8379216,2.7610679,0.03186035,-2.799463,-4.0250244,89.0
676,-1.0144932,-2.8379216,2.7610679,1.0375855,-2.7824707,-3.80094,89.0
677,-1.4479594,-2.905054,2.4428387,1.0375855,-2.7824707,-3.80094,89.0
678,-1.4479594,-2.905054,2.4428387,1.3912354,-2.7580445,-3.63208,89.0
679,-2.4757504,-2.979915,1.8794054,1.3912354,-2.7580445,-3.63208,89.0
680,-2.4757504,-2.979915,1.8794054,2.6486573,-2.7431762,-2.994873,89.0
681,-2.3787084,-2.9174647,1.6066737,2.6486573,-2.7431762,-2.994873,89.0
682,-2.3787084,-2.9174647,1.6066737,3.0171754,-2.7368042,-2.7877808,89.0
683,-1.9506474,-2.6779537,0.866528,3.0171754,-2.7368042,-2.7877808,89.0
684,-1.9506474,-2.6779537,0.866528,3.807312,-2.714502,-1.9349854,89.0
685,-1.4039506,-2.4752364,0.7810031,3.807312,-2.714502,-1.9349854,89.0
686,-1.4039506,-2.4752364,0.7810031,4.0282106,-2.7484863,-1.7024049,89.0
687,-0.44534066,-2.2613294,0.6824075,4.0282106,-2.7484863,-1.7024049,89.0
688,-0.44534066,-2.2613294,0.6824075,4.3276978,-2.721936,-1.2807862,89.0
689,0.50899845,-2.0011413,1.1297884,4.3276978,-2.721936,-1.2807862,89.0
690,0.50899845,-2.0011413,1.1297884,4.7684326,-2.5817506,-0.9409424,89.0
691,1.1126676,-1.4592872,2.3844826,4.7684326,-2.5817506,-0.9409424,89.0
692,1.1126676,-1.4592872,2.3844826,4.9160523,-2.0263183,-0.6573853,89.0
693,0.898911,-0.21976137,3.5951228,4.9160523,-2.0263183,-0.6573853,89.0
694,0.898911,-0.21976137,3.5951228,3.5683594,-1.4889405,-0.4970215,89.0
695,-0.26402545,1.3496671,3.7957761,3.5683594,-1.4889405,-0.4970215,89.0
696,-0.26402545,1.3496671,3.7957761,0.4800293,-0.40144044,-0.098767094,89.0
697,-0.5421896,1.1676488,3.0917234,0.4800293,-0.40144044,-0.098767094,89.0
698,-0.5421896,1.1676488,3.0917234,0.028674318,-0.2081543,-0.040356446,89.0
699,-0.9999626,0.840662,2.3874655,0.028674318,-0.2081543,-0.040356446,89.0
700,-0.9999626,0.840662,2.3874655,-0.84748536,0.10620117,0.26975098,89.0
701,-1.0096259,0.5003128,1.4844842,-0.84748536,0.10620117,0.26975098,89.0
702,-1.0096259,0.5003128,1.4844842,-1.4188477,0.41949463,0.33771974,89.0
703,-0.39230764,-0.21384883,0.41982603,-1.4188477,0.41949463,0.33771974,89.0
704,-0.39230764,-0.21384883,0.41982603,-1.5144287,0.55543214,0.48746338,89.0
705,0.6174283,-1.2116551,-0.45156622,-1.5144287,0.55543214,0.48746338,89.0
706,0.6174283,-1.2116551,-0.45156622,-1.2234375,0.73703617,0.77102053,89.0
707,0.6174283,-1.2116551,-0.45156622,-1.2234375,0.73703617,0.77102053,88.0
708,1.5432224,-2.10846,-1.0000105,-1.2234375,0.73703617,0.77102053,88.0
709,1.5432224,-2.10846,-1.0000105,-0.6881836,1.0450195,0.87615967,88.0
710,2.1110063,-2.3531864,-1.3404012,-0.6881836,1.0450195,0.87615967,88.0
711,2.1110063,-2.3531864,-1.3404012,-0.11682129,1.2308716,0.99298096,88.0
712,2.6325672,-1.9033866,-1.4833198,-0.11682129,1.2308716,0.99298096,88.0
713,2.6325672,-1.9033866,-1.4833198,0.2623169,1.3413209,1.1098022,88.0
714,3.0935903,-1.2248456,-1.4241681,0.2623169,1.3413209,1.1098022,88.0
715,3.0935903,-1.2248456,-1.4241681,0.54375,1.5707153,1.1586548,88.0
716,2.3047185,-0.3057065,-1.2688999,0.54375,1.5707153,1.1586548,88.0
717,2.3047185,-0.3057065,-1.2688999,0.6287109,1.9530395,1.4156617,88.0
718,1.3694706,0.2797022,-1.3974564,0.6287109,1.9530395,1.4156617,88.0
719,1.3694706,0.2797022,-1.3974564,0.5777344,1.9519776,1.5749635,88.0
720,0.3237748,1.1858833,-1.9199305,0.5777344,1.9519776,1.5749635,88.0
721,0.3237748,1.1858833,-1.9199305,0.49277344,1.9360474,1.8871949,88.0
722,0.449059,1.7766728,-2.644184,0.49277344,1.9360474,1.8871949,88.0
723,0.449059,1.7766728,-2.644184,0.45347902,1.9339234,2.078357,88.0
724,0.9177556,1.8040655,-3.120047,0.45347902,1.9339234,2.078357,88.0
725,0.9177556,1.8040655,-3.120047,0.46622315,1.9169312,2.1378295,88.0
726,0.83783007,1.3836942,-3.2637868,0.46622315,1.9169312,2.1378295,88.0
727,0.83783007,1.3836942,-3.2637868,0.52038574,1.9349854,2.2153566,88.0
728,0.1864996,0.98693585,-3.2315617,0.52038574,1.9349854,2.2153566,88.0
729,0.1864996,0.98693585,-3.2315617,0.5533081,1.9625977,2.2769532,88.0
730,-0.6750436,0.9913553,-3.099495,0.5533081,1.9625977,2.2769532,88.0
731,-0.6750436,0.9913553,-3.099495,0.6711914,1.9286133,2.4001465,88.0
732,-1.3663044,1.4427669,-2.9427795,0.6711914,1.9286133,2.4001465,88.0
733,-1.3663044,1.4427669,-2.9427795,0.80394286,1.9190552,2.5392702,88.0
734,-1.7152481,2.107253,-2.760376,0.80394286,1.9190552,2.5392702,88.0
735,-1.7152481,2.107253,-2.760376,0.7742066,1.8956909,2.6815796,88.0
736,-1.7618959,2.546728,-2.5096557,0.7742066,1.8956909,2.6815796,88.0
737,-1.7618959,2.546728,-2.5096557,0.6446411,1.8648926,2.8100832,88.0
738,-1.5356398,2.5763717,-2.2407203,0.6446411,1.8648926,2.8100832,88.0
739,-1.5356398,2.5763717,-2.2407203,0.4725952,1.8192261,2.890796,88.0
740,-1.0954063,2.3756723,-1.9903181,0.4725952,1.8192261,2.890796,88.0
741,-1.0954063,2.3756723,-1.9903181,0.25806886,1.7427613,2.9247804,88.0
742,-0.4956243,2.1011484,-1.7708187,0.25806886,1.7427613,2.9247804,88.0
743,-0.4956243,2.1011484,-1.7708187,0.060534667,1.6970948,2.8642457,88.0
744,0.07633996,1.7848616,-1.6059494,0.060534667,1.6970948,2.8642457,88.0
745,0.07633996,1.7848616,-1.6059494,-0.010620117,1.5346069,2.701758,88.0
746,0.5618899,1.5792687,-1.46485,-0.010620117,1.5346069,2.701758,88.0
747,0.5618899,1.5792687,-1.46485,-0.25913087,1.4655762,2.5222778,88.0
748,0.8283572,1.4032221,-1.2710376,-0.25913087,1.4655762,2.5222778,88.0
749,0.8283572,1.4032221,-1.2710376,-0.44604492,1.270166,2.1781862,88.0
750,0.79120135,1.2247384,-1.0171843,-0.44604492,1.270166,2.1781862,88.0
751,0.79120135,1.2247384,-1.0171843,-0.634021,1.1267945,1.8840088,88.0
752,0.4621482,1.1042047,-0.6739645,-0.634021,1.1267945,1.8840088,88.0
753,0.4621482,1.1042047,-0.6739645,-0.75296634,0.8666016,1.540979,88.0
754,0.008341551,1.0095968,-0.26136398,-0.75296634,0.8666016,1.540979,88.0
755,0.008341551,1.0095968,-0.26136398,-0.81031495,0.6074707,1.1915772,88.0
756,-0.28650308,0.8978753,0.13590431,-0.81031495,0.6074707,1.1915772,88.0
757,-0.28650308,0.8978753,0.13590431,-0.6775635,0.18054199,0.77739257,88.0
758,-0.31316233,0.7736592,0.44988537,-0.6775635,0.18054199,0.77739257,88.0
759,-0.31316233,0.7736592,0.44988537,-0.57242435,-0.11363526,0.29417726,88.0
760,-0.14731932,0.71716976,0.69316006,-0.57242435,-0.11363526,0.29417726,88.0
761,-0.14731932,0.71716976,0.69316006,-0.58198243,-0.41099855,-0.25700685,88.0
762,0.031912804,0.63108444,0.95242834,-0.58198243,-0.41099855,-0.25700685,88.0
763,0.031912804,0.63108444,0.95242834,-0.6605713,-0.72216797,-0.9547486,88.0
764,0.32483435,0.40363455,1.193449,-0.6605713,-0.72216797,-0.9547486,88.0
765,0.32483435,0.40363455,1.193449,-0.75509036,-1.0205933,-1.7788696,88.0
766,0.75670576,0.049103737,1.3326278,-0.75509036,-1.0205933,-1.7788696,88.0
767,0.75670576,0.049103737,1.3326278,-0.91120607,-1.3211426,-2.7113159,88.0
768,1.0453305,-0.34153986,1.3571424,-0.91120607,-1.3211426,-2.7113159,88.0
769,1.0453305,-0.34153986,1.3571424,-1.2935303,-1.6450561,-3.6660645,88.0
770,0.930295,-0.79122496,1.3663535,-1.2935303,-1.6450561,-3.6660645,88.0
771,0.930295,-0.79122496,1.3663535,-1.7013428,-1.9785279,-4.4137206,88.0
772,0.77642584,-1.2522671,1.5274701,-1.7013428,-1.9785279,-4.4137206,88.0
773,0.77642584,-1.2522671,1.5274701,-1.8553345,-2.3045654,-5.04137,88.0
774,1.1769879,-1.7314036,1.9045568,-1.8553345,-2.3045654,-5.04137,88.0
775,1.1769879,-1.7314036,1.9045568,-1.6195679,-2.5010376,-5.4736085,88.0
776,2.0640268,-2.4285798,2.3716311,-1.6195679,-2.5010376,-5.4736085,88.0
777,2.0640268,-2.4285798,2.3716311,-0.8602295,-2.6603394,-5.618042,88.0
778,2.704615,-3.430193,2.697134,-0.8602295,-2.6603394,-5.618042,88.0
779,2.704615,-3.430193,2.697134,0.23682861,-2.451123,-5.25802,88.0
780,2.0422812,-4.718483,2.7368212,0.23682861,-2.451123,-5.25802,88.0
781,2.0422812,-4.718483,2.7368212,1.6949707,-2.2004883,-4.3075194,88.0
782,-0.3215704,-5.410944,2.4650307,1.6949707,-2.2004883,-4.3075194,88.0
783,-0.3215704,-5.410944,2.4650307,3.2338257,-2.0422485,-2.9959352,88.0
784,-3.0705009,-4.008479,1.7726959,3.2338257,-2.0422485,-2.9959352,88.0
785,-3.0705009,-4.008479,1.7726959,4.6951537,-2.2960694,-1.6864747,88.0
786,-4.3034344,-0.6844201,0.7677173,4.6951537,-2.2960694,-1.6864747,88.0
787,-4.3034344,-0.6844201,0.7677173,4.86189,-2.1388917,-0.80181885,88.0
788,-3.901683,2.5022197,0.36587062,4.86189,-2.1388917,-0.80181885,88.0
789,-3.901683,2.5022197,0.36587062,3.5205688,-1.906311,-0.2782471,88.0
790,-3.113009,3.8410215,1.087179,3.5205688,-1.906311,-0.2782471,88.0
791,-3.113009,3.8410215,1.087179,1.2521118,-1.6662964,-0.38657227,88.0
792,-2.6488545,3.4167747,1.9084883,1.2521118,-1.6662964,-0.38657227,88.0
793,-2.6488545,3.4167747,1.9084883,-1.5919555,-1.3498169,-0.7041138,88.0
794,-2.152543,1.6043305,1.9645958,-1.5919555,-1.3498169,-0.7041138,88.0
795,-2.152543,1.6043305,1.9645958,-3.8168702,-0.91757816,-1.0747559,88.0
796,-1.3087411,-0.81267816,1.6516204,-3.8168702,-0.91757816,-1.0747559,88.0
797,-1.3087411,-0.81267816,1.6516204,-5.142261,-0.52675784,-1.449646,88.0
798,-0.48073307,-2.8783164,1.1158276,-5.142261,-0.52675784,-1.449646,88.0
799,-0.48073307,-2.8783164,1.1158276,-5.9547,-0.17841797,-1.6811646,88.0
800,0.18642187,-4.738395,0.43727875,-5.9547,-0.17841797,-1.6811646,88.0
801,0.18642187,-4.738395,0.43727875,-5.662647,0.1263794,-1.8755127,88.0
802,0.5591717,-6.432855,0.3297913,-5.662647,0.1263794,-1.8755127,88.0
803,0.5591717,-6.432855,0.3297913,-4.2214966,0.21452637,-1.6758546,88.0
804,0.31579435,-7.2319164,1.0508692,-4.2214966,0.21452637,-1.6758546,88.0
805,0.31579435,-7.2319164,1.0508692,-2.264209,0.28674316,-1.1352905,88.0
806,-0.27657598,-6.010753,1.8529756,-2.264209,0.28674316,-1.1352905,88.0
807,-0.27657598,-6.010753,1.8529756,-0.6669434,0.13062744,-0.4725952,88.0
808,-0.38658062,-2.9631314,1.8529372,-0.6669434,0.13062744,-0.4725952,88.0
809,-0.38658062,-2.9631314,1.8529372,0.17841797,0.25594482,-0.04248047,88.0
810,0.1456061,-0.09546852,1.188734,0.17841797,0.25594482,-0.04248047,88.0
811,0.1456061,-0.09546852,1.188734,0.65632325,0.2899292,0.22727051,88.0
812,0.7440362,1.0000167,0.4677477,0.65632325,0.2899292,0.22727051,88.0
813,0.7440362,1.0000167,0.4677477,0.55968016,0.3345337,0.42692873,88.0
814,1.2471577,0.42171764,-0.02838993,0.55968016,0.3345337,0.42692873,88.0
815,1.2471577,0.42171764,-0.02838993,0.42161867,0.4364868,0.7699585,88.0
816,1.902609,-0.67941046,-0.42694783,0.42161867,0.4364868,0.7699585,88.0
817,1.902609,-0.67941046,-0.42694783,0.42161867,0.4364868,0.7699585,86.0
818,1.902609,-0.67941046,-0.42694783,0.57454836,0.51188964,1.1087402,86.0
819,2.4390793,-1.1702738,-0.9258723,0.57454836,0.51188964,1.1087402,86.0
820,2.4390793,-1.1702738,-0.9258723,0.98873293,0.77102053,1.4687623,86.0
821,2.0411928,-0.50795984,-1.3731441,0.98873293,0.77102053,1.4687623,86.0
822,2.0411928,-0.50795984,-1.3731441,1.4708862,1.0290893,1.9073731,86.0
823,0.84011984,0.9854779,-1.6382003,1.4708862,1.0290893,1.9073731,86.0
824,0.84011984,0.9854779,-1.6382003,1.8330323,1.2542359,2.3332398,86.0
825,0.06621218,2.4067664,-1.8587294,1.8330323,1.2542359,2.3332398,86.0
826,0.06621218,2.4067664,-1.8587294,2.0507448,1.3328247,2.6890137,86.0
827,0.4086461,3.1332135,-2.1452477,2.0507448,1.3328247,2.6890137,86.0
828,0.4086461,3.1332135,-2.1452477,2.1526978,1.3678712,2.8291993,86.0
829,1.3489873,3.1712317,-2.38175,2.1526978,1.3678712,2.8291993,86.0
830,1.3489873,3.1712317,-2.38175,2.088977,1.4528321,2.7845948,86.0
831,1.9379911,2.8650982,-2.3554733,2.088977,1.4528321,2.7845948,86.0
832,1.9379911,2.8650982,-2.3554733,1.7576294,1.6195679,2.7622926,86.0
833,1.7240992,2.518104,-2.086344,1.7576294,1.6195679,2.7622926,86.0
834,1.7240992,2.518104,-2.086344,1.2542359,1.8755127,2.7729127,86.0
835,0.91055393,2.3713558,-1.7654741,1.2542359,1.8755127,2.7729127,86.0
836,0.91055393,2.3713558,-1.7654741,0.77314454,2.0252564,2.9279664,86.0
837,0.040686607,2.5846336,-1.594557,0.77314454,2.0252564,2.9279664,86.0
838,0.040686607,2.5846336,-1.594557,0.4694092,2.075171,3.1743531,86.0
839,-0.54445267,3.0855658,-1.6783679,0.4694092,2.075171,3.1743531,86.0
840,-0.54445267,3.0855658,-1.6783679,0.1539917,2.151636,3.4122436,86.0
841,-0.8366728,3.4859455,-1.8507143,0.1539917,2.151636,3.4122436,86.0
842,-0.8366728,3.4859455,-1.8507143,-0.08602295,2.1495118,3.6554444,86.0
843,-0.7539208,3.5085318,-1.9299979,-0.08602295,2.1495118,3.6554444,86.0
844,-0.7539208,3.5085318,-1.9299979,-0.28674316,2.1580079,3.8466065,86.0
845,-0.2951045,3.1945574,-1.8879802,-0.28674316,2.1580079,3.8466065,86.0
846,-0.2951045,3.1945574,-1.8879802,-0.3791382,2.1080933,3.9719238,86.0
847,0.32387733,2.7615542,-1.7978721,-0.3791382,2.1080933,3.9719238,86.0
848,0.32387733,2.7615542,-1.7978721,-0.3727661,2.0114503,3.9687378,86.0
849,0.8647051,2.345059,-1.6721599,-0.3727661,2.0114503,3.9687378,86.0
850,0.8647051,2.345059,-1.6721599,-0.34727785,1.9201173,3.8434205,86.0
851,1.1452675,2.02927,-1.4798667,-0.34727785,1.9201173,3.8434205,86.0
852,1.1452675,2.02927,-1.4798667,-0.2888672,1.7852417,3.6331422,86.0
853,1.0145173,1.8474271,-1.1308417,-0.2888672,1.7852417,3.6331422,86.0
854,1.0145173,1.8474271,-1.1308417,-0.26975098,1.6896607,3.3166625,86.0
855,0.41812038,1.6980834,-0.6349468,-0.26975098,1.6896607,3.3166625,86.0
856,0.41812038,1.6980834,-0.6349468,-0.09664307,1.4645141,2.9364624,86.0
857,-0.34998846,1.6570144,-0.14556742,-0.09664307,1.4645141,2.9364624,86.0
858,-0.34998846,1.6570144,-0.14556742,-0.2538208,1.3094605,2.5052857,86.0
859,-1.0039167,1.6697035,0.16218376,-0.2538208,1.3094605,2.5052857,86.0
860,-1.0039167,1.6697035,0.16218376,-0.30373535,0.9526245,1.9636596,86.0
861,-1.388473,1.5253501,0.26032543,-0.30373535,0.9526245,1.9636596,86.0
862,-1.388473,1.5253501,0.26032543,-0.39506838,0.66481936,1.2393677,86.0
863,-1.4673457,1.1710491,0.3448329,-0.39506838,0.66481936,1.2393677,86.0
864,-1.4673457,1.1710491,0.3448329,-0.42055663,0.32285157,0.40144044,86.0
865,-1.3761349,0.5851917,0.6171994,-0.42055663,0.32285157,0.40144044,86.0
866,-1.3761349,0.5851917,0.6171994,-0.23789063,-0.07434082,-0.5363159,86.0
867,-1.1213789,-0.011876106,1.0416598,-0.23789063,-0.07434082,-0.5363159,86.0
868,-1.1213789,-0.011876106,1.0416598,-0.022302246,-0.41312256,-1.4783204,86.0
869,-0.6569543,-0.41794825,1.3684719,-0.022302246,-0.41312256,-1.4783204,86.0
870,-0.6569543,-0.41794825,1.3684719,0.059472658,-0.72004396,-2.4638672,86.0
871,-0.062318802,-0.70598936,1.3261983,0.059472658,-0.72004396,-2.4638672,86.0
872,-0.062318802,-0.70598936,1.3261983,-0.11469727,-1.0248413,-3.439856,86.0
873,0.4497056,-0.99316025,0.95381737,-0.11469727,-1.0248413,-3.439856,86.0
874,0.4497056,-0.99316025,0.95381737,-0.58198243,-1.2956543,-4.2820315,86.0
875,0.7176137,-1.2872286,0.61333466,-0.58198243,-1.2956543,-4.2820315,86.0
876,0.7176137,-1.2872286,0.61333466,-1.1151123,-1.5908936,-4.9266725,86.0
877,0.91102934,-1.4102273,0.48258662,-1.1151123,-1.5908936,-4.9266725,86.0
878,0.91102934,-1.4102273,0.48258662,-1.5048707,-1.8797607,-5.42688,86.0
879,1.6112943,-1.4216022,0.49494386,-1.5048707,-1.8797607,-5.42688,86.0
880,1.6112943,-1.4216022,0.49494386,-1.6493043,-2.1261475,-5.76991,86.0
881,3.0353003,-1.7710831,0.5394244,-1.6493043,-2.1261475,-5.76991,86.0
882,3.0353003,-1.7710831,0.5394244,-1.3869873,-2.2387207,-6.0024905,86.0
883,4.3489437,-2.748129,0.620126,-1.3869873,-2.2387207,-6.0024905,86.0
884,4.3489437,-2.748129,0.620126,-0.94412845,-2.1144655,-5.9015994,86.0
885,4.052434,-4.145537,0.9892527,-0.94412845,-2.1144655,-5.9015994,86.0
886,4.052434,-4.145537,0.9892527,-0.20603028,-1.7629395,-5.312183,86.0
887,1.5126748,-5.305846,1.8748372,-0.20603028,-1.7629395,-5.312183,86.0
888,1.5126748,-5.305846,1.8748372,0.85598147,-1.354065,-4.280969,86.0
889,-2.2731733,-4.774535,2.7312908,0.85598147,-1.354065,-4.280969,86.0
890,-2.2731733,-4.774535,2.7312908,0.9685547,-1.2914063,-3.0076172,86.0
891,-5.0204186,-1.6668572,2.450572,0.9685547,-1.2914063,-3.0076172,86.0
892,-5.0204186,-1.6668572,2.450572,-0.75615233,-1.0248413,-1.8266602,86.0
893,-5.2713766,1.8093243,1.2558923,-0.75615233,-1.0248413,-1.8266602,86.0
894,-5.2713766,1.8093243,1.2558923,-2.7516725,-0.4704712,-1.2807862,86.0
895,-4.163134,2.9058824,0.3348164,-2.7516725,-0.4704712,-1.2807862,86.0
896,-4.163134,2.9058824,0.3348164,-4.223621,-0.36108398,-1.1225464,86.0
897,-3.0912495,1.572826,-0.28765228,-4.223621,-0.36108398,-1.1225464,86.0
898,-3.0912495,1.572826,-0.28765228,-5.3992677,0.10407715,-1.1469727,86.0
899,-2.4347062,-0.8949619,-0.949531,-5.3992677,0.10407715,-1.1469727,86.0
900,-2.4347062,-0.8949619,-0.949531,-6.277551,0.5214478,-1.1873292,86.0
901,-2.1535997,-3.2748196,-1.5831356,-6.277551,0.5214478,-1.1873292,86.0
902,-2.1535997,-3.2748196,-1.5831356,-6.36145,0.82836914,-1.4050416,86.0
903,-1.916691,-4.493342,-2.024797,-6.36145,0.82836914,-1.4050416,86.0
904,-1.916691,-4.493342,-2.024797,-6.2085204,0.9398804,-1.5048707,86.0
905,-1.6203157,-5.044027,-2.1517591,-6.2085204,0.9398804,-1.5048707,86.0
906,-1.6203157,-5.044027,-2.1517591,-5.1019044,1.1883911,-1.4369019,86.0
907,-1.3761598,-5.561906,-1.8591759,-5.1019044,1.1883911,-1.4369019,86.0
908,-1.3761598,-5.561906,-1.8591759,-3.8497925,0.99510497,-1.7873658,86.0
909,-1.2759523,-5.5242195,-1.2247186,-3.8497925,0.99510497,-1.7873658,86.0
910,-1.2759523,-5.5242195,-1.2247186,-2.4936035,0.8857178,-1.6418701,86.0
911,-1.204966,-4.85065,-0.45013618,-2.4936035,0.8857178,-1.6418701,86.0
912,-1.204966,-4.85065,-0.45013618,-0.73597413,0.48109132,-1.3657471,86.0
913,-0.5440631,-3.4568386,0.23672938,-0.73597413,0.48109132,-1.3657471,86.0
914,-0.5440631,-3.4568386,0.23672938,0.6435791,0.08071289,-0.9239502,86.0
915,0.9569736,-1.752739,0.71472526,0.6435791,0.08071289,-0.9239502,86.0
916,0.9569736,-1.752739,0.71472526,1.5919555,-0.20284425,-0.42799073,86.0
917,2.7303128,-0.4509945,0.9230375,1.5919555,-0.20284425,-0.42799073,86.0
918,2.7303128,-0.4509945,0.9230375,1.5919555,-0.20284425,-0.42799073,83.0
919,2.7303128,-0.4509945,0.9230375,2.1325195,-0.39613038,0.03717041,83.0
920,4.0372896,0.15718555,0.80814445,2.1325195,-0.39613038,0.03717041,83.0
921,4.0372896,0.15718555,0.80814445,2.2429688,-0.5384399,0.6425171,83.0
922,4.282261,0.38459873,0.45703804,2.2429688,-0.5384399,0.6425171,83.0
923,4.282261,0.38459873,0.45703804,2.0369384,-0.5809204,1.2892822,83.0
924,2.9721956,0.8061042,0.21176076,2.0369384,-0.5809204,1.2892822,83.0
925,2.9721956,0.8061042,0.21176076,1.9944581,-0.5012695,1.8595825,83.0
926,0.5935278,1.736021,0.34913266,1.9944581,-0.5012695,1.8595825,83.0
927,0.5935278,1.736021,0.34913266,2.2843874,-0.5033936,2.5859985,83.0
928,-1.3675973,2.8377423,0.63538516,2.2843874,-0.5033936,2.5859985,83.0
929,-1.3675973,2.8377423,0.63538516,2.811145,-0.5798584,3.160547,83.0
930,-1.7613995,3.3729405,0.60050786,2.811145,-0.5798584,3.160547,83.0
931,-1.7613995,3.3729405,0.60050786,3.355957,-0.64570314,3.4653442,83.0
932,-0.73492527,3.2859502,0.1298936,3.355957,-0.64570314,3.4653442,83.0
933,-0.73492527,3.2859502,0.1298936,3.7244751,-0.5479981,3.5672975,83.0
934,0.567956,3.0256963,-0.40170038,3.7244751,-0.5479981,3.5672975,83.0
935,0.567956,3.0256963,-0.40170038,3.5917237,-0.22514649,3.2529418,83.0
936,1.1547189,2.9496462,-0.6509135,3.5917237,-0.22514649,3.2529418,83.0
937,1.1547189,2.9496462,-0.6509135,3.349585,-0.057348635,3.0150514,83.0
938,0.87675357,3.0646365,-0.57215905,3.349585,-0.057348635,3.0150514,83.0
939,0.87675357,3.0646365,-0.57215905,2.9354005,0.18797608,2.7399902,83.0
940,0.26777267,3.245679,-0.2915163,2.9354005,0.18797608,2.7399902,83.0
941,0.26777267,3.245679,-0.2915163,2.618921,0.35683593,2.6932619,83.0
942,-0.2673006,3.4307837,-0.15361094,2.618921,0.35683593,2.6932619,83.0
943,-0.2673006,3.4307837,-0.15361094,2.2217286,0.44710693,2.71344,83.0
944,-0.54418707,3.4931989,-0.33894098,2.2217286,0.44710693,2.71344,83.0
945,-0.54418707,3.4931989,-0.33894098,1.9094971,0.54906005,2.6773317,83.0
946,-0.5319438,3.2635412,-0.7753886,1.9094971,0.54906005,2.6773317,83.0
947,-0.5319438,3.2635412,-0.7753886,1.6578003,0.5479981,2.7474244,83.0
948,-0.2886653,2.8114555,-1.2074203,1.6578003,0.5479981,2.7474244,83.0
949,-0.2886653,2.8114555,-1.2074203,1.4252198,0.5883545,2.7389283,83.0
950,0.08071327,2.311286,-1.4252138,1.4252198,0.5883545,2.7389283,83.0
951,0.08071327,2.311286,-1.4252138,1.2138795,0.62340087,2.7060058,83.0
952,0.39575958,1.9709649,-1.4165015,1.2138795,0.62340087,2.7060058,83.0
953,0.39575958,1.9709649,-1.4165015,0.9897949,0.64570314,2.6390991,83.0
954,0.57702017,1.7810934,-1.294688,0.9897949,0.64570314,2.6390991,83.0
955,0.57702017,1.7810934,-1.294688,0.7880127,0.6616333,2.4978516,83.0
956,0.56873274,1.6695766,-1.1350791,0.7880127,0.6616333,2.4978516,83.0
957,0.56873274,1.6695766,-1.1350791,0.5787964,0.6403931,2.3066895,83.0
958,0.34993243,1.557817,-0.9751775,0.5787964,0.6403931,2.3066895,83.0
959,0.34993243,1.557817,-0.9751775,0.362146,0.58623046,2.0879152,83.0
960,0.04205537,1.3997812,-0.8174467,0.362146,0.58623046,2.0879152,83.0
961,0.04205537,1.3997812,-0.8174467,0.1720459,0.49277344,1.7990478,83.0
962,-0.09479809,1.18711,-0.6417384,0.1720459,0.49277344,1.7990478,83.0
963,-0.09479809,1.18711,-0.6417384,0.013806152,0.362146,1.4432739,83.0
964,0.060941458,0.93302536,-0.42958975,0.013806152,0.362146,1.4432739,83.0
965,0.060941458,0.93302536,-0.42958975,-0.13168946,0.22302246,0.9483765,83.0
966,0.27958822,0.66930866,-0.17517805,-0.13168946,0.22302246,0.9483765,83.0
967,0.27958822,0.66930866,-0.17517805,-0.26762697,0.057348635,0.38657227,83.0
968,0.27957892,0.38215113,0.1821599,-0.26762697,0.057348635,0.38657227,83.0
969,0.27957892,0.38215113,0.1821599,-0.38338622,-0.12000733,-0.23045655,83.0
970,0.15820885,0.085042,0.6403935,-0.38338622,-0.12000733,-0.23045655,83.0
971,0.15820885,0.085042,0.6403935,-0.4725952,-0.3345337,-0.8931519,83.0
972,0.41265106,-0.16761112,1.0001442,-0.4725952,-0.3345337,-0.8931519,83.0
973,0.41265106,-0.16761112,1.0001442,-0.6616333,-0.55755615,-1.6461182,83.0
974,1.1647401,-0.37971878,0.99369454,-0.6616333,-0.55755615,-1.6461182,83.0
975,1.1647401,-0.37971878,0.99369454,-0.9345703,-0.7742066,-2.4681153,83.0
976,1.6232593,-0.661685,0.82187223,-0.9345703,-0.7742066,-2.4681153,83.0
977,1.6232593,-0.661685,0.82187223,-1.2202514,-0.9239502,-3.2731202,83.0
978,1.1795278,-1.0339012,0.94579124,-1.2202514,-0.9239502,-3.2731202,83.0
979,1.1795278,-1.0339012,0.94579124,-1.3976074,-1.0821899,-3.9092653,83.0
980,0.54004526,-1.4266691,1.3952684,-1.3976074,-1.0821899,-3.9092653,83.0
981,0.54004526,-1.4266691,1.3952684,-1.3094605,-1.2988404,-4.3691163,83.0
982,0.6681566,-1.881753,1.7721107,-1.3094605,-1.2988404,-4.3691163,83.0
983,0.6681566,-1.881753,1.7721107,-0.93350834,-1.4666382,-4.710022,83.0
984,1.2811074,-2.4533882,1.8671271,-0.93350834,-1.4666382,-4.710022,83.0
985,1.2811074,-2.4533882,1.8671271,-0.31966552,-1.5537232,-4.8183475,83.0
986,1.3572102,-3.0364656,1.7617193,-0.31966552,-1.5537232,-4.8183475,83.0
987,1.3572102,-3.0364656,1.7617193,0.3971924,-1.5250489,-4.5443482,83.0
988,0.26414967,-3.4215188,1.5668461,0.3971924,-1.5250489,-4.5443482,83.0
989,0.26414967,-3.4215188,1.5668461,1.171399,-1.3530029,-3.880591,83.0
990,-1.7957482,-3.2530842,1.3299296,1.171399,-1.3530029,-3.880591,83.0
991,-1.7957482,-3.2530842,1.3299296,1.7916138,-1.260608,-2.985315,83.0
992,-3.8395894,-2.1505144,1.0953646,1.7916138,-1.260608,-2.985315,83.0
993,-3.8395894,-2.1505144,1.0953646,2.1197755,-1.3168945,-2.088977,83.0
994,-4.799223,-0.5512098,0.9342873,2.1197755,-1.3168945,-2.088977,83.0
995,-4.799223,-0.5512098,0.9342873,2.2036743,-1.4114136,-1.5123047,83.0
996,-4.4681015,0.68746233,0.8988581,2.2036743,-1.4114136,-1.5123047,83.0
997,-4.4681015,0.68746233,0.8988581,1.5887696,-1.3848633,-1.1013062,83.0
998,-3.4665956,1.1083806,0.8807442,1.5887696,-1.3848633,-1.1013062,83.0
999,-3.4665956,1.1083806,0.8807442,0.14655761,-1.2521118,-1.0365235,83.0
1000,-2.3719947,0.43937778,0.73682195,0.14655761,-1.2521118,-1.0365235,83.0
1001,-2.3719947,0.43937778,0.73682195,-1.0620117,-1.083252,-1.2075074,83.0
1002,-1.3688483,-0.9546623,0.56672806,-1.0620117,-1.083252,-1.2075074,83.0
1003,-1.3688483,-0.9546623,0.56672806,-1.7937378,-0.9834229,-1.3168945,83.0
1004,-0.47287405,-2.4323578,0.5513073,-1.7937378,-0.9834229,-1.3168945,83.0
1005,-0.47287405,-2.4323578,0.5513073,-1.9296753,-0.86553955,-1.5069946,83.0
1006,0.26105624,-3.4320068,0.76570404,-1.9296753,-0.86553955,-1.5069946,83.0
1007,0.26105624,-3.4320068,0.76570404,-1.8139161,-0.69349366,-1.6418701,83.0
1008,0.7758616,-3.790149,1.1163353,-1.8139161,-0.69349366,-1.6418701,83.0
1009,0.7758616,-3.790149,1.1163353,-1.3710572,-0.5161377,-1.7119629,83.0
1010,0.92739093,-3.756277,1.5252094,-1.3710572,-0.5161377,-1.7119629,83.0
1011,0.92739093,-3.756277,1.5252094,-0.87615967,-0.41099855,-1.5218629,83.0
1012,0.7033752,-3.3982835,1.8704362,-0.87615967,-0.41099855,-1.5218629,83.0
1013,0.7033752,-3.3982835,1.8704362,-0.33134767,-0.27718505,-1.0959961,83.0
1014,0.57777584,-2.620617,1.9008901,-0.33134767,-0.27718505,-1.0959961,83.0
1015,0.57777584,-2.620617,1.9008901,0.23682861,-0.2347046,-0.542688,83.0
1016,0.89488673,-1.4612031,1.5395355,0.23682861,-0.2347046,-0.542688,83.0
1017,0.89488673,-1.4612031,1.5395355,0.6467652,-0.1720459,-0.118945315,83.0
1018,1.3798742,-0.3792286,0.99816895,0.6467652,-0.1720459,-0.118945315,83.0
1019,1.3798742,-0.3792286,0.99816895,0.7327881,-0.053100586,0.18160401,83.0
1020,1.8037163,0.043248177,0.50139165,0.7327881,-0.053100586,0.18160401,83.0
1021,1.8037163,0.043248177,0.50139165,0.48109132,0.10301514,0.46834716,83.0
1022,1.8037163,0.043248177,0.50139165,0.48109132,0.10301514,0.46834716,81.0
1023,2.2486248,-0.29403925,0.08065438,0.48109132,0.10301514,0.46834716,81.0
1024,2.2486248,-0.29403925,0.08065438,0.26444092,0.33240968,0.76358646,81.0
1025,2.1150866,-0.72367096,-0.26866746,0.26444092,0.33240968,0.76358646,81.0
1026,2.1150866,-0.72367096,-0.26866746,0.27506104,0.6637573,1.088562,81.0
1027,0.8246865,-0.44192505,-0.5232713,0.27506104,0.6637573,1.088562,81.0
1028,0.8246865,-0.44192505,-0.5232713,0.5235718,0.86553955,1.5335449,81.0
1029,-0.6180706,0.53431416,-0.8133924,0.5235718,0.86553955,1.5335449,81.0
1030,-0.6180706,0.53431416,-0.8133924,0.903772,0.96218264,1.9222412,81.0
1031,-0.76237655,1.4437847,-1.2341123,0.903772,0.96218264,1.9222412,81.0
1032,-0.76237655,1.4437847,-1.2341123,1.3710572,0.9759888,2.1293335,81.0
1033,0.25253773,1.8079329,-1.6505711,1.3710572,0.9759888,2.1293335,81.0
1034,0.25253773,1.8079329,-1.6505711,1.8309082,1.0078491,2.1473877,81.0
1035,1.1823525,1.8361411,-1.8887675,1.8309082,1.0078491,2.1473877,81.0
1036,1.1823525,1.8361411,-1.8887675,1.9328613,1.1363525,2.1208375,81.0
1037,1.2322712,1.8683147,-1.8638704,1.9328613,1.1363525,2.1208375,81.0
1038,1.2322712,1.8683147,-1.8638704,1.6758546,1.3307008,2.1484497,81.0
1039,0.514235,2.0406969,-1.6784499,1.6758546,1.3307008,2.1484497,81.0
1040,0.514235,2.0406969,-1.6784499,1.3434448,1.5622193,2.2939453,81.0
1041,-0.4288342,2.408766,-1.510155,1.3434448,1.5622193,2.2939453,81.0
1042,-0.4288342,2.408766,-1.510155,0.8995239,1.7385132,2.5307739,81.0
1043,-1.1493783,2.8224351,-1.497931,0.8995239,1.7385132,2.5307739,81.0
1044,-1.1493783,2.8224351,-1.497931,0.5936646,1.81604,2.7527344,81.0
1045,-1.4697344,3.0446548,-1.7019093,0.5936646,1.81604,2.7527344,81.0
1046,-1.4697344,3.0446548,-1.7019093,0.42161867,1.81604,2.9385865,81.0
1047,-1.3930117,2.981427,-1.9953654,0.42161867,1.81604,2.9385865,81.0
1048,-1.3930117,2.981427,-1.9953654,0.22514649,1.7778076,3.087268,81.0
1049,-0.98937285,2.6778295,-2.1857333,0.22514649,1.7778076,3.087268,81.0
1050,-0.98937285,2.6778295,-2.1857333,0.13168946,1.7045288,3.2072754,81.0
1051,-0.4028263,2.286624,-2.2071195,0.13168946,1.7045288,3.2072754,81.0
1052,-0.4028263,2.286624,-2.2071195,0.19116211,1.6078857,3.170105,81.0
1053,0.20852506,2.0203393,-2.1103854,0.19116211,1.6078857,3.170105,81.0
1054,0.20852506,2.0203393,-2.1103854,0.24213867,1.545227,3.0862062,81.0
1055,0.6282215,1.8576045,-1.9274318,0.24213867,1.545227,3.0862062,81.0
1056,0.6282215,1.8576045,-1.9274318,0.23789063,1.449646,2.8865478,81.0
1057,0.8196428,1.725256,-1.6895773,0.23789063,1.449646,2.8865478,81.0
1058,0.8196428,1.725256,-1.6895773,0.14337158,1.359375,2.5828125,81.0
1059,0.9481702,1.5786791,-1.448122,0.14337158,1.359375,2.5828125,81.0
1060,0.9481702,1.5786791,-1.448122,0.098767094,1.263794,2.3268678,81.0
1061,0.94994235,1.4139199,-1.2022476,0.098767094,1.263794,2.3268678,81.0
1062,0.94994235,1.4139199,-1.2022476,-0.009558106,1.1257324,1.9657837,81.0
1063,0.76222444,1.3175251,-0.9661684,-0.009558106,1.1257324,1.9657837,81.0
1064,0.76222444,1.3175251,-0.9661684,-0.20178223,0.94625247,1.5717773,81.0
1065,0.4826188,1.1691446,-0.75422144,-0.20178223,0.94625247,1.5717773,81.0
1066,0.4826188,1.1691446,-0.75422144,-0.33028564,0.69136965,1.1087402,81.0
1067,0.25894642,0.89045477,-0.5395832,-0.33028564,0.69136965,1.1087402,81.0
1068,0.25894642,0.89045477,-0.5395832,-0.3090454,0.3430298,0.56392825,81.0
1069,-0.0019857883,0.5305643,-0.18095875,-0.3090454,0.3430298,0.56392825,81.0
1070,-0.0019857883,0.5305643,-0.18095875,-0.10620117,-0.05522461,0.019116212,81.0
1071,-0.27507496,0.25350428,0.36244726,-0.10620117,-0.05522461,0.019116212,81.0
1072,-0.27507496,0.25350428,0.36244726,0.1359375,-0.4704712,-0.52250975,81.0
1073,-0.12457657,0.105867386,0.8092203,0.1359375,-0.4704712,-0.52250975,81.0
1074,-0.12457657,0.105867386,0.8092203,0.1985962,-0.85385746,-1.1416626,81.0
1075,0.5681977,-0.065464735,0.8740487,0.1985962,-0.85385746,-1.1416626,81.0
1076,0.5681977,-0.065464735,0.8740487,0.15717773,-1.2000732,-1.8606446,81.0
1077,1.0389576,-0.3448155,0.6855428,0.15717773,-1.2000732,-1.8606446,81.0
1078,1.0389576,-0.3448155,0.6855428,0.015930176,-1.5261109,-2.5690064,81.0
1079,0.638185,-0.6977763,0.6547086,0.015930176,-1.5261109,-2.5690064,81.0
1080,0.638185,-0.6977763,0.6547086,-0.087084964,-1.8224121,-3.1021364,81.0
1081,-0.059471607,-1.0028133,0.96473384,-0.087084964,-1.8224121,-3.1021364,81.0
1082,-0.059471607,-1.0028133,0.96473384,-0.058410645,-2.0964112,-3.42074,81.0
1083,-0.038190126,-1.2621627,1.3963721,-0.058410645,-2.0964112,-3.42074,81.0
1084,-0.038190126,-1.2621627,1.3963721,0.2081543,-2.3109376,-3.6660645,81.0
1085,0.71963096,-1.6007214,1.6223345,0.2081543,-2.3109376,-3.6660645,81.0
1086,0.71963096,-1.6007214,1.6223345,0.65207523,-2.4171388,-3.8455446,81.0
1087,1.480063,-1.9697127,1.4477088,0.65207523,-2.4171388,-3.8455446,81.0
1088,1.480063,-1.9697127,1.4477088,0.9451904,-2.4128907,-3.805188,81.0
1089,1.481719,-2.1380627,0.9136481,0.9451904,-2.4128907,-3.805188,81.0
1090,1.481719,-2.1380627,0.9136481,0.90695804,-2.2684572,-3.4610963,81.0
1091,0.31489182,-2.0355723,0.49338186,0.90695804,-2.2684572,-3.4610963,81.0
1092,0.31489182,-2.0355723,0.49338186,0.70305175,-2.0687988,-2.8833618,81.0
1093,-1.5282745,-1.7804232,0.59349704,0.70305175,-2.0687988,-2.8833618,81.0
1094,-1.5282745,-1.7804232,0.59349704,0.6903076,-1.9041871,-2.2355347,81.0
1095,-3.0627077,-1.2444314,1.0489064,0.6903076,-1.9041871,-2.2355347,81.0
1096,-3.0627077,-1.2444314,1.0489064,0.6903076,-1.8680786,-1.5855836,81.0
1097,-3.6949904,-0.47119206,1.3373185,0.6903076,-1.8680786,-1.5855836,81.0
1098,-3.6949904,-0.47119206,1.3373185,0.47790527,-1.8903809,-1.085376,81.0
1099,-3.4303331,-0.077258825,1.3065492,0.47790527,-1.8903809,-1.085376,81.0
1100,-3.4303331,-0.077258825,1.3065492,0.045666505,-1.8245362,-0.88040775,81.0
1101,-2.7012856,-0.3160185,1.216089,0.045666505,-1.8245362,-0.88040775,81.0
1102,-2.7012856,-0.3160185,1.216089,-0.38551027,-1.7671875,-0.77314454,81.0
1103,-1.891131,-0.8634105,1.2155104,-0.38551027,-1.7671875,-0.77314454,81.0
1104,-1.891131,-0.8634105,1.2155104,-0.82730716,-1.7332032,-0.79969484,81.0
1105,-1.0934834,-1.4884579,1.3428307,-0.82730716,-1.7332032,-0.79969484,81.0
1106,-1.0934834,-1.4884579,1.3428307,-1.0482056,-1.7045288,-0.9600586,81.0
1107,-0.39033854,-2.1911325,1.5530243,-1.0482056,-1.7045288,-0.9600586,81.0
1108,-0.39033854,-2.1911325,1.5530243,-0.91014403,-1.6769165,-1.0938721,81.0
1109,0.09928924,-2.7728767,1.9071289,-0.91014403,-1.6769165,-1.0938721,81.0
1110,0.09928924,-2.7728767,1.9071289,-0.42055663,-1.5898316,-1.2786621,81.0
1111,0.3602175,-2.8145661,2.5421827,-0.42055663,-1.5898316,-1.2786621,81.0
1112,0.3602175,-2.8145661,2.5421827,0.11044922,-1.44646,-1.2446778,81.0
1113,0.56198996,-2.2300587,3.1467588,0.11044922,-1.44646,-1.2446778,81.0
1114,0.56198996,-2.2300587,3.1467588,0.51188964,-1.2446778,-1.0057251,81.0
1115,0.8904245,-1.4574356,3.2870848,0.51188964,-1.2446778,-1.0057251,81.0
1116,0.8904245,-1.4574356,3.2870848,0.51188964,-1.2446778,-1.0057251,82.0
1117,0.8904245,-1.4574356,3.2870848,0.79332274,-1.0556396,-0.70305175,82.0
1118,1.3894392,-0.8842468,3.086101,0.79332274,-1.0556396,-0.70305175,82.0
1119,1.3894392,-0.8842468,3.086101,1.2436157,-0.9122681,-0.42692873,82.0
1120,1.9254797,-0.4418211,2.8424163,1.2436157,-0.9122681,-0.42692873,82.0
1121,1.9254797,-0.4418211,2.8424163,1.5855836,-0.6680054,-0.115759276,82.0
1122,2.1420074,0.04972911,2.4626536,1.5855836,-0.6680054,-0.115759276,82.0
1123,2.1420074,0.04972911,2.4626536,1.5218629,-0.35046387,0.09770508,82.0
1124,2.1286938,0.47290087,1.8105769,1.5218629,-0.35046387,0.09770508,82.0
1125,2.1286938,0.47290087,1.8105769,1.2903442,-0.1083252,0.25913087,82.0
1126,2.3162975,0.6359868,0.9796872,1.2903442,-0.1083252,0.25913087,82.0
1127,2.3162975,0.6359868,0.9796872,0.9781128,0.4694092,0.33771974,82.0
1128,1.8174303,0.49372602,0.25923777,0.9781128,0.4694092,0.33771974,82.0
1129,1.8174303,0.49372602,0.25923777,0.80819094,0.9781128,0.45454103,82.0
1130,0.14859748,0.40073013,-0.48389387,0.80819094,0.9781128,0.45454103,82.0
1131,0.14859748,0.40073013,-0.48389387,0.7890747,1.363623,0.6924316,82.0
1132,-1.1800721,0.60080886,-1.4942074,0.7890747,1.363623,0.6924316,82.0
1133,-1.1800721,0.60080886,-1.4942074,0.8028809,1.6556762,0.91757816,82.0
1134,-1.0422511,0.855464,-2.4689374,0.8028809,1.6556762,0.91757816,82.0
1135,-1.0422511,0.855464,-2.4689374,1.0715698,1.811792,0.9505005,82.0
1136,-0.04488468,0.8755822,-2.9742956,1.0715698,1.811792,0.9505005,82.0
1137,-0.04488468,0.8755822,-2.9742956,1.4209718,1.9477295,0.7784546,82.0
1138,0.60253215,0.6736591,-3.007891,1.4209718,1.9477295,0.7784546,82.0
1139,0.60253215,0.6736591,-3.007891,1.6206299,2.0932252,0.61915284,82.0
1140,0.4496405,0.37936926,-2.8202167,1.6206299,2.0932252,0.61915284,82.0
1141,0.4496405,0.37936926,-2.8202167,1.4931885,2.3321779,0.61702883,82.0
1142,-0.15475297,0.3512981,-2.5328212,1.4931885,2.3321779,0.61702883,82.0
1143,-0.15475297,0.3512981,-2.5328212,0.9398804,2.5583863,0.71154785,82.0
1144,-0.7684679,0.93079436,-2.2708738,0.9398804,2.5583863,0.71154785,82.0
1145,-0.7684679,0.93079436,-2.2708738,-0.43861085,2.8217652,1.1915772,82.0
1146,-1.1310341,1.8311712,-2.1625,-0.43861085,2.8217652,1.1915772,82.0
1147,-1.1310341,1.8311712,-2.1625,-1.9498535,3.0840821,1.5887696,82.0
1148,-1.1684139,2.3251543,-2.3574414,-1.9498535,3.0840821,1.5887696,82.0
1149,-1.1684139,2.3251543,-2.3574414,-2.704944,3.2125854,2.0167603,82.0
1150,-0.9627341,1.9261146,-2.7782383,-2.704944,3.2125854,2.0167603,82.0
1151,-0.9627341,1.9261146,-2.7782383,-2.538208,3.1255004,2.443689,82.0
1152,-0.5650481,1.2041364,-3.0511062,-2.538208,3.1255004,2.443689,82.0
1153,-0.5650481,1.2041364,-3.0511062,-2.2843874,2.994873,2.8759277,82.0
1154,-0.032739162,0.8345371,-3.0077553,-2.2843874,2.994873,2.8759277,82.0
1155,-0.032739162,0.8345371,-3.0077553,-1.9116211,2.7835329,3.1159425,82.0
1156,0.65312994,0.9512112,-2.7930083,-1.9116211,2.7835329,3.1159425,82.0
1157,0.65312994,0.9512112,-2.7930083,-1.4698242,2.5700684,3.2879884,82.0
1158,1.1931095,1.2330881,-2.4429026,-1.4698242,2.5700684,3.2879884,82.0
1159,1.1931095,1.2330881,-2.4429026,-1.2552979,2.4744873,3.3251588,82.0
1160,1.858345,1.7784749,-2.1334481,-1.2552979,2.4744873,3.3251588,82.0
1161,1.858345,1.7784749,-2.1334481,-0.8782837,2.2355347,3.2232056,82.0
1162,1.9305236,1.950429,-1.7503257,-0.8782837,2.2355347,3.2232056,82.0
1163,1.9305236,1.950429,-1.7503257,-0.8644776,2.1144655,3.1817873,82.0
1164,1.0864232,2.3038247,-1.1686444,-0.8644776,2.1144655,3.1817873,82.0
1165,1.0864232,2.3038247,-1.1686444,-0.7657105,1.7523193,2.9215944,82.0
1166,0.90914106,2.1585016,-0.82362413,-0.7657105,1.7523193,2.9215944,82.0
1167,0.90914106,2.1585016,-0.82362413,-0.7593384,1.5951416,2.792029,82.0
1168,0.122063875,1.9476633,-0.3288579,-0.7593384,1.5951416,2.792029,82.0
1169,0.122063875,1.9476633,-0.3288579,-0.6977417,1.0567017,2.1144655,82.0
1170,0.25217986,1.6587532,-0.13040781,-0.6977417,1.0567017,2.1144655,82.0
1171,0.25217986,1.6587532,-0.13040781,-0.6403931,0.8793457,1.7873658,82.0
1172,-0.041981697,1.0969977,0.39617443,-0.6403931,0.8793457,1.7873658,82.0
1173,-0.041981697,1.0969977,0.39617443,-0.32285157,0.17523193,0.67331547,82.0
1174,-0.1479652,0.82005405,0.5745444,-0.32285157,0.17523193,0.67331547,82.0
1175,-0.1479652,0.82005405,0.5745444,-0.27399904,0.0021240234,0.27718505,82.0
1176,-0.39753485,0.60140467,1.167985,-0.27399904,0.0021240234,0.27718505,82.0
1177,-0.39753485,0.60140467,1.167985,-0.5256958,-0.4970215,-1.0120972,82.0
1178,-0.39476132,0.4180379,1.1390023,-0.5256958,-0.4970215,-1.0120972,82.0
1179,-0.39476132,0.4180379,1.1390023,-0.59472656,-0.65632325,-1.4793824,82.0
1180,0.11374426,0.025714397,0.8978596,-0.59472656,-0.65632325,-1.4793824,82.0
1181,0.11374426,0.025714397,0.8978596,-0.7593384,-1.1225464,-2.8015869,82.0
1182,-0.21828198,-0.16502428,0.83275294,-0.7593384,-1.1225464,-2.8015869,82.0
1183,-0.21828198,-0.16502428,0.83275294,-0.8262451,-1.2393677,-3.1382446,82.0
1184,-0.47555327,-0.2600956,1.1546178,-0.8262451,-1.2393677,-3.1382446,82.0
1185,-0.47555327,-0.2600956,1.1546178,-0.90695804,-1.5197388,-3.8689086,82.0
1186,-0.69770336,-0.43793488,1.3339481,-0.90695804,-1.5197388,-3.8689086,82.0
1187,-0.69770336,-0.43793488,1.3339481,-0.89421386,-1.5962037,-4.083435,82.0
1188,-0.12140727,-0.73572373,1.465169,-0.89421386,-1.5962037,-4.083435,82.0
1189,-0.12140727,-0.73572373,1.465169,-0.72960204,-1.7332032,-4.4763794,82.0
1190,0.73850656,-1.3157885,1.2267618,-0.72960204,-1.7332032,-4.4763794,82.0
1191,0.73850656,-1.3157885,1.2267618,-0.45029297,-1.8542725,-4.806665,82.0
1192,1.2720065,-1.9881289,0.80647063,-0.45029297,-1.8542725,-4.806665,82.0
1193,1.2720065,-1.9881289,0.80647063,-0.32497558,-1.8521484,-4.977649,82.0
1194,0.96037865,-2.5877323,0.5331526,-0.32497558,-1.8521484,-4.977649,82.0
1195,0.96037865,-2.5877323,0.5331526,-0.29417726,-1.7406372,-4.72489,82.0
1196,-0.86548615,-3.3679276,1.0632042,-0.29417726,-1.7406372,-4.72489,82.0
1197,-0.86548615,-3.3679276,1.0632042,0.28674316,-1.4252198,-3.7786376,82.0
1198,-1.6808901,-3.387677,1.4434954,0.28674316,-1.4252198,-3.7786376,82.0
1199,-1.6808901,-3.387677,1.4434954,0.631897,-1.270166,-3.3400269,82.0
1200,-3.135618,-2.896897,2.1666126,0.631897,-1.270166,-3.3400269,82.0
1201,-3.135618,-2.896897,2.1666126,0.93775636,-1.2712281,-2.3088136,82.0
1202,-3.7029524,-1.4385015,2.0131242,0.93775636,-1.2712281,-2.3088136,82.0
1203,-3.7029524,-1.4385015,2.0131242,0.6690674,-1.26698,-1.7863038,82.0
1204,-2.8355918,-0.09900677,1.1958876,0.6690674,-1.26698,-1.7863038,82.0
1205,-2.8355918,-0.09900677,1.1958876,-0.19434814,-1.2075074,-1.5431031,82.0
1206,-1.0586348,-0.1528016,0.5960655,-0.19434814,-1.2075074,-1.5431031,82.0
1207,-1.0586348,-0.1528016,0.5960655,-0.70198977,-1.2393677,-1.627002,82.0
1208,0.49892962,-1.5887086,0.67480165,-0.70198977,-1.2393677,-1.627002,82.0
1209,0.49892962,-1.5887086,0.67480165,-1.1459106,-1.2298096,-1.811792,82.0
1210,1.0857648,-3.3330762,1.3590919,-1.1459106,-1.2298096,-1.811792,82.0
1211,1.0857648,-3.3330762,1.3590919,-1.634436,-0.9632446,-1.9307374,82.0
1212,0.659835,-4.571539,2.234161,-1.634436,-0.9632446,-1.9307374,82.0
1213,0.659835,-4.571539,2.234161,-1.6578003,-0.6903076,-1.7746216,82.0
1214,-0.2222541,-4.688652,2.7698238,-1.6578003,-0.6903076,-1.7746216,82.0
1215,-0.2222541,-4.688652,2.7698238,-1.3020264,-0.47684327,-1.3179566,82.0
1216,-0.7237017,-3.803998,2.780654,-1.3020264,-0.47684327,-1.3179566,82.0
1217,-0.7237017,-3.803998,2.780654,-1.3020264,-0.47684327,-1.3179566,82.0
1218,-0.7237017,-3.803998,2.780654,-0.5713623,-0.2888672,-0.8623535,82.0
1219,-0.440082,-2.446763,2.3956413,-0.5713623,-0.2888672,-0.8623535,82.0
1220,-0.440082,-2.446763,2.3956413,0.2442627,-0.30161133,-0.49064943,82.0
1221,0.33294415,-1.1802254,1.8592987,0.2442627,-0.30161133,-0.49064943,82.0
1222,0.33294415,-1.1802254,1.8592987,0.7041138,-0.2262085,-0.22089843,82.0
1223,0.8765482,-0.37081623,1.3921752,0.7041138,-0.2262085,-0.22089843,82.0
1224,0.8765482,-0.37081623,1.3921752,0.6711914,-0.039294433,0.0998291,82.0
1225,0.7112849,0.0887351,1.0068922,0.6711914,-0.039294433,0.0998291,82.0
1226,0.7112849,0.0887351,1.0068922,0.21346436,0.23789063,0.4704712,82.0
1227,0.3949679,0.33114433,0.5112634,0.21346436,0.23789063,0.4704712,82.0
1228,0.3949679,0.33114433,0.5112634,-0.0998291,0.4630371,0.7699585,82.0
1229,0.57904816,0.19742298,-0.03431225,-0.0998291,0.4630371,0.7699585,82.0
1230,0.57904816,0.19742298,-0.03431225,0.14655761,0.5872925,0.9420044,82.0
1231,0.71417856,-0.043990135,-0.45685625,0.14655761,0.5872925,0.9420044,82.0
1232,0.71417856,-0.043990135,-0.45685625,0.7051758,0.76358646,1.1533448,82.0
1233,0.3177296,0.06228113,-0.8748965,0.7051758,0.76358646,1.1533448,82.0
1234,0.3177296,0.06228113,-0.8748965,1.1968873,0.9260742,1.4687623,82.0
1235,0.22619295,0.5652547,-1.4441557,1.1968873,0.9260742,1.4687623,82.0
1236,0.22619295,0.5652547,-1.4441557,1.5993897,1.0768799,1.7809937,82.0
1237,1.1520238,1.1632633,-1.9953516,1.5993897,1.0768799,1.7809937,82.0
1238,1.1520238,1.1632633,-1.9953516,1.9551636,1.2064453,1.9764038,82.0
1239,2.4218998,1.6627274,-2.3405318,1.9551636,1.2064453,1.9764038,82.0
1240,2.4218998,1.6627274,-2.3405318,2.0401247,1.3753052,2.071985,82.0
1241,2.802791,2.065802,-2.4635022,2.0401247,1.3753052,2.071985,82.0
1242,2.802791,2.065802,-2.4635022,1.718335,1.6248779,2.1537597,82.0
1243,1.8833585,2.3996632,-2.4112682,1.718335,1.6248779,2.1537597,82.0
1244,1.8833585,2.3996632,-2.4112682,1.2117554,1.8871949,2.3066895,82.0
1245,0.3780856,2.699406,-2.2212143,1.2117554,1.8871949,2.3066895,82.0
1246,0.3780856,2.699406,-2.2212143,0.63614506,2.1017213,2.541394,82.0
1247,-0.8444309,2.988724,-2.0085754,0.63614506,2.1017213,2.541394,82.0
1248,-0.8444309,2.988724,-2.0085754,0.032922365,2.2482789,2.8260133,82.0
1249,-1.4793901,3.1741457,-1.9285524,0.032922365,2.2482789,2.8260133,82.0
1250,-1.4793901,3.1741457,-1.9285524,-0.48427734,2.3119996,3.1000123,82.0
1251,-1.6028359,3.1178932,-2.045198,-0.48427734,2.3119996,3.1000123,82.0
1252,-1.6028359,3.1178932,-2.045198,-0.72641605,2.241907,3.3931274,82.0
1253,-1.3695002,2.9059236,-2.250648,-0.72641605,2.241907,3.3931274,82.0
1254,-1.3695002,2.9059236,-2.250648,-0.77314454,2.1261475,3.5726075,82.0
1255,-0.9083686,2.669673,-2.361993,-0.77314454,2.1261475,3.5726075,82.0
1256,-0.9083686,2.669673,-2.361993,-0.6754395,1.9625977,3.700049,82.0
1257,-0.31894326,2.4260583,-2.3078196,-0.6754395,1.9625977,3.700049,82.0
1258,-0.31894326,2.4260583,-2.3078196,-0.44498292,1.8298463,3.6671264,82.0
1259,0.25148606,2.2590961,-2.085892,-0.44498292,1.8298463,3.6671264,82.0
1260,0.25148606,2.2590961,-2.085892,-0.2824951,1.6822265,3.5683594,82.0
1261,0.6205492,2.132106,-1.7739625,-0.2824951,1.6822265,3.5683594,82.0
1262,0.6205492,2.132106,-1.7739625,-0.0998291,1.5303589,3.3379028,82.0
1263,0.71081924,1.9571986,-1.4171314,-0.0998291,1.5303589,3.3379028,82.0
1264,0.71081924,1.9571986,-1.4171314,-0.028674318,1.356189,3.0320435,82.0
1265,0.59999084,1.7416987,-1.0805559,-0.028674318,1.356189,3.0320435,82.0
1266,0.59999084,1.7416987,-1.0805559,0.007434082,1.1692749,2.6486573,82.0
1267,0.38963628,1.53197,-0.7676554,0.007434082,1.1692749,2.6486573,82.0
1268,0.38963628,1.53197,-0.7676554,0.004248047,0.998291,2.2440307,82.0
1269,0.08813715,1.3331566,-0.4462533,0.004248047,0.998291,2.2440307,82.0
1270,0.08813715,1.3331566,-0.4462533,0.11044922,0.56605226,1.724707,82.0
1271,-0.13997602,1.1611543,-0.18521309,0.11044922,0.56605226,1.724707,82.0
1272,-0.13997602,1.1611543,-0.18521309,0.11151123,0.2527588,1.1076783,82.0
1273,-0.16405606,1.0091357,-0.011268616,0.11151123,0.2527588,1.1076783,82.0
1274,-0.16405606,1.0091357,-0.011268616,-0.015930176,-0.060534667,0.37595215,82.0
1275,-0.16303205,0.70745516,0.19843149,-0.015930176,-0.060534667,0.37595215,82.0
1276,-0.16303205,0.70745516,0.19843149,-0.032922365,-0.4258667,-0.36533204,82.0
1277,-0.23811603,0.20842028,0.5537648,-0.032922365,-0.4258667,-0.36533204,82.0
1278,-0.23811603,0.20842028,0.5537648,0.32497558,-0.6711914,-1.1299804,82.0
1279,-0.10051489,-0.43726778,0.9560611,0.32497558,-0.6711914,-1.1299804,82.0
1280,-0.10051489,-0.43726778,0.9560611,1.0991821,-1.0195312,-1.9572877,82.0
1281,0.48709297,-0.77778053,1.1530571,1.0991821,-1.0195312,-1.9572877,82.0
1282,0.48709297,-0.77778053,1.1530571,1.3710572,-1.4677002,-2.707068,82.0
1283,1.142726,-0.6015458,0.9744599,1.3710572,-1.4677002,-2.707068,82.0
1284,1.142726,-0.6015458,0.9744599,0.84748536,-1.8309082,-3.3931274,82.0
1285,1.2977746,-0.4283557,0.6565454,0.84748536,-1.8309082,-3.3931274,82.0
1286,1.2977746,-0.4283557,0.6565454,0.07965088,-2.1303957,-3.9602418,82.0
1287,1.1150508,-0.47303104,0.6511519,0.07965088,-2.1303957,-3.9602418,82.0
1288,1.1150508,-0.47303104,0.6511519,-0.68712157,-2.442627,-4.3999147,82.0
1289,1.4138546,-0.67998743,0.9785752,-0.68712157,-2.442627,-4.3999147,82.0
1290,1.4138546,-0.67998743,0.9785752,-1.3466309,-2.6571534,-4.7535644,82.0
1291,2.389348,-1.2611408,1.309911,-1.3466309,-2.6571534,-4.7535644,82.0
1292,2.389348,-1.2611408,1.309911,-1.5845215,-2.7569826,-5.0392456,82.0
1293,3.219059,-2.3236587,1.4405069,-1.5845215,-2.7569826,-5.0392456,82.0
1294,3.219059,-2.3236587,1.4405069,-1.4379638,-2.5796266,-5.1741214,82.0
1295,2.755179,-3.6015663,1.5196419,-1.4379638,-2.5796266,-5.1741214,82.0
1296,2.755179,-3.6015663,1.5196419,-0.93563235,-2.1909301,-4.796045,82.0
1297,0.5026541,-4.6058626,1.8186309,-0.93563235,-2.1909301,-4.796045,82.0
1298,0.5026541,-4.6058626,1.8186309,-0.16142578,-1.7947998,-3.8466065,82.0
1299,-2.6759653,-4.6640844,2.0942235,-0.16142578,-1.7947998,-3.8466065,82.0
1300,-2.6759653,-4.6640844,2.0942235,0.73809814,-1.5505371,-2.717688,82.0
1301,-5.0720224,-3.2096002,1.8167729,0.73809814,-1.5505371,-2.717688,82.0
1302,-5.0720224,-3.2096002,1.8167729,1.7406372,-1.6089478,-1.7618774,82.0
1303,-5.5981574,-0.83434284,1.0419804,1.7406372,-1.6089478,-1.7618774,82.0
1304,-5.5981574,-0.83434284,1.0419804,2.0560548,-1.7406372,-1.2266235,82.0
1305,-4.717698,0.8380189,0.37723666,2.0560548,-1.7406372,-1.2266235,82.0
1306,-4.717698,0.8380189,0.37723666,1.5908936,-1.8022339,-0.9897949,82.0
1307,-3.4720104,0.9247608,0.2283152,1.5908936,-1.8022339,-0.9897949,82.0
1308,-3.4720104,0.9247608,0.2283152,0.996167,-1.897815,-0.9600586,82.0
1309,-2.347872,-0.003697157,0.60066974,0.996167,-1.897815,-0.9600586,82.0
1310,-2.347872,-0.003697157,0.60066974,0.08283692,-1.803296,-1.002539,82.0
1311,-1.4260637,-1.2171423,1.2866393,0.08283692,-1.803296,-1.002539,82.0
1312,-1.4260637,-1.2171423,1.2866393,-0.6552612,-1.5845215,-1.1352905,82.0
1313,-0.75606096,-2.2607257,1.9410058,-0.6552612,-1.5845215,-1.1352905,82.0
1314,-0.75606096,-2.2607257,1.9410058,-0.6552612,-1.5845215,-1.1352905,82.0
1315,-0.75606096,-2.2607257,1.9410058,-1.0407715,-1.3062744,-1.2468017,82.0
1316,-0.34177503,-2.776354,2.261716,-1.0407715,-1.3062744,-1.2468017,82.0
1317,-0.34177503,-2.776354,2.261716,-1.1331666,-1.0524536,-1.2574219,82.0
1318,-0.052680284,-2.7093525,2.2671852,-1.1331666,-1.0524536,-1.2574219,82.0
1319,-0.052680284,-2.7093525,2.2671852,-0.9345703,-0.8814697,-1.1852051,82.0
1320,0.28059748,-2.3255386,2.1855745,-0.9345703,-0.8814697,-1.1852051,82.0
1321,0.28059748,-2.3255386,2.1855745,-0.542688,-0.70305175,-0.98236084,82.0
1322,0.6585478,-1.8854799,2.1237893,-0.542688,-0.70305175,-0.98236084,82.0
1323,0.6585478,-1.8854799,2.1237893,-0.08920898,-0.5787964,-0.6510132,82.0
1324,0.9319774,-1.40731,1.9698689,-0.08920898,-0.5787964,-0.6510132,82.0
1325,0.9319774,-1.40731,1.9698689,0.33240968,-0.45666504,-0.27612305,82.0
1326,1.0887094,-0.92191744,1.7115884,0.33240968,-0.45666504,-0.27612305,82.0
1327,1.0887094,-0.92191744,1.7115884,0.7699585,-0.30054933,0.046728518,82.0
1328,1.1543905,-0.40959215,1.4441729,0.7699585,-0.30054933,0.046728518,82.0
1329,1.1543905,-0.40959215,1.4441729,0.96218264,-0.07752686,0.39506838,82.0
1330,1.1317644,0.17086124,1.1674724,0.96218264,-0.07752686,0.39506838,82.0
1331,1.1317644,0.17086124,1.1674724,0.79013675,0.1996582,0.72960204,82.0
1332,1.3653724,0.6040964,0.8132014,0.79013675,0.1996582,0.72960204,82.0
1333,1.3653724,0.6040964,0.8132014,0.54906005,0.5076416,0.91120607,82.0
1334,1.8924445,0.56059647,0.43561983,0.54906005,0.5076416,0.91120607,82.0
1335,1.8924445,0.56059647,0.43561983,0.5766724,0.8889038,1.0131592,82.0
1336,1.7968903,0.34502268,0.036044598,0.5766724,0.8889038,1.0131592,82.0
1337,1.7968903,0.34502268,0.036044598,0.63933104,1.2712281,1.2021973,82.0
1338,0.9908447,0.5794606,-0.6584449,0.63933104,1.2712281,1.2021973,82.0
1339,0.9908447,0.5794606,-0.6584449,0.5065796,1.6546143,1.5537232,82.0
1340,0.6990967,1.1614201,-1.6467996,0.5065796,1.6546143,1.5537232,82.0
1341,0.6990967,1.1614201,-1.6467996,0.4364868,1.9456055,1.8521484,82.0
1342,1.3720338,1.5897927,-2.4622397,0.4364868,1.9456055,1.8521484,82.0
1343,1.3720338,1.5897927,-2.4622397,0.44710693,2.0911012,1.9997681,82.0
1344,2.079695,1.6271565,-2.8381026,0.44710693,2.0911012,1.9997681,82.0
1345,2.079695,1.6271565,-2.8381026,0.62127686,2.2026124,1.9445435,82.0
1346,1.8663807,1.4741983,-2.8993886,0.62127686,2.2026124,1.9445435,82.0
1347,1.8663807,1.4741983,-2.8993886,0.8007569,2.3247437,1.8563966,82.0
1348,0.87210846,1.4736214,-2.9485025,0.8007569,2.3247437,1.8563966,82.0
1349,0.87210846,1.4736214,-2.9485025,1.354065,2.4235108,1.7480713,82.0
1350,-0.31832886,1.804361,-2.921595,1.354065,2.4235108,1.7480713,82.0
1351,-0.31832886,1.804361,-2.921595,0.9653687,2.5424562,1.8882569,82.0
1352,-1.3005371,2.357063,-2.4676716,0.9653687,2.5424562,1.8882569,82.0
1353,-1.3005371,2.357063,-2.4676716,-0.63720703,2.7559204,2.4001465,82.0
1354,-1.818042,3.0193295,-1.9013224,-0.63720703,2.7559204,2.4001465,82.0
1355,-1.818042,3.0193295,-1.9013224,-2.1208375,2.8451295,2.6932619,82.0
1356,-1.827322,3.2953954,-1.793409,-2.1208375,2.8451295,2.6932619,82.0
1357,-1.827322,3.2953954,-1.793409,-2.541394,2.7909667,2.9651368,82.0
1358,-1.4505663,2.5783207,-2.1862288,-2.541394,2.7909667,2.9651368,82.0
1359,-1.4505663,2.5783207,-2.1862288,-2.0879152,2.5838745,3.2136476,82.0
1360,-0.7809851,1.5901102,-2.541903,-2.0879152,2.5838745,3.2136476,82.0
1361,-0.7809851,1.5901102,-2.541903,-1.6578003,2.3449218,3.5322511,82.0
1362,0.033219814,1.0663385,-2.5628316,-1.6578003,2.3449218,3.5322511,82.0
1363,0.033219814,1.0663385,-2.5628316,-1.1363525,2.1218994,3.5556152,82.0
1364,0.7510388,0.97488475,-2.3258147,-1.1363525,2.1218994,3.5556152,82.0
1365,0.7510388,0.97488475,-2.3258147,-0.5012695,1.8786987,3.3846314,82.0
1366,1.1456187,1.2110724,-1.9565382,-0.5012695,1.8786987,3.3846314,82.0
1367,1.1456187,1.2110724,-1.9565382,-0.07434082,1.6907227,3.158423,82.0
1368,1.1967316,1.6106915,-1.515902,-0.07434082,1.6907227,3.158423,82.0
1369,1.1967316,1.6106915,-1.515902,0.011682129,1.5590333,2.8780518,82.0
1370,0.9500365,1.8084631,-1.0689473,0.011682129,1.5590333,2.8780518,82.0
1371,0.9500365,1.8084631,-1.0689473,0.046728518,1.3689331,2.6093628,82.0
1372,0.9500365,1.8084631,-1.0689473,0.121069334,1.0949341,2.270581,82.0
1373,0.49964118,1.7494073,-0.7142768,0.121069334,1.0949341,2.270581,82.0
1374,-0.1636293,1.7179952,-0.43137026,0.121069334,1.0949341,2.270581,82.0
1375,-0.1636293,1.7179952,-0.43137026,0.1263794,0.7890747,1.8659546,82.0
1376,-0.1636293,1.7179952,-0.43137026,0.06584473,0.44498292,1.3041505,82.0
1377,-0.1636293,1.7179952,-0.43137026,0.06478272,0.070092775,0.62764895,82.0
1378,-0.19358659,1.3227482,-0.3450961,0.06478272,0.070092775,0.62764895,82.0
1379,-0.29837513,0.47543478,0.7891698,0.06478272,0.070092775,0.62764895,82.0
1380,-0.29837513,0.47543478,0.7891698,0.14868164,-0.38763428,-0.05628662,82.0
1381,-0.29837513,0.47543478,0.7891698,0.1985962,-0.7805786,-0.7678345,82.0
1382,-0.29837513,0.47543478,0.7891698,0.07540283,-1.1225464,-1.5855836,82.0
1383,-0.037528276,0.23466921,0.7786503,0.07540283,-1.1225464,-1.5855836,82.0
1384,-0.037528276,0.23466921,0.7786503,-0.10089111,-1.4432739,-2.4766114,82.0
1385,0.072748184,-0.061617374,0.6114092,-0.10089111,-1.4432739,-2.4766114,82.0
1386,0.072748184,-0.061617374,0.6114092,-0.31223145,-1.7406372,-3.2784302,82.0
1387,-0.23342752,-0.3807392,0.6672523,-0.31223145,-1.7406372,-3.2784302,82.0
1388,-0.23342752,-0.3807392,0.6672523,-0.5097656,-1.9615357,-3.8359864,82.0
1389,-0.4335804,-0.62628317,1.037708,-0.5097656,-1.9615357,-3.8359864,82.0
1390,-0.4335804,-0.62628317,1.037708,-0.631897,-2.1410158,-4.2830935,82.0
1391,0.1949935,-0.9319105,1.3630888,-0.631897,-2.1410158,-4.2830935,82.0
1392,0.1949935,-0.9319105,1.3630888,-0.632959,-2.3396118,-4.7429442,82.0
1393,1.5720224,-1.5762291,1.3238451,-0.632959,-2.3396118,-4.7429442,82.0
1394,1.5720224,-1.5762291,1.3238451,-0.41312256,-2.4957275,-5.232532,82.0
1395,2.8472543,-2.4888399,1.0427186,-0.41312256,-2.4957275,-5.232532,82.0
1396,2.8472543,-2.4888399,1.0427186,-0.19647217,-2.5052857,-5.5129027,82.0
1397,2.97784,-3.3873367,0.8798537,-0.19647217,-2.5052857,-5.5129027,82.0
1398,2.97784,-3.3873367,0.8798537,-0.011682129,-2.3258057,-5.262268,82.0
1399,1.4508877,-4.1439757,1.1852918,-0.011682129,-2.3258057,-5.262268,82.0
1400,1.4508877,-4.1439757,1.1852918,0.33665773,-2.077295,-4.4646974,82.0
1401,-1.2063432,-4.460774,1.922916,0.33665773,-2.077295,-4.4646974,82.0
1402,-1.2063432,-4.460774,1.922916,0.86766356,-1.7491333,-3.264624,82.0
1403,-3.753612,-3.661234,2.407559,0.86766356,-1.7491333,-3.264624,82.0
1404,-3.753612,-3.661234,2.407559,1.6652344,-1.7958618,-2.0560548,82.0
1405,-4.810153,-1.6675858,2.0682957,1.6652344,-1.7958618,-2.0560548,82.0
1406,-4.810153,-1.6675858,2.0682957,2.3990846,-1.9848999,-1.2542359,82.0
1407,-4.1308985,0.44981813,1.303367,2.3990846,-1.9848999,-1.2542359,82.0
1408,-4.1308985,0.44981813,1.303367,2.1325195,-1.9700317,-0.83049315,82.0
1409,-2.8283515,1.4574132,0.8683284,2.1325195,-1.9700317,-0.83049315,82.0
1410,-2.8283515,1.4574132,0.8683284,1.0694458,-1.9275513,-0.6531372,82.0
1411,-1.7284038,0.8929935,1.0016086,1.0694458,-1.9275513,-0.6531372,82.0
1412,-1.7284038,0.8929935,1.0016086,0.1539917,-1.8914429,-0.6775635,82.0
1413,-0.90418303,-0.501572,1.4394583,0.1539917,-1.8914429,-0.6775635,82.0
1414,-0.90418303,-0.501572,1.4394583,-0.91120607,-1.718335,-0.8251831,82.0
1415,-0.31471604,-1.8681278,1.8788738,-0.91120607,-1.718335,-0.8251831,82.0
1416,-0.31471604,-1.8681278,1.8788738,-1.6185058,-1.3731812,-0.98236084,82.0
1417,-0.035500884,-2.8343704,2.318004,-1.6185058,-1.3731812,-0.98236084,82.0
1418,-0.035500884,-2.8343704,2.318004,-1.6716064,-1.0333375,-1.1607789,82.0
1419,-0.13385725,-3.0094886,2.6947718,-1.6716064,-1.0333375,-1.1607789,82.0
1420,-0.13385725,-3.0094886,2.6947718,-1.4358399,-0.75721437,-1.1278565,82.0
1421,-0.3383114,-2.4915266,2.7779732,-1.4358399,-0.75721437,-1.1278565,82.0
1422,-0.3383114,-2.4915266,2.7779732,-1.0312134,-0.5766724,-0.9696167,82.0
1423,-0.1837717,-1.934005,2.5189362,-1.0312134,-0.5766724,-0.9696167,82.0
1424,-0.1837717,-1.934005,2.5189362,-0.29523927,-0.48640138,-0.74022216,82.0
1425,-0.1837717,-1.934005,2.5189362,-0.29523927,-0.48640138,-0.74022216,82.0
1426,0.40574145,-1.5742426,2.1319213,-0.29523927,-0.48640138,-0.74022216,82.0
1427,0.40574145,-1.5742426,2.1319213,0.5171997,-0.38763428,-0.48427734,82.0
1428,1.0523154,-1.2088451,1.7811718,0.5171997,-0.38763428,-0.48427734,82.0
1429,1.0523154,-1.2088451,1.7811718,1.0503296,-0.19647217,-0.2081543,82.0
1430,1.4665105,-0.77595043,1.3798203,1.0503296,-0.19647217,-0.2081543,82.0
1431,1.4665105,-0.77595043,1.3798203,1.1554688,0.07434082,0.1359375,82.0
1432,1.9199979,-0.41221523,0.8093982,1.1554688,0.07434082,0.1359375,82.0
1433,1.9199979,-0.41221523,0.8093982,1.083252,0.40993652,0.44179687,82.0
1434,1.9199979,-0.41221523,0.8093982,0.97386473,0.89421386,0.71154785,82.0
1435,2.3281615,-0.119725704,0.20619774,0.97386473,0.89421386,0.71154785,82.0
1436,0.031279087,1.9520831,-1.8740554,0.97386473,0.89421386,0.71154785,82.0
1437,0.031279087,1.9520831,-1.8740554,0.7604004,1.3466309,1.0375855,82.0
1438,0.031279087,1.9520831,-1.8740554,0.50870365,1.6801026,1.4061035,82.0
1439,0.031279087,1.9520831,-1.8740554,0.1720459,1.9424194,1.7342652,82.0
1440,0.14072156,2.2456386,-2.4840713,0.1720459,1.9424194,1.7342652,82.0
1441,0.14072156,2.2456386,-2.4840713,-0.16461182,2.066675,1.910559,82.0
1442,0.7540934,2.049038,-2.851698,-0.16461182,2.066675,1.910559,82.0
1443,0.7540934,2.049038,-2.851698,-0.35895997,2.170752,1.9700317,82.0
1444,0.953995,1.4605927,-2.9401717,-0.35895997,2.170752,1.9700317,82.0
1445,0.953995,1.4605927,-2.9401717,-0.11044922,2.2865112,1.9264892,82.0
1446,0.4827881,0.9411793,-2.8349864,-0.11044922,2.2865112,1.9264892,82.0
1447,0.4827881,0.9411793,-2.8349864,0.2814331,2.3236816,1.9317993,82.0
1448,-0.23188496,0.95872974,-2.685543,0.2814331,2.3236816,1.9317993,82.0
1449,-0.23188496,0.95872974,-2.685543,0.71367186,2.3619142,1.9647217,82.0
1450,-0.7886696,1.6613321,-2.581552,0.71367186,2.3619142,1.9647217,82.0
1451,-0.7886696,1.6613321,-2.581552,0.7051758,2.35448,2.0167603,82.0
1452,-1.1557403,2.4966438,-2.329121,0.7051758,2.35448,2.0167603,82.0
1453,-1.1557403,2.4966438,-2.329121,-0.19541016,2.4755495,2.3279297,82.0
1454,-1.2547314,3.036878,-1.9868809,-0.19541016,2.4755495,2.3279297,82.0
1455,-1.2547314,3.036878,-1.9868809,-1.3222046,2.4702394,2.541394,82.0
1456,-0.9184946,3.0274518,-2.0124905,-1.3222046,2.4702394,2.541394,82.0
1457,-0.9184946,3.0274518,-2.0124905,-1.6439942,2.4075806,2.7113159,82.0
1458,-0.23606515,2.2388926,-2.3721507,-1.6439942,2.4075806,2.7113159,82.0
1459,-0.23606515,2.2388926,-2.3721507,-1.3466309,2.2121704,2.8568115,82.0
1460,0.47882366,1.3424568,-2.6004305,-1.3466309,2.2121704,2.8568115,82.0
1461,0.47882366,1.3424568,-2.6004305,-1.0779419,2.0380006,2.897168,82.0
1462,0.93780744,0.9089997,-2.4960184,-1.0779419,2.0380006,2.897168,82.0
1463,0.93780744,0.9089997,-2.4960184,-0.72004396,1.8298463,2.8706176,82.0
1464,1.1224627,0.9837916,-2.1709847,-0.72004396,1.8298463,2.8706176,82.0
1465,1.1224627,0.9837916,-2.1709847,-0.36533204,1.6556762,2.707068,82.0
1466,1.1146572,1.3211398,-1.7184649,-0.36533204,1.6556762,2.707068,82.0
1467,1.1146572,1.3211398,-1.7184649,-0.16142578,1.5006226,2.4978516,82.0
1468,1.02582,1.6159573,-1.2454629,-0.16142578,1.5006226,2.4978516,82.0
1469,1.02582,1.6159573,-1.2454629,-0.15717773,1.354065,2.2716432,82.0
1470,0.90338326,1.6759324,-0.86494946,-0.15717773,1.354065,2.2716432,82.0
1471,0.90338326,1.6759324,-0.86494946,-0.16248779,1.1682129,1.9976441,82.0
1472,0.81317306,1.5055532,-0.5841837,-0.16248779,1.1682129,1.9976441,82.0
1473,0.81317306,1.5055532,-0.5841837,-0.093457036,0.91014403,1.6535523,82.0
1474,0.819911,1.1908927,-0.3767829,-0.093457036,0.91014403,1.6535523,82.0
1475,0.819911,1.1908927,-0.3767829,0.047790527,0.6446411,1.2170655,82.0
1476,0.68158793,0.93044853,-0.14715385,0.047790527,0.6446411,1.2170655,82.0
1477,0.68158793,0.93044853,-0.14715385,0.1731079,0.35152587,0.8209351,82.0
1478,0.18198895,0.8958602,0.20009899,0.1731079,0.35152587,0.8209351,82.0
1479,0.18198895,0.8958602,0.20009899,0.17523193,0.11469727,0.47365722,82.0
1480,-0.14247036,0.98498654,0.49800634,0.17523193,0.11469727,0.47365722,82.0
1481,-0.14247036,0.98498654,0.49800634,0.038232423,-0.14761963,0.06690674,82.0
1482,0.2697029,0.91529655,0.5236616,0.038232423,-0.14761963,0.06690674,82.0
1483,0.2697029,0.91529655,0.5236616,-0.14655761,-0.40144044,-0.5511841,82.0
1484,0.8514924,0.6045518,0.33622646,-0.14655761,-0.40144044,-0.5511841,82.0
1485,0.8514924,0.6045518,0.33622646,-0.4343628,-0.65632325,-1.3232666,82.0
1486,0.67114735,0.1849966,0.2816887,-0.4343628,-0.65632325,-1.3232666,82.0
1487,0.67114735,0.1849966,0.2816887,-0.8028809,-0.8889038,-2.0634887,82.0
1488,-0.13661718,-0.18906307,0.5690522,-0.8028809,-0.8889038,-2.0634887,82.0
1489,-0.13661718,-0.18906307,0.5690522,-1.1682129,-1.1066163,-2.6837037,82.0
1490,-0.5384686,-0.51372623,1.0321703,-1.1682129,-1.1066163,-2.6837037,82.0
1491,-0.5384686,-0.51372623,1.0321703,-1.3349488,-1.3073364,-3.2359498,82.0
1492,-0.17990828,-0.86630344,1.3987341,-1.3349488,-1.3073364,-3.2359498,82.0
1493,-0.17990828,-0.86630344,1.3987341,-1.2850342,-1.4900025,-3.7743897,82.0
1494,0.3782537,-1.2262824,1.5792289,-1.2850342,-1.4900025,-3.7743897,82.0
1495,0.3782537,-1.2262824,1.5792289,-1.2064453,-1.6206299,-4.229993,82.0
1496,0.5478544,-1.5659869,1.6153486,-1.2064453,-1.6206299,-4.229993,82.0
1497,0.5478544,-1.5659869,1.6153486,-1.089624,-1.6514282,-4.431775,82.0
1498,-0.008201122,-1.8435733,1.5504087,-1.089624,-1.6514282,-4.431775,82.0
1499,-0.008201122,-1.8435733,1.5504087,-0.9303223,-1.622754,-4.3510623,82.0
1500,-1.1831112,-1.993865,1.50312,-0.9303223,-1.622754,-4.3510623,82.0
1501,-1.1831112,-1.993865,1.50312,-0.72216797,-1.5335449,-4.076001,82.0
1502,-2.4396775,-2.0455804,1.6235775,-0.72216797,-1.5335449,-4.076001,82.0
1503,-2.4396775,-2.0455804,1.6235775,-0.3419678,-1.4061035,-3.6639404,82.0
1504,-3.2981899,-1.9842304,1.81561,-0.3419678,-1.4061035,-3.6639404,82.0
1505,-3.2981899,-1.9842304,1.81561,-0.22302246,-1.2892822,-3.1913452,82.0
1506,-3.358718,-1.8108218,1.7414408,-0.22302246,-1.2892822,-3.1913452,82.0
1507,-3.358718,-1.8108218,1.7414408,-0.50020754,-1.1809571,-2.6635253,82.0
1508,-3.358718,-1.8108218,1.7414408,-0.50020754,-1.1809571,-2.6635253,81.0
1509,-2.6399775,-1.8421633,1.4275154,-0.50020754,-1.1809571,-2.6635253,81.0
1510,-2.6399775,-1.8421633,1.4275154,-0.5533081,-1.1926392,-2.3247437,81.0
1511,-1.5252633,-2.1182618,1.1988361,-0.5533081,-1.1926392,-2.3247437,81.0
1512,-1.5252633,-2.1182618,1.1988361,-0.61278075,-1.1427246,-2.1303957,81.0
1513,-0.3755817,-2.5267506,1.2506826,-0.61278075,-1.1427246,-2.1303957,81.0
1514,-0.3755817,-2.5267506,1.2506826,-0.51932377,-1.0662597,-2.0103881,81.0
1515,0.43727878,-3.0776138,1.6298063,-0.51932377,-1.0662597,-2.0103881,81.0
1516,0.43727878,-3.0776138,1.6298063,-0.45772704,-0.9239502,-1.9116211,81.0
1517,0.7496643,-3.443634,2.076843,-0.45772704,-0.9239502,-1.9116211,81.0
1518,0.7496643,-3.443634,2.076843,-0.75721437,-0.630835,-1.716211,81.0
1519,0.5538818,-3.4454834,2.3162107,-0.75721437,-0.630835,-1.716211,81.0
1520,0.5538818,-3.4454834,2.3162107,-1.0673218,-0.32285157,-1.2935303,81.0
1521,0.1109277,-3.075674,2.2566674,-1.0673218,-0.32285157,-1.2935303,81.0
1522,0.1109277,-3.075674,2.2566674,-1.1809571,-0.10089111,-0.8442993,81.0
1523,-0.16700739,-2.3562794,1.872839,-1.1809571,-0.10089111,-0.8442993,81.0
1524,-0.16700739,-2.3562794,1.872839,-1.1246704,-0.008496094,-0.45666504,81.0
1525,-0.055761695,-1.6755877,1.1776171,-1.1246704,-0.008496094,-0.45666504,81.0
1526,-0.055761695,-1.6755877,1.1776171,-0.81881106,0.07434082,-0.17735596,81.0
1527,0.27742434,-1.4099526,0.4292519,-0.81881106,0.07434082,-0.17735596,81.0
1528,0.27742434,-1.4099526,0.4292519,-0.48746338,0.124255374,0.078588866,81.0
1529,0.6358189,-1.3862505,-0.104450226,-0.48746338,0.124255374,0.078588866,81.0
1530,0.6358189,-1.3862505,-0.104450226,-0.3971924,0.2527588,0.3993164,81.0
1531,1.2569584,-1.4177284,-0.42883587,-0.3971924,0.2527588,0.3993164,81.0
1532,1.2569584,-1.4177284,-0.42883587,-0.23045655,0.3706421,0.7051758,81.0
1533,2.1169682,-1.3419709,-0.6350243,-0.23045655,0.3706421,0.7051758,81.0
1534,2.1169682,-1.3419709,-0.6350243,0.059472658,0.5363159,0.99085695,81.0
1535,2.1472366,-0.68798065,-0.7662835,0.059472658,0.5363159,0.99085695,81.0
1536,2.1472366,-0.68798065,-0.7662835,0.16567384,0.72641605,1.4241577,81.0
1537,0.82784796,0.6317196,-0.8419697,0.16567384,0.72641605,1.4241577,81.0
1538,0.82784796,0.6317196,-0.8419697,0.2357666,0.87403566,1.8744507,81.0
1539,-0.6126485,1.984221,-0.9518471,0.2357666,0.87403566,1.8744507,81.0
1540,-0.6126485,1.984221,-0.9518471,0.41737062,0.83474123,2.2323487,81.0
1541,-0.84124184,2.6845326,-1.2043853,0.41737062,0.83474123,2.2323487,81.0
1542,-0.84124184,2.6845326,-1.2043853,0.71154785,0.7126099,2.3895264,81.0
1543,0.045976162,2.52287,-1.4859693,0.71154785,0.7126099,2.3895264,81.0
1544,0.045976162,2.52287,-1.4859693,1.1607789,0.69136965,2.4182007,81.0
1545,0.94509387,1.9567604,-1.5544981,1.1607789,0.69136965,2.4182007,81.0
1546,0.94509387,1.9567604,-1.5544981,1.5972656,0.7604004,2.4489992,81.0
1547,1.1264365,1.6289215,-1.4611645,1.5972656,0.7604004,2.4489992,81.0
1548,1.1264365,1.6289215,-1.4611645,1.7512573,0.9409424,2.4914796,81.0
1549,0.68695235,1.8961792,-1.3945297,1.7512573,0.9409424,2.4914796,81.0
1550,0.68695235,1.8961792,-1.3945297,1.6662964,1.1533448,2.6815796,81.0
1551,0.067738056,2.610315,-1.4408923,1.6662964,1.1533448,2.6815796,81.0
1552,0.067738056,2.610315,-1.4408923,1.6121339,1.3179566,2.8525636,81.0
1553,-0.42087054,3.344905,-1.6132975,1.6121339,1.3179566,2.8525636,81.0
1554,-0.42087054,3.344905,-1.6132975,1.4528321,1.454956,3.0224855,81.0
1555,-0.69610786,3.7585168,-1.8119637,1.4528321,1.454956,3.0224855,81.0
1556,-0.69610786,3.7585168,-1.8119637,1.178833,1.5749635,3.167981,81.0
1557,-0.7465713,3.6639667,-1.9242536,1.178833,1.5749635,3.167981,81.0
1558,-0.7465713,3.6639667,-1.9242536,0.92076415,1.6556762,3.2932985,81.0
1559,-0.52772593,3.214694,-1.9435167,0.92076415,1.6556762,3.2932985,81.0
1560,-0.52772593,3.214694,-1.9435167,0.6956177,1.6790406,3.3602052,81.0
1561,-0.07780814,2.723672,-1.8975868,0.6956177,1.6790406,3.3602052,81.0
1562,-0.07780814,2.723672,-1.8975868,0.4991455,1.6832886,3.330469,81.0
1563,0.3937838,2.3344429,-1.8155181,0.4991455,1.6832886,3.330469,81.0
1564,0.3937838,2.3344429,-1.8155181,0.3791382,1.6418701,3.1870973,81.0
1565,0.6778321,2.0564947,-1.6900976,0.3791382,1.6418701,3.1870973,81.0
1566,0.6778321,2.0564947,-1.6900976,0.22939454,1.5887696,2.9587648,81.0
1567,0.7045703,1.8727226,-1.5224152,0.22939454,1.5887696,2.9587648,81.0
1568,0.7045703,1.8727226,-1.5224152,-0.03717041,1.5112427,2.6911378,81.0
1569,0.7045703,1.8727226,-1.5224152,-0.23045655,1.4061035,2.3948364,81.0
1570,0.47428846,1.6996186,-1.3415039,-0.23045655,1.4061035,2.3948364,81.0
1571,-0.20452929,1.6985378,-1.0690162,-0.23045655,1.4061035,2.3948364,81.0
1572,-0.20452929,1.6985378,-1.0690162,-0.51826173,1.2776002,2.0220704,81.0
1573,-0.20452929,1.6985378,-1.0690162,-0.77102053,1.0503296,1.544165,81.0
1574,-0.20452929,1.6985378,-1.0690162,-0.903772,0.78376466,0.93350834,81.0
1575,-0.09963417,1.1941333,-0.7251227,-0.903772,0.78376466,0.93350834,81.0
1576,-0.09963417,1.1941333,-0.7251227,-0.9239502,0.42799073,0.2347046,81.0
1577,-0.13721466,0.72337294,-0.25229073,-0.9239502,0.42799073,0.2347046,81.0
1578,-0.13721466,0.72337294,-0.25229073,-0.8442993,0.05628662,-0.50020754,81.0
1579,-0.27609253,0.34160137,0.35399008,-0.8442993,0.05628662,-0.50020754,81.0
1580,-0.27609253,0.34160137,0.35399008,-0.6924316,-0.33240968,-1.2202514,81.0
1581,-0.14412832,0.01999712,0.88977146,-0.6924316,-0.33240968,-1.2202514,81.0
1582,-0.14412832,0.01999712,0.88977146,-0.47790527,-0.72641605,-1.9774659,81.0
1583,0.3898487,-0.2111144,1.1184089,-0.47790527,-0.72641605,-1.9774659,81.0
1584,0.3898487,-0.2111144,1.1184089,-0.33028564,-1.081128,-2.800525,81.0
1585,0.899379,-0.34025383,1.0462165,-0.33028564,-1.081128,-2.800525,81.0
1586,0.899379,-0.34025383,1.0462165,-0.4088745,-1.3954834,-3.5768554,81.0
1587,0.9142418,-0.5356431,0.9520366,-0.4088745,-1.3954834,-3.5768554,81.0
1588,0.9142418,-0.5356431,0.9520366,-0.55755615,-1.6503662,-4.2034426,81.0
1589,0.59064627,-0.8804431,1.0994225,-0.55755615,-1.6503662,-4.2034426,81.0
1590,0.59064627,-0.8804431,1.0994225,-0.62764895,-1.8595825,-4.676038,81.0
1591,0.6050854,-1.3490076,1.3757172,-0.62764895,-1.8595825,-4.676038,81.0
1592,0.6050854,-1.3490076,1.3757172,-0.52675784,-2.0454347,-5.0052614,81.0
1593,1.2650375,-1.9597969,1.454956,-0.52675784,-2.0454347,-5.0052614,81.0
1594,1.2650375,-1.9597969,1.454956,-0.2442627,-2.166504,-5.160315,81.0
1595,2.0310001,-2.686612,1.2330688,-0.2442627,-2.166504,-5.160315,81.0
1596,2.0310001,-2.686612,1.2330688,0.12956543,-2.083667,-5.053052,81.0
1597,1.914876,-3.506907,1.0530689,0.12956543,-2.083667,-5.053052,81.0
1598,1.914876,-3.506907,1.0530689,0.72004396,-1.8733886,-4.434961,81.0
1599,0.42475986,-4.1162558,1.1918081,0.72004396,-1.8733886,-4.434961,81.0
1600,0.42475986,-4.1162558,1.1918081,1.2956543,-1.6248779,-3.449414,81.0
1601,-1.8421621,-3.7533438,1.3531902,1.2956543,-1.6248779,-3.449414,81.0
1602,-1.8421621,-3.7533438,1.3531902,1.7703736,-1.5717773,-2.3024414,81.0
1603,-3.4942863,-2.0738788,1.2407919,1.7703736,-1.5717773,-2.3024414,81.0
1604,-3.4942863,-2.0738788,1.2407919,2.3417358,-1.532483,-1.4517701,81.0
1605,-3.797541,0.16531116,1.0238469,2.3417358,-1.532483,-1.4517701,81.0
1606,-3.797541,0.16531116,1.0238469,2.160132,-1.5505371,-1.0439576,81.0
1607,-3.2693315,1.8369609,0.88027143,2.160132,-1.5505371,-1.0439576,81.0
1608,-3.2693315,1.8369609,0.88027143,0.49171144,-1.3413209,-0.88996583,81.0
1609,-2.5900016,1.8824105,0.88388026,0.49171144,-1.3413209,-0.88996583,81.0
1610,-2.5900016,1.8824105,0.88388026,-1.3763672,-1.1331666,-1.0524536,81.0
1611,-1.9736004,0.31673163,0.99948704,-1.3763672,-1.1331666,-1.0524536,81.0
1612,-1.9736004,0.31673163,0.99948704,-2.7782228,-1.0280274,-1.2064453,81.0
1613,-1.3561141,-1.840621,1.0571947,-2.7782228,-1.0280274,-1.2064453,81.0
1614,-1.3561141,-1.840621,1.0571947,-3.5428712,-0.8219971,-1.3838013,81.0
1615,-0.7194251,-3.7620964,1.0126991,-3.5428712,-0.8219971,-1.3838013,81.0
