,accx,accy,accz,gyrox,gyroy,gyroz,heart rate
0,walk,walk,walk,walk,walk,walk,walk
1,0.18741456,0.21141358,-0.20856935,0.0,0.0,0.0,0.0
2,0.18741456,0.21141358,-0.20856935,-0.21983643,0.1444336,0.0053100586,0.0
3,0.052055664,-0.050192866,-0.4465674,-0.21983643,0.1444336,0.0053100586,0.0
4,0.052055664,-0.050192866,-0.4465674,-0.078588866,0.08814698,0.045666505,0.0
5,-0.05183691,-0.114580564,-0.37637013,-0.078588866,0.08814698,0.045666505,0.0
6,-0.05183691,-0.114580564,-0.37637013,0.050976563,0.014868164,0.04885254,0.0
7,-0.05183691,-0.114580564,-0.37637013,0.050976563,0.014868164,0.04885254,71.0
8,-0.12290264,-0.0010638665,-0.18587393,0.050976563,0.014868164,0.04885254,71.0
9,-0.12290264,-0.0010638665,-0.18587393,0.08071289,-0.029736329,0.04248047,71.0
10,-0.16914731,0.119644515,-0.013860285,0.08071289,-0.029736329,0.04248047,71.0
11,-0.16914731,0.119644515,-0.013860285,0.06690674,-0.06796875,0.03079834,71.0
12,-0.19448534,0.13414335,0.095308244,0.06690674,-0.06796875,0.03079834,71.0
13,-0.19448534,0.13414335,0.095308244,0.028674318,-0.10089111,0.012744141,71.0
14,-0.15856677,0.054787822,0.14034572,0.028674318,-0.10089111,0.012744141,71.0
15,-0.15856677,0.054787822,0.14034572,0.007434082,-0.121069334,0.008496094,71.0
16,-0.15856677,0.054787822,0.14034572,0.02442627,-0.13487549,0.012744141,71.0
17,-0.07178751,-0.065459296,0.14452757,0.02442627,-0.13487549,0.012744141,71.0
18,0.0088175535,-0.143969,0.13669139,0.02442627,-0.13487549,0.012744141,71.0
19,0.0088175535,-0.143969,0.13669139,0.046728518,-0.14018555,0.027612304,71.0
20,0.056944177,-0.1478168,0.14358164,0.046728518,-0.14018555,0.027612304,71.0
21,0.056944177,-0.1478168,0.14358164,0.0637207,-0.1359375,0.02442627,71.0
22,0.09020866,-0.07955715,0.18610555,0.0637207,-0.1359375,0.02442627,71.0
23,0.09020866,-0.07955715,0.18610555,0.039294433,-0.11044922,0.015930176,71.0
24,0.117589295,-0.011594944,0.24727312,0.039294433,-0.11044922,0.015930176,71.0
25,0.117589295,-0.011594944,0.24727312,-0.0021240234,-0.07540283,0.004248047,71.0
26,0.13265786,0.011768967,0.26763052,-0.0021240234,-0.07540283,0.004248047,71.0
27,0.13265786,0.011768967,0.26763052,-0.03079834,-0.038232423,-0.0010620117,71.0
28,0.13384846,0.0023839232,0.24832073,-0.03079834,-0.038232423,-0.0010620117,71.0
29,0.13384846,0.0023839232,0.24832073,-0.035046387,-0.007434082,-0.0031860352,71.0
30,0.1175524,0.026882725,0.19388363,-0.035046387,-0.007434082,-0.0031860352,71.0
31,0.1175524,0.026882725,0.19388363,-0.047790527,0.020178223,-0.004248047,71.0
32,0.0809804,0.09784895,0.11149119,-0.047790527,0.020178223,-0.004248047,71.0
33,0.0809804,0.09784895,0.11149119,-0.06478272,0.04141846,-0.008496094,71.0
34,0.02701576,0.13133092,0.027071372,-0.06478272,0.04141846,-0.008496094,71.0
35,0.02701576,0.13133092,0.027071372,-0.06584473,0.047790527,-0.009558106,71.0
36,-0.022625674,0.11036259,-0.031138316,-0.06584473,0.047790527,-0.009558106,71.0
37,-0.022625674,0.11036259,-0.031138316,-0.050976563,0.04885254,-0.0063720704,71.0
38,-0.06661128,0.064413115,-0.056807622,-0.050976563,0.04885254,-0.0063720704,71.0
39,-0.06661128,0.064413115,-0.056807622,-0.03079834,0.039294433,-0.010620117,71.0
40,-0.091899864,0.001017794,-0.05183038,-0.03079834,0.039294433,-0.010620117,71.0
41,-0.091899864,0.001017794,-0.05183038,-0.0010620117,0.023364259,-0.0063720704,71.0
42,-0.068380736,-0.035635956,-0.028170854,-0.0010620117,0.023364259,-0.0063720704,71.0
43,-0.068380736,-0.035635956,-0.028170854,0.0031860352,0.009558106,0.0010620117,71.0
44,-0.021928709,-0.025749974,-0.014394596,0.0031860352,0.009558106,0.0010620117,71.0
45,-0.021928709,-0.025749974,-0.014394596,-0.0021240234,-0.0010620117,0.008496094,71.0
46,0.014598146,-0.030512087,-0.0140669495,-0.0021240234,-0.0010620117,0.008496094,71.0
47,0.014598146,-0.030512087,-0.0140669495,0.0031860352,-0.010620117,0.012744141,71.0
48,0.04563848,-0.053816408,-0.017772116,0.0031860352,-0.010620117,0.012744141,71.0
49,0.04563848,-0.053816408,-0.017772116,0.0053100586,-0.013806152,0.0180542,71.0
50,0.04563848,-0.053816408,-0.017772116,0.007434082,-0.010620117,0.023364259,71.0
51,0.07811235,-0.061327055,-0.008968674,0.007434082,-0.010620117,0.023364259,71.0
52,0.09674281,-0.04735266,0.0013333634,0.007434082,-0.010620117,0.023364259,71.0
53,0.09674281,-0.04735266,0.0013333634,0.0,-0.0031860352,0.020178223,71.0
54,0.10035567,-0.026578417,-0.0072218776,0.0,-0.0031860352,0.020178223,71.0
55,0.10035567,-0.026578417,-0.0072218776,-0.012744141,0.009558106,0.0180542,71.0
56,0.069688834,-0.017686073,-0.036807775,-0.012744141,0.009558106,0.0180542,71.0
57,0.069688834,-0.017686073,-0.036807775,-0.014868164,0.011682129,0.014868164,71.0
58,0.015126064,-0.0069589177,-0.06786174,-0.014868164,0.011682129,0.014868164,71.0
59,0.015126064,-0.0069589177,-0.06786174,-0.007434082,0.009558106,0.013806152,71.0
60,-0.028731667,0.020714603,-0.07352768,-0.007434082,0.009558106,0.013806152,71.0
61,-0.028731667,0.020714603,-0.07352768,-0.012744141,0.0063720704,0.0063720704,71.0
62,-0.036046855,0.05441348,-0.062594116,-0.012744141,0.0063720704,0.0063720704,71.0
63,-0.036046855,0.05441348,-0.062594116,-0.0180542,0.0063720704,0.0010620117,71.0
64,-0.041068934,0.06228078,-0.046083592,-0.0180542,0.0063720704,0.0010620117,71.0
65,-0.041068934,0.06228078,-0.046083592,-0.011682129,-0.0010620117,-0.0021240234,71.0
66,-0.052166674,0.04951945,-0.029005546,-0.011682129,-0.0010620117,-0.0021240234,71.0
67,-0.052166674,0.04951945,-0.029005546,-0.011682129,-0.008496094,-0.009558106,71.0
68,-0.052166674,0.04951945,-0.029005546,-0.02442627,-0.010620117,-0.015930176,71.0
69,-0.057101995,0.03251107,-0.012157075,-0.02442627,-0.010620117,-0.015930176,71.0
70,-0.047170855,0.019978583,0.0040316656,-0.02442627,-0.010620117,-0.015930176,71.0
71,-0.047170855,0.019978583,0.0040316656,-0.025488282,-0.012744141,-0.019116212,71.0
72,-0.023161488,-0.007064007,0.029946525,-0.025488282,-0.012744141,-0.019116212,71.0
73,-0.023161488,-0.007064007,0.029946525,-0.015930176,-0.012744141,-0.020178223,71.0
74,-5.9951097E-5,-0.040819664,0.05883271,-0.015930176,-0.012744141,-0.020178223,71.0
75,-5.9951097E-5,-0.040819664,0.05883271,0.0,-0.009558106,-0.0180542,71.0
76,0.0074715707,-0.061488736,0.06394849,0.0,-0.009558106,-0.0180542,71.0
77,0.0074715707,-0.061488736,0.06394849,0.007434082,-0.004248047,-0.0180542,71.0
78,0.0057453234,-0.045748606,0.059068948,0.007434082,-0.004248047,-0.0180542,71.0
79,0.0057453234,-0.045748606,0.059068948,-0.0063720704,0.0031860352,-0.0180542,71.0
80,0.005060125,-0.03620826,0.043214634,-0.0063720704,0.0031860352,-0.0180542,71.0
81,0.005060125,-0.03620826,0.043214634,-0.014868164,0.010620117,-0.014868164,71.0
82,0.0017287657,-0.051549617,0.019239679,-0.014868164,0.010620117,-0.014868164,71.0
83,0.0017287657,-0.051549617,0.019239679,-0.012744141,0.014868164,-0.0053100586,71.0
84,0.0020544007,-0.06405464,-0.0075940937,-0.012744141,0.014868164,-0.0053100586,71.0
85,0.0020544007,-0.06405464,-0.0075940937,-0.008496094,0.014868164,0.0,71.0
86,0.0015946925,-0.051255915,-0.03289412,-0.008496094,0.014868164,0.0,71.0
87,0.0015946925,-0.051255915,-0.03289412,-0.007434082,0.011682129,0.0053100586,71.0
88,-0.014105106,-0.0060437955,-0.05351256,-0.007434082,0.011682129,0.0053100586,71.0
89,-0.014105106,-0.0060437955,-0.05351256,-0.022302246,0.011682129,0.004248047,71.0
90,-0.038920805,0.02034807,-0.06767577,-0.022302246,0.011682129,0.004248047,71.0
91,-0.038920805,0.02034807,-0.06767577,-0.035046387,0.0063720704,0.004248047,71.0
92,-0.04003557,0.022577286,-0.08312011,-0.035046387,0.0063720704,0.004248047,71.0
93,-0.04003557,0.022577286,-0.08312011,-0.033984374,0.0021240234,0.0,71.0
94,-0.016647598,0.016474914,-0.08354931,-0.033984374,0.0021240234,0.0,71.0
95,-0.016647598,0.016474914,-0.08354931,-0.03186035,-0.009558106,-0.004248047,71.0
96,-0.015222374,0.019783936,-0.06939072,-0.03186035,-0.009558106,-0.004248047,71.0
97,-0.015222374,0.019783936,-0.06939072,-0.035046387,-0.016992187,-0.007434082,71.0
98,-0.031379562,0.046747558,-0.0326366,-0.035046387,-0.016992187,-0.007434082,71.0
99,-0.031379562,0.046747558,-0.0326366,-0.050976563,-0.040356446,-0.016992187,71.0
100,-0.0068663443,0.0744708,0.0100967735,-0.050976563,-0.040356446,-0.016992187,71.0
101,-0.0068663443,0.0744708,0.0100967735,-0.06584473,-0.057348635,-0.03186035,71.0
102,0.06517343,0.12169823,0.034823023,-0.06584473,-0.057348635,-0.03186035,71.0
103,0.06517343,0.12169823,0.034823023,-0.08814698,-0.053100586,-0.014868164,71.0
104,0.12291512,0.19038837,0.026906272,-0.08814698,-0.053100586,-0.014868164,71.0
105,0.12291512,0.19038837,0.026906272,-0.098767094,-0.070092775,0.0010620117,71.0
106,0.17222124,0.28486684,-0.015669806,-0.098767094,-0.070092775,0.0010620117,71.0
107,0.17222124,0.28486684,-0.015669806,-0.1359375,-0.0998291,-0.025488282,71.0
108,0.25535512,0.39918256,-0.08837813,-0.1359375,-0.0998291,-0.025488282,71.0
109,0.25535512,0.39918256,-0.08837813,-0.19541016,-0.11044922,-0.070092775,71.0
110,0.34644717,0.5170145,-0.17673278,-0.19541016,-0.11044922,-0.070092775,71.0
111,0.34644717,0.5170145,-0.17673278,-0.28674316,-0.093457036,-0.11682129,71.0
112,0.37802446,0.55911946,-0.3154707,-0.28674316,-0.093457036,-0.11682129,71.0
113,0.37802446,0.55911946,-0.3154707,-0.41312256,-0.06903076,-0.18160401,71.0
114,0.33652604,0.39307195,-0.49781114,-0.41312256,-0.06903076,-0.18160401,71.0
115,0.33652604,0.39307195,-0.49781114,-0.45454103,-0.087084964,-0.25913087,71.0
116,0.24673551,0.099882364,-0.5778998,-0.45454103,-0.087084964,-0.25913087,71.0
117,0.24673551,0.099882364,-0.5778998,-0.4354248,-0.12956543,-0.32285157,71.0
118,0.14035714,-0.08307016,-0.47379446,-0.4354248,-0.12956543,-0.32285157,71.0
119,0.14035714,-0.08307016,-0.47379446,-0.44923097,-0.15611573,-0.36745605,71.0
120,0.14035714,-0.08307016,-0.47379446,-0.44923097,-0.15611573,-0.36745605,77.0
121,0.028252482,-0.09820658,-0.28059804,-0.44923097,-0.15611573,-0.36745605,77.0
122,0.028252482,-0.09820658,-0.28059804,-0.5161377,-0.19541016,-0.4258667,77.0
123,-0.06830379,-0.088965654,-0.101346135,-0.5161377,-0.19541016,-0.4258667,77.0
124,-0.06830379,-0.088965654,-0.101346135,-0.5649902,-0.25806886,-0.47896728,77.0
125,-0.14066598,-0.17205143,0.055959225,-0.5649902,-0.25806886,-0.47896728,77.0
126,-0.14066598,-0.17205143,0.055959225,-0.542688,-0.37595215,-0.5341919,77.0
127,-0.16958845,-0.35116655,0.26709402,-0.542688,-0.37595215,-0.5341919,77.0
128,-0.16958845,-0.35116655,0.26709402,-0.44498292,-0.49171144,-0.56817627,77.0
129,-0.15033141,-0.50408995,0.5430697,-0.44498292,-0.49171144,-0.56817627,77.0
130,-0.15033141,-0.50408995,0.5430697,-0.34833986,-0.5501221,-0.5522461,77.0
131,-0.13968652,-0.45876515,0.7431472,-0.34833986,-0.5501221,-0.5522461,77.0
132,-0.13968652,-0.45876515,0.7431472,-0.3440918,-0.59260255,-0.53737795,77.0
133,-0.11282343,-0.2659257,0.7497058,-0.3440918,-0.59260255,-0.53737795,77.0
134,-0.11282343,-0.2659257,0.7497058,-0.4056885,-0.62127686,-0.5564942,77.0
135,-0.0019408762,-0.13496956,0.6387051,-0.4056885,-0.62127686,-0.5564942,77.0
136,-0.0019408762,-0.13496956,0.6387051,-0.41524658,-0.6117188,-0.52038574,77.0
137,0.16539067,-0.17654255,0.53644013,-0.41524658,-0.6117188,-0.52038574,77.0
138,0.16539067,-0.17654255,0.53644013,-0.34940186,-0.5692383,-0.43861085,77.0
139,0.27465874,-0.30676138,0.47602713,-0.34940186,-0.5692383,-0.43861085,77.0
140,0.27465874,-0.30676138,0.47602713,-0.23258057,-0.5076416,-0.3164795,77.0
141,0.26680952,-0.32414445,0.38221332,-0.23258057,-0.5076416,-0.3164795,77.0
142,0.26680952,-0.32414445,0.38221332,-0.095581055,-0.45878908,-0.25806886,77.0
143,0.20150912,-0.13341224,0.17621744,-0.095581055,-0.45878908,-0.25806886,77.0
144,0.20150912,-0.13341224,0.17621744,0.020178223,-0.38975832,-0.23364258,77.0
145,0.09099245,0.119893745,-0.13837177,0.020178223,-0.38975832,-0.23364258,77.0
146,0.09099245,0.119893745,-0.13837177,0.08071289,-0.3090454,-0.2357666,77.0
147,-0.10193747,0.2172651,-0.4468058,0.08071289,-0.3090454,-0.2357666,77.0
148,-0.10193747,0.2172651,-0.4468058,0.1263794,-0.27399904,-0.30054933,77.0
149,-0.27196747,0.07202985,-0.5958724,0.1263794,-0.27399904,-0.30054933,77.0
150,-0.27196747,0.07202985,-0.5958724,0.21452637,-0.26762697,-0.37807617,77.0
151,-0.3526692,-0.1202814,-0.53962517,0.21452637,-0.26762697,-0.37807617,77.0
152,-0.3526692,-0.1202814,-0.53962517,0.28674316,-0.25806886,-0.42374268,77.0
153,-0.36857337,-0.14165968,-0.41064298,0.28674316,-0.25806886,-0.42374268,77.0
154,-0.36857337,-0.14165968,-0.41064298,0.24638672,-0.24320069,-0.4885254,77.0
155,-0.32917267,0.024868052,-0.33602172,0.24638672,-0.24320069,-0.4885254,77.0
156,-0.32917267,0.024868052,-0.33602172,0.09664307,-0.22302246,-0.58410645,77.0
157,-0.2623616,0.19482121,-0.24913965,0.09664307,-0.22302246,-0.58410645,77.0
158,-0.2623616,0.19482121,-0.24913965,-0.040356446,-0.21134034,-0.66269535,77.0
159,-0.15958409,0.21886966,-0.07787618,-0.040356446,-0.21134034,-0.66269535,77.0
160,-0.15958409,0.21886966,-0.07787618,-0.15505372,-0.19541016,-0.73703617,77.0
161,0.041339077,0.12085989,0.14337532,-0.15505372,-0.19541016,-0.73703617,77.0
162,0.041339077,0.12085989,0.14337532,-0.19434814,-0.1539917,-0.76464844,77.0
163,0.289541,0.036372975,0.32040095,-0.19434814,-0.1539917,-0.76464844,77.0
164,0.289541,0.036372975,0.32040095,-0.19753419,-0.11469727,-0.72216797,77.0
165,0.443437,0.10943285,0.38818112,-0.19753419,-0.11469727,-0.72216797,77.0
166,0.443437,0.10943285,0.38818112,-0.15823975,-0.09451904,-0.64782715,77.0
167,0.47049668,0.3167577,0.3372661,-0.15823975,-0.09451904,-0.64782715,77.0
168,0.47049668,0.3167577,0.3372661,-0.14337158,-0.081774905,-0.5703003,77.0
169,0.44800377,0.51920205,0.2302621,-0.14337158,-0.081774905,-0.5703003,77.0
170,0.44800377,0.51920205,0.2302621,-0.17523193,-0.06159668,-0.5331299,77.0
171,0.4481247,0.6413626,0.0814753,-0.17523193,-0.06159668,-0.5331299,77.0
172,0.4481247,0.6413626,0.0814753,-0.21558838,-0.004248047,-0.54375,77.0
173,0.43017942,0.6102825,-0.12454145,-0.21558838,-0.004248047,-0.54375,77.0
174,0.43017942,0.6102825,-0.12454145,-0.20284425,0.04885254,-0.5649902,77.0
175,0.32054734,0.40481538,-0.32597592,-0.20284425,0.04885254,-0.5649902,77.0
176,0.32054734,0.40481538,-0.32597592,-0.1178833,0.04885254,-0.6053467,77.0
177,0.17944813,0.1755979,-0.4119038,-0.1178833,0.04885254,-0.6053467,77.0
178,0.17944813,0.1755979,-0.4119038,-0.023364259,0.022302246,-0.6701294,77.0
179,0.10057759,0.07767314,-0.37866855,-0.023364259,0.022302246,-0.6701294,77.0
180,0.10057759,0.07767314,-0.37866855,-0.014868164,0.03079834,-0.721106,77.0
181,0.04288882,0.02292949,-0.26664335,-0.014868164,0.03079834,-0.721106,77.0
182,0.04288882,0.02292949,-0.26664335,-0.07434082,0.046728518,-0.7625244,77.0
183,-0.03430468,-0.12080437,-0.11809984,-0.07434082,0.046728518,-0.7625244,77.0
184,-0.03430468,-0.12080437,-0.11809984,-0.09451904,0.04885254,-0.8050049,77.0
185,-0.06783682,-0.1884892,0.071963,-0.09451904,0.04885254,-0.8050049,77.0
186,-0.06783682,-0.1884892,0.071963,-0.1274414,0.033984374,-0.86978763,77.0
187,-0.015048265,-0.071946144,0.23996787,-0.1274414,0.033984374,-0.86978763,77.0
188,-0.015048265,-0.071946144,0.23996787,-0.24532472,0.021240234,-0.9494385,77.0
189,0.067294836,-0.059693158,0.3391789,-0.24532472,0.021240234,-0.9494385,77.0
190,0.067294836,-0.059693158,0.3391789,-0.26975098,-0.012744141,-0.991919,77.0
191,0.10664344,-0.28826964,0.51216346,-0.26975098,-0.012744141,-0.991919,77.0
192,0.10664344,-0.28826964,0.51216346,-0.20921631,-0.0637207,-0.97280276,77.0
193,0.020446599,-0.5244878,0.90605646,-0.20921631,-0.0637207,-0.97280276,77.0
194,0.020446599,-0.5244878,0.90605646,-0.1263794,-0.16673584,-0.97492677,77.0
195,-0.081213534,-0.5596293,1.3692788,-0.1263794,-0.16673584,-0.97492677,77.0
196,-0.081213534,-0.5596293,1.3692788,-0.098767094,-0.2793091,-1.0460815,77.0
197,-0.0025196075,-0.48909754,1.6067023,-0.098767094,-0.2793091,-1.0460815,77.0
198,-0.0025196075,-0.48909754,1.6067023,-0.11682129,-0.32709962,-1.0513916,77.0
199,0.09738618,-0.47916865,1.542918,-0.11682129,-0.32709962,-1.0513916,77.0
200,0.09738618,-0.47916865,1.542918,-0.08814698,-0.39506838,-0.96430665,77.0
201,0.119840086,-0.49812984,1.347408,-0.08814698,-0.39506838,-0.96430665,77.0
202,0.119840086,-0.49812984,1.347408,-0.08071289,-0.5076416,-0.9324463,77.0
203,0.21462202,-0.5229546,1.1792083,-0.08071289,-0.5076416,-0.9324463,77.0
204,0.21462202,-0.5229546,1.1792083,-0.11363526,-0.5851685,-0.90058595,77.0
205,0.22948575,-0.59121525,0.9758618,-0.11363526,-0.5851685,-0.90058595,77.0
206,0.22948575,-0.59121525,0.9758618,-0.14230958,-0.64570314,-0.7827026,77.0
207,-0.01621604,-0.59957135,0.6542978,-0.14230958,-0.64570314,-0.7827026,77.0
208,-0.01621604,-0.59957135,0.6542978,-0.10089111,-0.7869507,-0.7083618,77.0
209,-0.23219895,-0.4231385,0.24924397,-0.10089111,-0.7869507,-0.7083618,77.0
210,-0.23219895,-0.4231385,0.24924397,-0.10089111,-0.92926025,-0.70198977,77.0
211,-0.18263417,-0.18119878,-0.10740423,-0.10089111,-0.92926025,-0.70198977,77.0
212,-0.18263417,-0.18119878,-0.10740423,-0.18372802,-1.0545777,-0.71367186,77.0
213,-0.055897355,-0.10395563,-0.301646,-0.18372802,-1.0545777,-0.71367186,77.0
214,-0.055897355,-0.10395563,-0.301646,-0.24107666,-1.1852051,-0.81243896,77.0
215,-0.026480556,-0.15927535,-0.33399248,-0.24107666,-1.1852051,-0.81243896,77.0
216,-0.026480556,-0.15927535,-0.33399248,-0.23045655,-1.273352,-0.91014403,77.0
217,-0.07771522,-0.12694418,-0.2748599,-0.23045655,-1.273352,-0.91014403,77.0
218,-0.07771522,-0.12694418,-0.2748599,-0.17629395,-1.3487549,-0.9685547,77.0
219,-0.104115546,0.100544214,-0.24476576,-0.17629395,-1.3487549,-0.9685547,77.0
220,-0.104115546,0.100544214,-0.24476576,-0.23151855,-1.3912354,-1.081128,77.0
221,-0.12718892,0.32333088,-0.34434772,-0.23151855,-1.3912354,-1.081128,77.0
222,-0.12718892,0.32333088,-0.34434772,-0.33878174,-1.4071655,-1.2308716,77.0
223,-0.2602228,0.27248305,-0.5837424,-0.33878174,-1.4071655,-1.2308716,77.0
224,-0.2602228,0.27248305,-0.5837424,-0.37807617,-1.4135376,-1.3859253,77.0
225,-0.46271926,-0.027338266,-0.8192277,-0.37807617,-1.4135376,-1.3859253,77.0
226,-0.46271926,-0.027338266,-0.8192277,-0.33134767,-1.4230957,-1.5515991,77.0
227,-0.54517543,-0.18974173,-0.9088124,-0.33134767,-1.4230957,-1.5515991,77.0
228,-0.54517543,-0.18974173,-0.9088124,-0.33134767,-1.4230957,-1.5515991,77.0
229,-0.54517543,-0.18974173,-0.9088124,-0.28780517,-1.4050416,-1.7151489,77.0
230,-0.4327102,0.043665588,-0.9017204,-0.28780517,-1.4050416,-1.7151489,77.0
231,-0.4327102,0.043665588,-0.9017204,-0.36002198,-1.3275146,-1.8500245,77.0
232,-0.30727658,0.37134603,-0.9579853,-0.36002198,-1.3275146,-1.8500245,77.0
233,-0.30727658,0.37134603,-0.9579853,-0.45454103,-1.260608,-1.9392334,77.0
234,-0.3306235,0.363654,-1.1201847,-0.45454103,-1.260608,-1.9392334,77.0
235,-0.3306235,0.363654,-1.1201847,-0.4694092,-1.2425537,-2.0687988,77.0
236,-0.38660574,-0.04564905,-1.2742116,-0.4694092,-1.2425537,-2.0687988,77.0
237,-0.38660574,-0.04564905,-1.2742116,-0.3525879,-1.2213135,-2.1930542,77.0
238,-0.34110832,-0.48883855,-1.2622283,-0.3525879,-1.2213135,-2.1930542,77.0
239,-0.34110832,-0.48883855,-1.2622283,-0.20603028,-1.1522827,-2.256775,77.0
240,-0.23776704,-0.6060245,-1.1073778,-0.20603028,-1.1522827,-2.256775,77.0
241,-0.23776704,-0.6060245,-1.1073778,-0.18585205,-1.0397094,-2.3173096,77.0
242,-0.22976442,-0.4336477,-1.0070815,-0.18585205,-1.0397094,-2.3173096,77.0
243,-0.22976442,-0.4336477,-1.0070815,-0.22939454,-0.93563235,-2.345984,77.0
244,-0.32953906,-0.18035322,-1.0748057,-0.22939454,-0.93563235,-2.345984,77.0
245,-0.32953906,-0.18035322,-1.0748057,-0.29736328,-0.8506714,-2.3236816,77.0
246,-0.43908292,-0.026228368,-1.214752,-0.29736328,-0.8506714,-2.3236816,77.0
247,-0.43908292,-0.026228368,-1.214752,-0.32816163,-0.76464844,-2.2440307,77.0
248,-0.47250658,0.013331294,-1.1432005,-0.32816163,-0.76464844,-2.2440307,77.0
249,-0.47250658,0.013331294,-1.1432005,-0.33240968,-0.6839356,-2.163318,77.0
250,-0.40333486,0.046968758,-0.8664403,-0.33240968,-0.6839356,-2.163318,77.0
251,-0.40333486,0.046968758,-0.8664403,-0.41949463,-0.6074707,-2.1282716,77.0
252,-0.24417669,0.15926689,-0.6983403,-0.41949463,-0.6074707,-2.1282716,77.0
253,-0.24417669,0.15926689,-0.6983403,-0.49383545,-0.49383545,-2.0687988,77.0
254,-0.1434859,0.3335048,-0.6741142,-0.49383545,-0.49383545,-2.0687988,77.0
255,-0.1434859,0.3335048,-0.6741142,-0.55755615,-0.37807617,-1.9466676,77.0
256,-0.21621692,0.50775844,-0.5490813,-0.55755615,-0.37807617,-1.9466676,77.0
257,-0.21621692,0.50775844,-0.5490813,-0.59260255,-0.28355715,-1.814978,77.0
258,-0.38275135,0.60343575,-0.20777094,-0.59260255,-0.28355715,-1.814978,77.0
259,-0.38275135,0.60343575,-0.20777094,-0.5777344,-0.19541016,-1.6726685,77.0
260,-0.47894275,0.6049166,0.20513344,-0.5777344,-0.19541016,-1.6726685,77.0
261,-0.47894275,0.6049166,0.20513344,-0.51826173,-0.14230958,-1.5505371,77.0
262,-0.3816284,0.6316994,0.44118202,-0.51826173,-0.14230958,-1.5505371,77.0
263,-0.3816284,0.6316994,0.44118202,-0.48109132,-0.057348635,-1.4390259,77.0
264,-0.16256589,0.7167731,0.4505043,-0.48109132,-0.057348635,-1.4390259,77.0
265,-0.16256589,0.7167731,0.4505043,-0.45772704,0.04991455,-1.3062744,77.0
266,-0.01899314,0.7275078,0.41322327,-0.45772704,0.04991455,-1.3062744,77.0
267,-0.01899314,0.7275078,0.41322327,-0.41737062,0.118945315,-1.1565307,77.0
268,0.03664875,0.58336127,0.43515623,-0.41737062,0.118945315,-1.1565307,77.0
269,0.03664875,0.58336127,0.43515623,-0.35046387,0.15930176,-1.0174073,77.0
270,0.12193376,0.25071,0.4596362,-0.35046387,0.15930176,-1.0174073,77.0
271,0.12193376,0.25071,0.4596362,-0.22939454,0.17841797,-0.8644776,77.0
272,0.31850648,-0.10737878,0.45348775,-0.22939454,0.17841797,-0.8644776,77.0
273,0.31850648,-0.10737878,0.45348775,-0.04141846,0.19647217,-0.6945557,77.0
274,0.55833304,-0.12480682,0.44679892,-0.04141846,0.19647217,-0.6945557,77.0
275,0.55833304,-0.12480682,0.44679892,-0.027612304,0.23789063,-0.59897465,77.0
276,0.6782461,0.17713207,0.39562273,-0.027612304,0.23789063,-0.59897465,77.0
277,0.6782461,0.17713207,0.39562273,-0.2166504,0.29630128,-0.6053467,77.0
278,0.576447,0.3131168,0.3431095,-0.2166504,0.29630128,-0.6053467,77.0
279,0.576447,0.3131168,0.3431095,-0.38444826,0.31010744,-0.70198977,77.0
280,0.34548375,0.036565244,0.3569827,-0.38444826,0.31010744,-0.70198977,77.0
281,0.34548375,0.036565244,0.3569827,-0.45029297,0.28780517,-0.80606693,77.0
282,0.13484648,-0.49588206,0.40460473,-0.45029297,0.28780517,-0.80606693,77.0
283,0.13484648,-0.49588206,0.40460473,-0.3536499,0.19647217,-0.8612915,77.0
284,0.041385487,-0.7871109,0.513259,-0.3536499,0.19647217,-0.8612915,77.0
285,0.041385487,-0.7871109,0.513259,-0.3058594,0.058410645,-0.9165161,77.0
286,0.08006884,-0.5247327,0.7244134,-0.3058594,0.058410645,-0.9165161,77.0
287,0.08006884,-0.5247327,0.7244134,-0.4598511,-0.038232423,-0.99722904,77.0
288,0.1606005,0.11456441,0.8961933,-0.4598511,-0.038232423,-0.99722904,77.0
289,0.1606005,0.11456441,0.8961933,-0.79119873,-0.07327881,-1.0938721,77.0
290,0.14093158,0.65445673,0.7886466,-0.79119873,-0.07327881,-1.0938721,77.0
291,0.14093158,0.65445673,0.7886466,-1.1533448,-0.050976563,-1.175647,77.0
292,-0.031651706,0.6717221,0.39394215,-1.1533448,-0.050976563,-1.175647,77.0
293,-0.031651706,0.6717221,0.39394215,-1.3020264,-0.06265869,-1.2053833,77.0
294,-0.2742105,0.26434302,-0.023994237,-1.3020264,-0.06265869,-1.2053833,77.0
295,-0.2742105,0.26434302,-0.023994237,-1.2213135,-0.12319336,-1.2308716,77.0
296,-0.4816609,-0.13466817,-0.28823835,-1.2213135,-0.12319336,-1.2308716,77.0
297,-0.4816609,-0.13466817,-0.28823835,-0.998291,-0.21027832,-1.2404298,77.0
298,-0.6275162,-0.26267838,-0.37788075,-0.998291,-0.21027832,-1.2404298,77.0
299,-0.6275162,-0.26267838,-0.37788075,-0.75509036,-0.30054933,-1.2510499,77.0
300,-0.7061634,-0.15538198,-0.3178197,-0.75509036,-0.30054933,-1.2510499,77.0
301,-0.7061634,-0.15538198,-0.3178197,-0.5883545,-0.37382814,-1.26167,77.0
302,-0.70478666,0.042515695,-0.21875773,-0.5883545,-0.37382814,-1.26167,77.0
303,-0.70478666,0.042515695,-0.21875773,-0.5341919,-0.40356445,-1.2574219,77.0
304,-0.614635,0.15298226,-0.19950572,-0.5341919,-0.40356445,-1.2574219,77.0
305,-0.614635,0.15298226,-0.19950572,-0.5097656,-0.4056885,-1.1915772,77.0
306,-0.43445706,0.1007061,-0.28731453,-0.5097656,-0.4056885,-1.1915772,77.0
307,-0.43445706,0.1007061,-0.28731453,-0.4715332,-0.4088745,-1.1119263,77.0
308,-0.2497629,-0.0052261353,-0.38033992,-0.4715332,-0.4088745,-1.1119263,77.0
309,-0.2497629,-0.0052261353,-0.38033992,-0.42268068,-0.4088745,-1.0354614,77.0
310,-0.15265453,-0.06704712,-0.38456976,-0.42268068,-0.4088745,-1.0354614,77.0
311,-0.15265453,-0.06704712,-0.38456976,-0.36320803,-0.3971924,-0.96430665,77.0
312,-0.12247765,-0.10101318,-0.28045857,-0.36320803,-0.3971924,-0.96430665,77.0
313,-0.12247765,-0.10101318,-0.28045857,-0.29523927,-0.38338622,-0.8782837,77.0
314,-0.09981322,-0.1425415,-0.11694497,-0.29523927,-0.38338622,-0.8782837,77.0
315,-0.09981322,-0.1425415,-0.11694497,-0.20390625,-0.3695801,-0.7954468,77.0
316,0.01800108,-0.14352539,0.015587091,-0.20390625,-0.3695801,-0.7954468,77.0
317,0.01800108,-0.14352539,0.015587091,-0.13806152,-0.3430298,-0.72641605,77.0
318,0.12128568,-0.08354592,0.07315087,-0.13806152,-0.3430298,-0.72641605,77.0
319,0.12128568,-0.08354592,0.07315087,-0.10938721,-0.31435546,-0.6786255,77.0
320,0.20436502,-0.029055953,0.10756856,-0.10938721,-0.31435546,-0.6786255,77.0
321,0.20436502,-0.029055953,0.10756856,-0.08283692,-0.28568116,-0.65632325,77.0
322,0.26446855,-0.020620257,0.19641864,-0.08283692,-0.28568116,-0.65632325,77.0
323,0.26446855,-0.020620257,0.19641864,-0.09133301,-0.25594482,-0.63826907,77.0
324,0.27568614,-0.06830284,0.34072867,-0.09133301,-0.25594482,-0.63826907,77.0
325,0.27568614,-0.06830284,0.34072867,-0.09133301,-0.25594482,-0.63826907,77.0
326,0.27568614,-0.06830284,0.34072867,-0.11257324,-0.25700685,-0.62552494,77.0
327,0.25194538,-0.2117956,0.49830315,-0.11257324,-0.25700685,-0.62552494,77.0
328,0.25194538,-0.2117956,0.49830315,-0.057348635,-0.26975098,-0.62764895,77.0
329,0.26867056,-0.3980986,0.63884026,-0.057348635,-0.26975098,-0.62764895,77.0
330,0.26867056,-0.3980986,0.63884026,0.03717041,-0.25806886,-0.5649902,77.0
331,0.34441638,-0.49639636,0.7035649,0.03717041,-0.25806886,-0.5649902,77.0
332,0.34441638,-0.49639636,0.7035649,0.16567384,-0.19647217,-0.45347902,77.0
333,0.4209677,-0.41782022,0.63011265,0.16567384,-0.19647217,-0.45347902,77.0
334,0.4209677,-0.41782022,0.63011265,0.2984253,-0.0637207,-0.28355715,77.0
335,0.4038884,-0.1803011,0.3613289,0.2984253,-0.0637207,-0.28355715,77.0
336,0.4038884,-0.1803011,0.3613289,0.38763428,0.14549561,-0.081774905,77.0
337,0.1961698,0.022421718,-0.028954446,0.38763428,0.14549561,-0.081774905,77.0
338,0.1961698,0.022421718,-0.028954446,0.54587406,0.32285157,0.18160401,77.0
339,-0.1499123,-0.21636438,-0.2883125,0.54587406,0.32285157,0.18160401,77.0
340,-0.1499123,-0.21636438,-0.2883125,0.89846194,0.24638672,0.43117675,77.0
341,-0.35522038,-0.52465403,-0.31113094,0.89846194,0.24638672,0.43117675,77.0
342,-0.35522038,-0.52465403,-0.31113094,1.0120972,-0.023364259,0.45029297,77.0
343,-0.36625636,-0.1996915,-0.15379979,1.0120972,-0.023364259,0.45029297,77.0
344,-0.36625636,-0.1996915,-0.15379979,0.7508423,0.023364259,0.544812,77.0
345,-0.35157442,0.09224877,0.3725046,0.7508423,0.023364259,0.544812,77.0
346,-0.35157442,0.09224877,0.3725046,0.4959595,-0.08496094,0.544812,77.0
347,0.0026881695,-0.21637434,1.2772151,0.4959595,-0.08496094,0.544812,77.0
348,0.0026881695,-0.21637434,1.2772151,0.26550293,-0.14655761,0.5649902,77.0
349,0.6158469,-0.5502601,1.9859078,0.26550293,-0.14655761,0.5649902,77.0
350,0.6158469,-0.5502601,1.9859078,0.0010620117,-0.21452637,0.725354,77.0
351,0.90888846,-0.42292297,1.9660945,0.0010620117,-0.21452637,0.725354,77.0
352,0.90888846,-0.42292297,1.9660945,-0.32603762,-0.21134034,0.9600586,77.0
353,0.705016,-0.030757844,1.3411496,-0.32603762,-0.21134034,0.9600586,77.0
354,0.705016,-0.030757844,1.3411496,-0.55755615,-0.20072022,1.2244996,77.0
355,0.34963295,0.16224676,0.5164255,-0.55755615,-0.20072022,1.2244996,77.0
356,0.34963295,0.16224676,0.5164255,-0.61702883,-0.16885987,1.5069946,77.0
357,0.070001766,0.15991217,-0.36071205,-0.61702883,-0.16885987,1.5069946,77.0
358,0.070001766,0.15991217,-0.36071205,-0.57242435,-0.14124756,1.7438233,77.0
359,-0.1902022,0.17393804,-1.2380326,-0.57242435,-0.14124756,1.7438233,77.0
360,-0.1902022,0.17393804,-1.2380326,-0.42905274,-0.1529297,1.9371094,77.0
361,-0.4466442,0.17425784,-1.8898768,-0.42905274,-0.1529297,1.9371094,77.0
362,-0.4466442,0.17425784,-1.8898768,-0.16885987,-0.22939454,2.0603027,77.0
363,-0.4466442,0.17425784,-1.8898768,0.11151123,-0.29311523,2.1781862,77.0
364,-0.59501064,0.09456983,-2.12102,0.11151123,-0.29311523,2.1781862,77.0
365,-0.6360183,-4.5499206E-4,-1.9663473,0.11151123,-0.29311523,2.1781862,77.0
366,-0.6360183,-4.5499206E-4,-1.9663473,0.34090576,-0.3058594,2.2971313,77.0
367,-0.6615002,-0.04654318,-1.6519964,0.34090576,-0.3058594,2.2971313,77.0
368,-0.6615002,-0.04654318,-1.6519964,0.49383545,-0.3079834,2.4065187,77.0
369,-0.6780894,-0.07185367,-1.3276274,0.49383545,-0.3079834,2.4065187,77.0
370,-0.6780894,-0.07185367,-1.3276274,0.6053467,-0.32603762,2.4882934,77.0
371,-0.556412,-0.14372563,-0.96443343,0.6053467,-0.32603762,2.4882934,77.0
372,-0.556412,-0.14372563,-0.96443343,0.74659425,-0.31860352,2.5743165,77.0
373,-0.22742939,-0.31584722,-0.5208632,0.74659425,-0.31860352,2.5743165,77.0
374,-0.22742939,-0.31584722,-0.5208632,0.84323734,-0.24320069,2.6964478,77.0
375,0.16915512,-0.48092484,-0.23236442,0.84323734,-0.24320069,2.6964478,77.0
376,0.16915512,-0.48092484,-0.23236442,0.81881106,-0.081774905,2.8366334,77.0
377,0.27902532,-0.71163195,-0.22765183,0.81881106,-0.081774905,2.8366334,77.0
378,0.27902532,-0.71163195,-0.22765183,0.8358032,-0.060534667,2.9067261,77.0
379,-0.0066503286,-1.3188906,-0.115214705,0.8358032,-0.060534667,2.9067261,77.0
380,-0.0066503286,-1.3188906,-0.115214705,1.1384766,-0.29736328,2.8100832,77.0
381,-0.2875346,-2.1503272,0.4886632,1.1384766,-0.29736328,2.8100832,77.0
382,-0.2875346,-2.1503272,0.4886632,1.5537232,-0.6605713,2.4840455,77.0
383,0.039100766,-2.4575543,1.3957036,1.5537232,-0.6605713,2.4840455,77.0
384,0.039100766,-2.4575543,1.3957036,1.5717773,-0.83898926,2.0358765,77.0
385,1.1718569,-2.016898,2.0559306,1.5717773,-0.83898926,2.0358765,77.0
386,1.1718569,-2.016898,2.0559306,1.0492676,-0.6074707,1.8638306,77.0
387,2.2084084,-1.5311453,2.1835384,1.0492676,-0.6074707,1.8638306,77.0
388,2.2084084,-1.5311453,2.1835384,0.48427734,-0.271875,1.7905518,77.0
389,2.2666047,-1.4507465,1.9408982,0.48427734,-0.271875,1.7905518,77.0
390,2.2666047,-1.4507465,1.9408982,0.30479738,-0.18054199,1.6131958,77.0
391,1.8043115,-1.3665175,1.4191126,0.30479738,-0.18054199,1.6131958,77.0
392,1.8043115,-1.3665175,1.4191126,0.22196046,-0.13912354,1.4284058,77.0
393,1.4332197,-0.8200817,0.6551875,0.22196046,-0.13912354,1.4284058,77.0
394,1.4332197,-0.8200817,0.6551875,-0.06265869,-0.04460449,1.4305298,77.0
395,1.0192442,-0.024742126,-0.12307906,-0.06265869,-0.04460449,1.4305298,77.0
396,1.0192442,-0.024742126,-0.12307906,-0.35046387,0.022302246,1.5462891,77.0
397,0.3736229,0.61469126,-0.6314467,-0.35046387,0.022302246,1.5462891,77.0
398,0.3736229,0.61469126,-0.6314467,-0.38232422,0.012744141,1.6248779,77.0
399,-0.32417297,1.0102835,-0.7639342,-0.38232422,0.012744141,1.6248779,77.0
400,-0.32417297,1.0102835,-0.7639342,-0.31329346,-0.020178223,1.6163819,77.0
401,-0.76929927,1.229589,-0.730935,-0.31329346,-0.020178223,1.6163819,77.0
402,-0.76929927,1.229589,-0.730935,-0.30267334,-0.0180542,1.5675293,77.0
403,-0.90315914,1.2644575,-0.7815742,-0.30267334,-0.0180542,1.5675293,77.0
404,-0.90315914,1.2644575,-0.7815742,-0.31329346,0.019116212,1.5069946,77.0
405,-0.86646044,1.1530578,-0.9331207,-0.31329346,0.019116212,1.5069946,77.0
406,-0.86646044,1.1530578,-0.9331207,-0.20921631,0.028674318,1.4793824,77.0
407,-0.7381269,0.9931128,-1.0457032,-0.20921631,0.028674318,1.4793824,77.0
408,-0.7381269,0.9931128,-1.0457032,0.025488282,0.0031860352,1.453894,77.0
409,-0.60549176,0.9590044,-1.0120142,0.025488282,0.0031860352,1.453894,77.0
410,-0.60549176,0.9590044,-1.0120142,0.17629395,-0.033984374,1.454956,77.0
411,-0.5897401,1.1886268,-0.83130324,0.17629395,-0.033984374,1.454956,77.0
412,-0.5897401,1.1886268,-0.83130324,0.14655761,-0.043542482,1.3763672,77.0
413,-0.67907965,1.4536114,-0.6256139,0.14655761,-0.043542482,1.3763672,77.0
414,-0.67907965,1.4536114,-0.6256139,0.025488282,-0.035046387,1.2457398,77.0
415,-0.7923238,1.3949937,-0.5680815,0.025488282,-0.035046387,1.2457398,77.0
416,-0.7923238,1.3949937,-0.5680815,-0.08602295,-0.043542482,1.084314,77.0
417,-0.8944181,1.0725013,-0.6511327,-0.08602295,-0.043542482,1.084314,77.0
418,-0.8944181,1.0725013,-0.6511327,-0.12850343,-0.07965088,0.8931519,77.0
419,-0.8944181,1.0725013,-0.6511327,-0.12850343,-0.07965088,0.8931519,76.0
420,-0.99369615,0.80769587,-0.67688763,-0.12850343,-0.07965088,0.8931519,76.0
421,-0.99369615,0.80769587,-0.67688763,-0.1444336,-0.15611573,0.70305175,76.0
422,-1.0383651,0.5723652,-0.5025941,-0.1444336,-0.15611573,0.70305175,76.0
423,-1.0383651,0.5723652,-0.5025941,-0.11363526,-0.25806886,0.5384399,76.0
424,-0.99320436,0.1932559,-0.15239275,-0.11363526,-0.25806886,0.5384399,76.0
425,-0.99320436,0.1932559,-0.15239275,-0.010620117,-0.3812622,0.3791382,76.0
426,-0.8415849,-0.13575172,0.26984608,-0.010620117,-0.3812622,0.3791382,76.0
427,-0.8415849,-0.13575172,0.26984608,0.06265869,-0.4959595,0.2347046,76.0
428,-0.5678847,-0.14290309,0.65801555,0.06265869,-0.4959595,0.2347046,76.0
429,-0.5678847,-0.14290309,0.65801555,0.058410645,-0.59047854,0.052038576,76.0
430,-0.1353991,0.039962232,0.84917855,0.058410645,-0.59047854,0.052038576,76.0
431,-0.1353991,0.039962232,0.84917855,0.028674318,-0.6244629,-0.12531738,76.0
432,0.3238951,0.23265338,0.6935763,0.028674318,-0.6244629,-0.12531738,76.0
433,0.3238951,0.23265338,0.6935763,-0.022302246,-0.62977296,-0.2782471,76.0
434,0.57483876,0.52735806,0.36894795,-0.022302246,-0.62977296,-0.2782471,76.0
435,0.57483876,0.52735806,0.36894795,-0.0541626,-0.68074954,-0.46516114,76.0
436,0.67503214,0.8552605,0.18574673,-0.0541626,-0.68074954,-0.46516114,76.0
437,0.67503214,0.8552605,0.18574673,-0.010620117,-0.71367186,-0.6956177,76.0
438,0.79045296,0.71395695,0.06693235,-0.010620117,-0.71367186,-0.6956177,76.0
439,0.79045296,0.71395695,0.06693235,0.21240234,-0.724292,-0.7699585,76.0
440,1.0098526,0.18176128,-0.136188,0.21240234,-0.724292,-0.7699585,76.0
441,1.0098526,0.18176128,-0.136188,0.4333008,-0.86553955,-1.0184692,76.0
442,1.3396814,0.08212778,-0.15641135,0.4333008,-0.86553955,-1.0184692,76.0
443,1.3396814,0.08212778,-0.15641135,0.35577393,-1.0205933,-1.3976074,76.0
444,1.6108443,0.2300699,0.21847442,0.35577393,-1.0205933,-1.3976074,76.0
445,1.6108443,0.2300699,0.21847442,0.26019287,-0.9866089,-1.5887696,76.0
446,1.8265172,0.08887771,0.743908,0.26019287,-0.9866089,-1.5887696,76.0
447,1.8265172,0.08887771,0.743908,0.32178956,-0.8963379,-1.6641724,76.0
448,1.884456,0.13756946,1.1869355,0.32178956,-0.8963379,-1.6641724,76.0
449,1.884456,0.13756946,1.1869355,0.24001466,-0.7189819,-1.6939087,76.0
450,1.7729213,0.71227723,1.3033692,0.24001466,-0.7189819,-1.6939087,76.0
451,1.7729213,0.71227723,1.3033692,-0.012744141,-0.452417,-1.6556762,76.0
452,1.4179952,1.2619971,0.9021924,-0.012744141,-0.452417,-1.6556762,76.0
453,1.4179952,1.2619971,0.9021924,-0.18585205,-0.26019287,-1.5292969,76.0
454,0.8660002,1.235501,0.21875101,-0.18585205,-0.26019287,-1.5292969,76.0
455,0.8660002,1.235501,0.21875101,-0.06903076,-0.17947999,-1.3062744,76.0
456,0.27767563,0.8338232,-0.2708366,-0.06903076,-0.17947999,-1.3062744,76.0
457,0.27767563,0.8338232,-0.2708366,0.19647217,-0.19753419,-1.09281,76.0
458,-0.08254695,0.58732224,-0.4590887,0.19647217,-0.19753419,-1.09281,76.0
459,-0.08254695,0.58732224,-0.4590887,0.42692873,-0.26444092,-0.905896,76.0
460,-0.13862062,0.78822935,-0.4162822,0.42692873,-0.26444092,-0.905896,76.0
461,-0.13862062,0.78822935,-0.4162822,0.44498292,-0.46622315,-0.8294312,76.0
462,0.14436483,1.1908495,-0.2176083,0.44498292,-0.46622315,-0.8294312,76.0
463,0.14436483,1.1908495,-0.2176083,0.29948732,-0.5522461,-0.81668705,76.0
464,0.5431409,1.3238833,-0.02024144,0.29948732,-0.5522461,-0.81668705,76.0
465,0.5431409,1.3238833,-0.02024144,0.11151123,-0.53525394,-0.68712157,76.0
466,0.56150246,0.9732547,0.17799631,0.11151123,-0.53525394,-0.68712157,76.0
467,0.56150246,0.9732547,0.17799631,0.011682129,-0.5564942,-0.63826907,76.0
468,0.27954865,0.38308382,0.28667194,0.011682129,-0.5564942,-0.63826907,76.0
469,0.27954865,0.38308382,0.28667194,0.013806152,-0.5320679,-0.6988037,76.0
470,0.031854153,-0.04325223,-0.05817467,0.013806152,-0.5320679,-0.6988037,76.0
471,0.031854153,-0.04325223,-0.05817467,0.08496094,-0.45347902,-0.7072998,76.0
472,-0.30929446,-0.28128147,-0.7075383,0.08496094,-0.45347902,-0.7072998,76.0
473,-0.30929446,-0.28128147,-0.7075383,0.25913087,-0.4343628,-0.725354,76.0
474,-0.7911732,-0.50747156,-1.1121855,0.25913087,-0.4343628,-0.725354,76.0
475,-0.7911732,-0.50747156,-1.1121855,0.5161377,-0.40993652,-0.8007569,76.0
476,-1.15507,-0.61221504,-1.1549218,0.5161377,-0.40993652,-0.8007569,76.0
477,-1.15507,-0.61221504,-1.1549218,0.6839356,-0.37489015,-0.8421753,76.0
478,-1.2641317,-0.56578517,-0.96903014,0.6839356,-0.37489015,-0.8421753,76.0
479,-1.2641317,-0.56578517,-0.96903014,0.6531372,-0.36320803,-0.8708496,76.0
480,-1.1322526,-0.606156,-0.6555708,0.6531372,-0.36320803,-0.8708496,76.0
481,-1.1322526,-0.606156,-0.6555708,0.5671143,-0.3058594,-0.8612915,76.0
482,-0.84569466,-0.7317754,-0.38327014,0.5671143,-0.3058594,-0.8612915,76.0
483,-0.84569466,-0.7317754,-0.38327014,0.48321533,-0.1985962,-0.7582764,76.0
484,-0.60952693,-0.73363817,-0.23666984,0.48321533,-0.1985962,-0.7582764,76.0
485,-0.60952693,-0.73363817,-0.23666984,0.4343628,-0.16673584,-0.72216797,76.0
486,-0.16750437,-0.60329247,0.020771563,0.4343628,-0.16673584,-0.72216797,76.0
487,-0.16750437,-0.60329247,0.020771563,0.27399904,-0.10089111,-0.62340087,76.0
488,0.049993098,-0.4723313,0.120120645,0.27399904,-0.10089111,-0.62340087,76.0
489,0.049993098,-0.4723313,0.120120645,0.2177124,-0.06159668,-0.57454836,76.0
490,0.52294123,-0.046370864,0.2762357,0.2177124,-0.06159668,-0.57454836,76.0
491,0.52294123,-0.046370864,0.2762357,-0.09770508,0.04248047,-0.45772704,76.0
492,0.5309384,0.09283495,0.21522683,-0.09770508,0.04248047,-0.45772704,76.0
493,0.5309384,0.09283495,0.21522683,-0.20390625,0.0541626,-0.4343628,76.0
494,0.5473459,0.37814975,0.093458354,-0.20390625,0.0541626,-0.4343628,76.0
495,0.5473459,0.37814975,0.093458354,-0.43861085,0.08602295,-0.4163086,76.0
496,0.4838972,0.39265656,0.024363875,-0.43861085,0.08602295,-0.4163086,76.0
497,0.4838972,0.39265656,0.024363875,-0.49383545,0.11044922,-0.41418457,76.0
498,0.34534538,0.42463553,-0.015396595,-0.49383545,0.11044922,-0.41418457,76.0
499,0.34534538,0.42463553,-0.015396595,-0.632959,0.2177124,-0.41524658,76.0
500,0.2380073,0.37584114,-0.025073647,-0.632959,0.2177124,-0.41524658,76.0
501,0.2380073,0.37584114,-0.025073647,-0.6616333,0.24957275,-0.4364868,76.0
502,0.05689752,0.35988927,0.037472844,-0.6616333,0.24957275,-0.4364868,76.0
503,0.05689752,0.35988927,0.037472844,-0.7083618,0.36108398,-0.54906005,76.0
504,0.13726604,0.39720094,0.008322954,-0.7083618,0.36108398,-0.54906005,76.0
505,0.13726604,0.39720094,0.008322954,-0.74659425,0.4248047,-0.59260255,76.0
506,0.26297438,0.47448683,0.15082335,-0.74659425,0.4248047,-0.59260255,76.0
507,0.26297438,0.47448683,0.15082335,-0.87615967,0.6414551,-0.76464844,76.0
508,0.336527,0.44842494,0.113615215,-0.87615967,0.6414551,-0.76464844,76.0
509,0.336527,0.44842494,0.113615215,-0.9165161,0.7072998,-0.8496094,76.0
510,0.35620892,0.45722628,0.022130013,-0.9165161,0.7072998,-0.8496094,76.0
511,0.35620892,0.45722628,0.022130013,-0.994043,0.8857178,-1.089624,76.0
512,0.3606385,0.43598366,-0.14163435,-0.994043,0.8857178,-1.089624,76.0
513,0.3606385,0.43598366,-0.14163435,-0.991919,0.9122681,-1.1639649,76.0
514,0.014487267,0.29201198,-0.55774105,-0.991919,0.9122681,-1.1639649,76.0
515,0.014487267,0.29201198,-0.55774105,-0.9218262,0.91757816,-1.3264526,76.0
516,0.0069389343,0.22237921,-0.62993306,-0.9218262,0.91757816,-1.3264526,76.0
517,0.0069389343,0.22237921,-0.62993306,-0.8846558,0.89421386,-1.359375,76.0
518,-0.21622622,0.094871044,-0.7179357,-0.8846558,0.89421386,-1.359375,76.0
519,-0.21622622,0.094871044,-0.7179357,-0.84323734,0.83898926,-1.4230957,76.0
520,-0.4284376,-0.015338421,-0.68836224,-0.84323734,0.83898926,-1.4230957,76.0
521,-0.4284376,-0.015338421,-0.68836224,-0.8421753,0.7338501,-1.4804443,76.0
522,-0.5415294,-0.10842538,-0.6227479,-0.8421753,0.7338501,-1.4804443,76.0
523,-0.5415294,-0.10842538,-0.6227479,-0.84111327,0.6202149,-1.5462891,76.0
524,-0.4458822,-0.103500605,-0.5468068,-0.84111327,0.6202149,-1.5462891,76.0
525,-0.4458822,-0.103500605,-0.5468068,-0.8591675,0.5628662,-1.5802735,76.0
526,-0.12444258,-0.03314233,-0.42683756,-0.8591675,0.5628662,-1.5802735,76.0
527,-0.12444258,-0.03314233,-0.42683756,-0.9281983,0.544812,-1.622754,76.0
528,0.10206938,0.039782524,-0.39791536,-0.9281983,0.544812,-1.622754,76.0
529,0.10206938,0.039782524,-0.39791536,-0.9483765,0.5564942,-1.632312,76.0
530,0.30531275,-0.03381133,-0.6598606,-0.9483765,0.5564942,-1.632312,76.0
531,0.30531275,-0.03381133,-0.6598606,-0.94731444,0.59897465,-1.627002,76.0
532,0.30839813,0.0038104057,-0.700618,-0.94731444,0.59897465,-1.627002,76.0
533,0.30839813,0.0038104057,-0.700618,-0.92713624,0.5968506,-1.630188,76.0
534,0.08712387,-0.091873646,-0.7361047,-0.92713624,0.5968506,-1.630188,76.0
535,0.08712387,-0.091873646,-0.7361047,-0.8602295,0.5713623,-1.6461182,76.0
536,0.08712387,-0.091873646,-0.7361047,-0.8602295,0.5713623,-1.6461182,76.0
537,-0.24892879,-0.24071074,-0.5365889,-0.8602295,0.5713623,-1.6461182,76.0
538,-0.24892879,-0.24071074,-0.5365889,-0.77951664,0.5341919,-1.6503662,76.0
539,-0.6336889,-0.3938992,-0.2113514,-0.77951664,0.5341919,-1.6503662,76.0
540,-0.6336889,-0.3938992,-0.2113514,-0.6818115,0.44710693,-1.63125,76.0
541,-0.9715996,-0.5612376,0.2347517,-0.6818115,0.44710693,-1.63125,76.0
542,-0.9715996,-0.5612376,0.2347517,-0.56817627,0.3451538,-1.6100098,76.0
543,-1.0810394,-0.8941438,0.9975791,-0.56817627,0.3451538,-1.6100098,76.0
544,-1.0810394,-0.8941438,0.9975791,-0.32603762,0.35152587,-1.4772583,76.0
545,-0.9739991,-1.2925612,1.9588665,-0.32603762,0.35152587,-1.4772583,76.0
546,-0.9739991,-1.2925612,1.9588665,-0.20603028,0.4354248,-1.2754761,76.0
547,-0.9824464,-1.0782506,2.3613925,-0.20603028,0.4354248,-1.2754761,76.0
548,-0.9824464,-1.0782506,2.3613925,-0.54587406,0.5065796,-1.1448487,76.0
549,-1.1558546,-0.3264677,1.8419826,-0.54587406,0.5065796,-1.1448487,76.0
550,-1.1558546,-0.3264677,1.8419826,-1.0577637,0.64570314,-1.0120972,76.0
551,-1.3138804,-0.21123517,0.99395967,-1.0577637,0.64570314,-1.0120972,76.0
552,-1.3138804,-0.21123517,0.99395967,-1.083252,0.7051758,-0.80394286,76.0
553,-1.4298763,-1.0372498,0.4827532,-1.083252,0.7051758,-0.80394286,76.0
554,-1.4298763,-1.0372498,0.4827532,-0.73703617,0.6775635,-0.5479981,76.0
555,-1.4559494,-1.9805446,0.44196427,-0.73703617,0.6775635,-0.5479981,76.0
556,-1.4559494,-1.9805446,0.44196427,-0.38232422,0.58623046,-0.34940186,76.0
557,-1.2694349,-2.2600338,0.599006,-0.38232422,0.58623046,-0.34940186,76.0
558,-1.2694349,-2.2600338,0.599006,-0.11044922,0.4354248,-0.26444092,76.0
559,-0.8516686,-1.7444284,0.6716486,-0.11044922,0.4354248,-0.26444092,76.0
560,-0.8516686,-1.7444284,0.6716486,-0.008496094,0.3345337,-0.2166504,76.0
561,-0.42359567,-0.9115828,0.6645894,-0.008496094,0.3345337,-0.2166504,76.0
562,-0.42359567,-0.9115828,0.6645894,-0.08920898,0.271875,-0.1709839,76.0
563,-0.20501423,-0.43223262,0.727924,-0.08920898,0.271875,-0.1709839,76.0
564,-0.20501423,-0.43223262,0.727924,-0.15080567,0.23045655,-0.115759276,76.0
565,-0.09888685,-0.42911124,0.74408233,-0.15080567,0.23045655,-0.115759276,76.0
566,-0.09888685,-0.42911124,0.74408233,-0.16673584,0.18585205,-0.0998291,76.0
567,-0.0020341873,-0.30461705,0.4199729,-0.16673584,0.18585205,-0.0998291,76.0
568,-0.0020341873,-0.30461705,0.4199729,-0.23045655,0.1731079,-0.1274414,76.0
569,-0.04844129,0.2964065,-0.18742257,-0.23045655,0.1731079,-0.1274414,76.0
570,-0.04844129,0.2964065,-0.18742257,-0.45666504,0.1901001,-0.1985962,76.0
571,-0.19115782,0.90871954,-0.7563223,-0.45666504,0.1901001,-0.1985962,76.0
572,-0.19115782,0.90871954,-0.7563223,-0.66588134,0.20921631,-0.26656494,76.0
573,-0.21994281,1.0757427,-1.1133586,-0.66588134,0.20921631,-0.26656494,76.0
574,-0.21994281,1.0757427,-1.1133586,-0.77314454,0.2538208,-0.32497558,76.0
575,-0.10027075,0.8740952,-1.3117441,-0.77314454,0.2538208,-0.32497558,76.0
576,-0.10027075,0.8740952,-1.3117441,-0.7880127,0.35152587,-0.32709962,76.0
577,-0.022196531,0.58380985,-1.4521785,-0.7880127,0.35152587,-0.32709962,76.0
578,-0.022196531,0.58380985,-1.4521785,-0.72960204,0.4598511,-0.29630128,76.0
579,-0.15675867,0.35053176,-1.459631,-0.72960204,0.4598511,-0.29630128,76.0
580,-0.15675867,0.35053176,-1.459631,-0.5692383,0.50870365,-0.29523927,76.0
581,-0.32654226,0.17983946,-1.2208786,-0.5692383,0.50870365,-0.29523927,76.0
582,-0.32654226,0.17983946,-1.2208786,-0.37807617,0.5341919,-0.28674316,76.0
583,-0.24944186,0.076220214,-0.84669805,-0.37807617,0.5341919,-0.28674316,76.0
584,-0.24944186,0.076220214,-0.84669805,-0.20709229,0.5734863,-0.26762697,76.0
585,-0.031401634,0.18612266,-0.50779057,-0.20709229,0.5734863,-0.26762697,76.0
586,-0.031401634,0.18612266,-0.50779057,-0.21134034,0.61915284,-0.24001466,76.0
587,0.08703697,0.4998869,-0.11102986,-0.21134034,0.61915284,-0.24001466,76.0
588,0.08703697,0.4998869,-0.11102986,-0.29205322,0.6510132,-0.24107666,76.0
589,0.17003238,0.7259227,0.38220882,-0.29205322,0.6510132,-0.24107666,76.0
590,0.17003238,0.7259227,0.38220882,-0.36851808,0.68287355,-0.271875,76.0
591,0.37093806,0.78609705,0.80381393,-0.36851808,0.68287355,-0.271875,76.0
592,0.37093806,0.78609705,0.80381393,-0.45560303,0.7168579,-0.32603762,76.0
593,0.59147704,0.77697337,1.0427338,-0.45560303,0.7168579,-0.32603762,76.0
594,0.59147704,0.77697337,1.0427338,-0.56817627,0.74022216,-0.37595215,76.0
595,0.6463994,0.6235685,1.1100172,-0.56817627,0.74022216,-0.37595215,76.0
596,0.6463994,0.6235685,1.1100172,-0.5703003,0.6956177,-0.45560303,76.0
597,0.46530068,0.3835106,1.0862193,-0.5703003,0.6956177,-0.45560303,76.0
598,0.46530068,0.3835106,1.0862193,-0.4959595,0.61065674,-0.50233155,76.0
599,0.113781095,0.043807983,1.1665707,-0.4959595,0.61065674,-0.50233155,76.0
600,0.113781095,0.043807983,1.1665707,-0.21877442,0.44179687,-0.4800293,76.0
601,-0.07877493,-0.4721802,1.6076951,-0.21877442,0.44179687,-0.4800293,76.0
602,-0.07877493,-0.4721802,1.6076951,0.19753419,0.14018555,-0.49383545,76.0
603,0.22413826,-0.7673193,2.3068225,0.19753419,0.14018555,-0.49383545,76.0
604,0.22413826,-0.7673193,2.3068225,0.55543214,-0.09239502,-0.5076416,76.0
605,0.87166905,-0.33510792,2.671471,0.55543214,-0.09239502,-0.5076416,76.0
606,0.87166905,-0.33510792,2.671471,0.5363159,-0.093457036,-0.49383545,76.0
607,1.4037806,0.57632285,2.2335272,0.5363159,-0.093457036,-0.49383545,76.0
608,1.4037806,0.57632285,2.2335272,0.26125488,0.06478272,-0.4258667,76.0
609,1.5521383,1.2145007,1.0865777,0.26125488,0.06478272,-0.4258667,76.0
610,1.5521383,1.2145007,1.0865777,0.06159668,0.107263185,-0.40993652,76.0
611,1.3231803,1.343744,-0.3535161,0.06159668,0.107263185,-0.40993652,76.0
612,1.3231803,1.343744,-0.3535161,0.053100586,0.16461182,-0.4619751,76.0
613,0.7563959,0.905879,-1.4804448,0.053100586,0.16461182,-0.4619751,76.0
614,0.7563959,0.905879,-1.4804448,0.20178223,0.1444336,-0.4619751,76.0
615,0.17765087,-0.11924207,-1.7334769,0.20178223,0.1444336,-0.4619751,76.0
616,0.17765087,-0.11924207,-1.7334769,0.52038574,-0.033984374,-0.6403931,76.0
617,0.043292567,-1.0433307,-1.1951555,0.52038574,-0.033984374,-0.6403931,76.0
618,0.043292567,-1.0433307,-1.1951555,0.74871826,-0.20284425,-0.88996583,76.0
619,0.18240017,-1.3014615,-0.30629528,0.74871826,-0.20284425,-0.88996583,76.0
620,0.18240017,-1.3014615,-0.30629528,0.724292,-0.24320069,-1.0673218,76.0
621,0.18240017,-1.3014615,-0.30629528,0.724292,-0.24320069,-1.0673218,76.0
622,0.24367404,-1.0929637,0.5446,0.724292,-0.24320069,-1.0673218,76.0
623,0.24367404,-1.0929637,0.5446,0.43861085,-0.20496826,-1.1321045,76.0
624,0.19865018,-0.5854183,0.805199,0.43861085,-0.20496826,-1.1321045,76.0
625,0.19865018,-0.5854183,0.805199,-0.027612304,-0.13806152,-1.1331666,76.0
626,0.087643296,0.11831087,0.16608298,-0.027612304,-0.13806152,-1.1331666,76.0
627,0.087643296,0.11831087,0.16608298,-0.48321533,-0.050976563,-1.0651978,76.0
628,-0.16928965,0.59683377,-0.89663804,-0.48321533,-0.050976563,-1.0651978,76.0
629,-0.16928965,0.59683377,-0.89663804,-0.71579593,-0.0021240234,-0.99510497,76.0
630,-0.5374825,0.55236936,-1.6514657,-0.71579593,-0.0021240234,-0.99510497,76.0
631,-0.5374825,0.55236936,-1.6514657,-0.66481936,0.039294433,-0.89102787,76.0
632,-0.8860773,0.08607274,-1.8505427,-0.66481936,0.039294433,-0.89102787,76.0
633,-0.8860773,0.08607274,-1.8505427,-0.3079834,0.04460449,-0.78164065,76.0
634,-1.0716671,-0.28418142,-1.7107687,-0.3079834,0.04460449,-0.78164065,76.0
635,-1.0716671,-0.28418142,-1.7107687,0.14018555,0.014868164,-0.7051758,76.0
636,-1.0118502,-0.100001395,-1.5080924,0.14018555,0.014868164,-0.7051758,76.0
637,-1.0118502,-0.100001395,-1.5080924,0.45560303,0.035046387,-0.68924564,76.0
638,-0.798738,0.4580238,-1.3968915,0.45560303,0.035046387,-0.68924564,76.0
639,-0.798738,0.4580238,-1.3968915,0.5384399,0.12319336,-0.67331547,76.0
640,-0.6163952,0.79437315,-1.3889244,0.5384399,0.12319336,-0.67331547,76.0
641,-0.6163952,0.79437315,-1.3889244,0.5384399,0.23364258,-0.6085327,76.0
642,-0.49810886,0.65939987,-1.3337835,0.5384399,0.23364258,-0.6085327,76.0
643,-0.49810886,0.65939987,-1.3337835,0.54375,0.30373535,-0.5278198,76.0
644,-0.31041336,0.33909214,-1.1030619,0.54375,0.30373535,-0.5278198,76.0
645,-0.31041336,0.33909214,-1.1030619,0.5331299,0.37382814,-0.45135498,76.0
646,-0.080423,0.13715506,-0.7530916,0.5331299,0.37382814,-0.45135498,76.0
647,-0.080423,0.13715506,-0.7530916,0.45454103,0.45666504,-0.3727661,76.0
648,0.04711175,0.0036571026,-0.39394045,0.45454103,0.45666504,-0.3727661,76.0
649,0.04711175,0.0036571026,-0.39394045,0.3812622,0.5097656,-0.32178956,76.0
650,0.008307099,-0.20353186,-0.08353615,0.3812622,0.5097656,-0.32178956,76.0
651,0.008307099,-0.20353186,-0.08353615,0.3971924,0.5012695,-0.26868898,76.0
652,0.049199343,-0.5438191,0.21800995,0.3971924,0.5012695,-0.26868898,76.0
653,0.049199343,-0.5438191,0.21800995,0.42268068,0.45772704,-0.20709229,76.0
654,0.16057527,-0.73384684,0.57003784,0.42268068,0.45772704,-0.20709229,76.0
655,0.16057527,-0.73384684,0.57003784,0.41206056,0.41843262,-0.14868164,76.0
656,0.2641902,-0.62421125,0.89849854,0.41206056,0.41843262,-0.14868164,76.0
657,0.2641902,-0.62421125,0.89849854,0.2984253,0.38551027,-0.11682129,76.0
658,0.32098353,-0.36968148,1.0595826,0.2984253,0.38551027,-0.11682129,76.0
659,0.32098353,-0.36968148,1.0595826,0.10195313,0.36533204,-0.057348635,76.0
660,0.24005097,-0.15405819,1.0094459,0.10195313,0.36533204,-0.057348635,76.0
661,0.24005097,-0.15405819,1.0094459,-0.1529297,0.28568116,0.013806152,76.0
662,-0.039721966,-0.15647408,0.9340582,-0.1529297,0.28568116,0.013806152,76.0
663,-0.039721966,-0.15647408,0.9340582,-0.26656494,0.07965088,0.015930176,76.0
664,-0.25165063,-0.51075053,1.1705132,-0.26656494,0.07965088,0.015930176,76.0
665,-0.25165063,-0.51075053,1.1705132,-0.15611573,-0.17523193,-0.040356446,76.0
666,-0.0075338483,-1.0417304,1.8183686,-0.15611573,-0.17523193,-0.040356446,76.0
667,-0.0075338483,-1.0417304,1.8183686,0.07327881,-0.30161133,-0.07327881,76.0
668,0.6555696,-1.5006206,2.458479,0.07327881,-0.30161133,-0.07327881,76.0
669,0.6555696,-1.5006206,2.458479,0.22727051,-0.37807617,-0.04460449,76.0
670,1.2279835,-1.445333,2.4832017,0.22727051,-0.37807617,-0.04460449,76.0
671,1.2279835,-1.445333,2.4832017,0.13487549,-0.4078125,-0.08283692,76.0
672,1.3287247,-0.6286663,1.7707899,0.13487549,-0.4078125,-0.08283692,76.0
673,1.3287247,-0.6286663,1.7707899,-0.16673584,-0.4088745,-0.12531738,76.0
674,1.0867835,0.2854581,0.7721617,-0.16673584,-0.4088745,-0.12531738,76.0
675,1.0867835,0.2854581,0.7721617,-0.53950197,-0.44179687,-0.18372802,76.0
676,0.84302306,0.72414285,-0.040864468,-0.53950197,-0.44179687,-0.18372802,76.0
677,0.84302306,0.72414285,-0.040864468,-0.80606693,-0.45135498,-0.2527588,76.0
678,0.71970654,0.6675711,-0.47619736,-0.80606693,-0.45135498,-0.2527588,76.0
679,0.71970654,0.6675711,-0.47619736,-0.84536135,-0.44604492,-0.3345337,76.0
680,0.67090684,0.36851737,-0.66253746,-0.84536135,-0.44604492,-0.3345337,76.0
681,0.67090684,0.36851737,-0.66253746,-0.69349366,-0.42692873,-0.3717041,76.0
682,0.6094184,0.21517524,-0.82771075,-0.69349366,-0.42692873,-0.3717041,76.0
683,0.6094184,0.21517524,-0.82771075,-0.4800293,-0.35152587,-0.3440918,76.0
684,0.38008845,0.4315274,-1.0471051,-0.4800293,-0.35152587,-0.3440918,76.0
685,0.38008845,0.4315274,-1.0471051,-0.32178956,-0.19647217,-0.2623169,76.0
686,-0.09245026,0.87948704,-1.3360971,-0.32178956,-0.19647217,-0.2623169,76.0
687,-0.09245026,0.87948704,-1.3360971,-0.23151855,-0.057348635,-0.13062744,76.0
688,-0.64617705,1.2217903,-1.6693416,-0.23151855,-0.057348635,-0.13062744,76.0
689,-0.64617705,1.2217903,-1.6693416,-0.18054199,0.03186035,0.015930176,76.0
690,-1.0437727,1.311966,-1.8586911,-0.18054199,0.03186035,0.015930176,76.0
691,-1.0437727,1.311966,-1.8586911,-0.1529297,0.08496094,0.0998291,76.0
692,-1.2165489,1.2104615,-1.7409325,-0.1529297,0.08496094,0.0998291,76.0
693,-1.2165489,1.2104615,-1.7409325,-0.124255374,0.1539917,0.118945315,76.0
694,-1.2513642,0.8683326,-1.4481292,-0.124255374,0.1539917,0.118945315,76.0
695,-1.2513642,0.8683326,-1.4481292,-0.021240234,0.20072022,0.070092775,76.0
696,-1.1165943,0.2861457,-1.1492382,-0.021240234,0.20072022,0.070092775,76.0
697,-1.1165943,0.2861457,-1.1492382,0.21558838,0.22196046,-0.0021240234,76.0
698,-0.7490982,-0.22367144,-0.87615323,0.21558838,0.22196046,-0.0021240234,76.0
699,-0.7490982,-0.22367144,-0.87615323,0.41524658,0.25806886,-0.07540283,76.0
700,-0.33906126,-0.37437177,-0.5461252,0.41524658,0.25806886,-0.07540283,76.0
701,-0.33906126,-0.37437177,-0.5461252,0.42799073,0.30161133,-0.16036378,76.0
702,-0.1378994,-0.3338846,-0.037730217,0.42799073,0.30161133,-0.16036378,76.0
703,-0.1378994,-0.3338846,-0.037730217,0.36320803,0.32709962,-0.25700685,76.0
704,-0.07571256,-0.44340163,0.57667613,0.36320803,0.32709962,-0.25700685,76.0
705,-0.07571256,-0.44340163,0.57667613,0.31223145,0.27506104,-0.3451538,76.0
706,0.07461065,-0.66622037,1.0829352,0.31223145,0.27506104,-0.3451538,76.0
707,0.07461065,-0.66622037,1.0829352,0.22939454,0.1901001,-0.45772704,76.0
708,0.34153664,-0.7680593,1.4003448,0.22939454,0.1901001,-0.45772704,76.0
709,0.34153664,-0.7680593,1.4003448,0.12213135,0.14868164,-0.53525394,76.0
710,0.5640618,-0.65751386,1.6111572,0.12213135,0.14868164,-0.53525394,76.0
711,0.5640618,-0.65751386,1.6111572,-0.015930176,0.17735596,-0.5278198,76.0
712,0.53314644,-0.32770786,1.7161597,-0.015930176,0.17735596,-0.5278198,76.0
713,0.53314644,-0.32770786,1.7161597,-0.1444336,0.26337892,-0.40356445,76.0
714,0.29502302,0.08280441,1.5334381,-0.1444336,0.26337892,-0.40356445,76.0
715,0.29502302,0.08280441,1.5334381,-0.14655761,0.2347046,-0.3090454,76.0
716,0.32100376,0.5033651,0.93110836,-0.14655761,0.2347046,-0.3090454,76.0
717,0.32100376,0.5033651,0.93110836,-0.24638672,0.04141846,-0.41949463,76.0
718,0.5343177,0.9329655,0.18625629,-0.24638672,0.04141846,-0.41949463,76.0
719,0.5343177,0.9329655,0.18625629,-0.32816163,0.046728518,-0.35789797,76.0
720,0.35853323,0.9930643,-0.3216371,-0.32816163,0.046728518,-0.35789797,76.0
721,0.35853323,0.9930643,-0.3216371,-0.19434814,-0.07434082,-0.29630128,76.0
722,0.040073663,0.3487605,-0.39650646,-0.19434814,-0.07434082,-0.29630128,76.0
723,0.040073663,0.3487605,-0.39650646,0.057348635,-0.36851808,-0.36108398,76.0
724,0.10304282,-0.45943153,0.0023749173,0.057348635,-0.36851808,-0.36108398,76.0
725,0.10304282,-0.45943153,0.0023749173,0.33984375,-0.6945557,-0.4991455,76.0
726,0.55426043,-0.8199622,0.8694658,0.33984375,-0.6945557,-0.4991455,76.0
727,0.55426043,-0.8199622,0.8694658,0.4598511,-0.8241211,-0.630835,76.0
728,0.55426043,-0.8199622,0.8694658,0.4598511,-0.8241211,-0.630835,76.0
729,1.1941164,-0.79423887,1.8872353,0.4598511,-0.8241211,-0.630835,76.0
730,1.1941164,-0.79423887,1.8872353,0.2347046,-0.7540283,-0.6202149,76.0
731,1.6553297,-0.34989303,2.1895123,0.2347046,-0.7540283,-0.6202149,76.0
732,1.6553297,-0.34989303,2.1895123,-0.2899292,-0.50233155,-0.5501221,76.0
733,1.437423,0.35701185,1.3581896,-0.2899292,-0.50233155,-0.5501221,76.0
734,1.437423,0.35701185,1.3581896,-0.7720825,-0.29099122,-0.48215333,76.0
735,0.60803175,0.6787003,-0.0053551197,-0.7720825,-0.29099122,-0.48215333,76.0
736,0.60803175,0.6787003,-0.0053551197,-0.901648,-0.18266602,-0.47896728,76.0
737,-0.24965858,0.46224737,-1.1143671,-0.901648,-0.18266602,-0.47896728,76.0
738,-0.24965858,0.46224737,-1.1143671,-0.71154785,-0.095581055,-0.48109132,76.0
739,-0.85793006,0.12349665,-1.7088888,-0.71154785,-0.095581055,-0.48109132,76.0
740,-0.85793006,0.12349665,-1.7088888,-0.39082032,0.0010620117,-0.48427734,76.0
741,-1.2673866,0.114739716,-1.9703826,-0.39082032,0.0010620117,-0.48427734,76.0
742,-1.2673866,0.114739716,-1.9703826,-0.08814698,0.07434082,-0.5129517,76.0
743,-1.4464898,0.3544261,-2.0490723,-0.08814698,0.07434082,-0.5129517,76.0
744,-1.4464898,0.3544261,-2.0490723,0.14549561,0.090270996,-0.54906005,76.0
745,-1.3590596,0.4925741,-1.9305907,0.14549561,0.090270996,-0.54906005,76.0
746,-1.3590596,0.4925741,-1.9305907,0.32709962,0.09451904,-0.5320679,76.0
747,-1.1734903,0.41323662,-1.5949609,0.32709962,0.09451904,-0.5320679,76.0
748,-1.1734903,0.41323662,-1.5949609,0.47471926,0.11257324,-0.4715332,76.0
749,-1.074266,0.22115326,-1.1436933,0.47471926,0.11257324,-0.4715332,76.0
750,-1.074266,0.22115326,-1.1436933,0.5384399,0.15505372,-0.40144044,76.0
751,-1.0273082,0.030719042,-0.7396983,0.5384399,0.15505372,-0.40144044,76.0
752,-1.0273082,0.030719042,-0.7396983,0.55755615,0.19753419,-0.31966552,76.0
753,-0.91402185,-0.12316644,-0.45712733,0.55755615,0.19753419,-0.31966552,76.0
754,-0.91402185,-0.12316644,-0.45712733,0.5543701,0.22514649,-0.28461915,76.0
755,-0.6989665,-0.2061137,-0.25146842,0.5543701,0.22514649,-0.28461915,76.0
756,-0.6989665,-0.2061137,-0.25146842,0.5055176,0.2623169,-0.27506104,76.0
757,-0.4859432,-0.23135829,-0.048074245,0.5055176,0.2623169,-0.27506104,76.0
758,-0.4859432,-0.23135829,-0.048074245,0.3993164,0.3334717,-0.26868898,76.0
759,-0.35237765,-0.27256227,0.1502614,0.3993164,0.3334717,-0.26868898,76.0
760,-0.35237765,-0.27256227,0.1502614,0.2888672,0.41206056,-0.24001466,76.0
761,-0.25017607,-0.40608692,0.2978214,0.2888672,0.41206056,-0.24001466,76.0
762,-0.25017607,-0.40608692,0.2978214,0.1985962,0.46834716,-0.21027832,76.0
763,-0.09498954,-0.5938759,0.42207062,0.1985962,0.46834716,-0.21027832,76.0
764,-0.09498954,-0.5938759,0.42207062,0.16779785,0.48746338,-0.1985962,76.0
765,0.08892536,-0.67779845,0.55071807,0.16779785,0.48746338,-0.1985962,76.0
766,0.08892536,-0.67779845,0.55071807,0.12000733,0.53525394,-0.16673584,76.0
767,0.17786646,-0.47954345,0.61691725,0.12000733,0.53525394,-0.16673584,76.0
768,0.17786646,-0.47954345,0.61691725,-0.057348635,0.5968506,-0.093457036,76.0
769,0.08551824,-0.19331491,0.5102208,-0.057348635,0.5968506,-0.093457036,76.0
770,0.08551824,-0.19331491,0.5102208,-0.2357666,0.55543214,-0.020178223,76.0
771,-0.037908673,-0.30991316,0.49061078,-0.2357666,0.55543214,-0.020178223,76.0
772,-0.037908673,-0.30991316,0.49061078,-0.22408448,0.36108398,-0.05628662,76.0
773,0.016242862,-1.0443417,0.97841394,-0.22408448,0.36108398,-0.05628662,76.0
774,0.016242862,-1.0443417,0.97841394,0.026550293,0.16248779,-0.08920898,76.0
775,0.25845337,-1.8927,1.7189616,0.026550293,0.16248779,-0.08920898,76.0
776,0.25845337,-1.8927,1.7189616,0.32391357,-0.07115479,-0.10407715,76.0
777,0.5447265,-2.0622923,2.0999253,0.32391357,-0.07115479,-0.10407715,76.0
778,0.5447265,-2.0622923,2.0999253,0.36745605,-0.24851075,-0.06584473,76.0
779,0.7207909,-1.4803027,2.0638146,0.36745605,-0.24851075,-0.06584473,76.0
780,0.7207909,-1.4803027,2.0638146,0.13806152,-0.37807617,0.0361084,76.0
781,0.8726777,-0.8287978,2.0408955,0.13806152,-0.37807617,0.0361084,76.0
782,0.8726777,-0.8287978,2.0408955,-0.11151123,-0.47578126,0.1274414,76.0
783,1.1820166,-0.5981457,2.2000992,-0.11151123,-0.47578126,0.1274414,76.0
784,1.1820166,-0.5981457,2.2000992,-0.36533204,-0.45666504,0.21452637,76.0
785,1.5179888,-0.46826267,2.0050378,-0.36533204,-0.45666504,0.21452637,76.0
786,1.5179888,-0.46826267,2.0050378,-0.7147339,-0.31010744,0.29099122,76.0
787,1.5567495,-0.017090559,1.0271869,-0.7147339,-0.31010744,0.29099122,76.0
788,1.5567495,-0.017090559,1.0271869,-0.99085695,-0.13275146,0.40037844,76.0
789,1.1669939,0.7085322,-0.3690343,-0.99085695,-0.13275146,0.40037844,76.0
790,1.1669939,0.7085322,-0.3690343,-1.0970582,0.020178223,0.47471926,76.0
791,0.45504284,1.3917403,-1.5897954,-1.0970582,0.020178223,0.47471926,76.0
792,0.45504284,1.3917403,-1.5897954,-1.0747559,0.15930176,0.5235718,76.0
793,-0.27161026,1.7080944,-2.391563,-1.0747559,0.15930176,0.5235718,76.0
794,-0.27161026,1.7080944,-2.391563,-0.9420044,0.26337892,0.5511841,76.0
795,-0.6933991,1.591793,-2.836761,-0.9420044,0.26337892,0.5511841,76.0
796,-0.6933991,1.591793,-2.836761,-0.6754395,0.31116945,0.63720703,76.0
797,-0.7800855,1.28049,-3.00625,-0.6754395,0.31116945,0.63720703,76.0
798,-0.7800855,1.28049,-3.00625,-0.28568116,0.27612305,0.7678345,76.0
799,-0.719857,1.1176537,-2.831831,-0.28568116,0.27612305,0.7678345,76.0
800,-0.719857,1.1176537,-2.831831,0.019116212,0.27399904,0.90802,76.0
801,-0.7362494,1.0819404,-2.3195298,0.019116212,0.27399904,0.90802,76.0
802,-0.7362494,1.0819404,-2.3195298,0.18903808,0.2888672,0.996167,76.0
803,-0.80192673,0.9401251,-1.6966394,0.18903808,0.2888672,0.996167,76.0
804,-0.80192673,0.9401251,-1.6966394,0.27612305,0.32178956,1.0269654,76.0
805,-0.5895028,0.6163335,-1.1965694,0.27612305,0.32178956,1.0269654,76.0
806,-0.5895028,0.6163335,-1.1965694,0.3982544,0.33771974,1.0205933,76.0
807,0.013688266,0.2185185,-0.8156173,0.3982544,0.33771974,1.0205933,76.0
808,0.013688266,0.2185185,-0.8156173,0.47578126,0.38763428,1.0290893,76.0
809,0.58529145,-0.14342248,-0.41664183,0.47578126,0.38763428,1.0290893,76.0
810,0.58529145,-0.14342248,-0.41664183,0.5320679,0.4354248,0.9791748,76.0
811,0.80793047,-0.42347825,0.031383753,0.5320679,0.4354248,0.9791748,76.0
812,0.80793047,-0.42347825,0.031383753,0.5628662,0.4619751,0.8251831,76.0
813,0.818671,-0.6212167,0.44508994,0.5628662,0.4619751,0.8251831,76.0
814,0.818671,-0.6212167,0.44508994,0.5777344,0.45029297,0.634021,76.0
815,0.7634207,-0.740052,0.75824475,0.5777344,0.45029297,0.634021,76.0
816,0.7634207,-0.740052,0.75824475,0.52675784,0.41737062,0.43754885,76.0
817,0.7634207,-0.740052,0.75824475,0.52675784,0.41737062,0.43754885,77.0
818,0.6321843,-0.74746156,0.9716226,0.52675784,0.41737062,0.43754885,77.0
819,0.6321843,-0.74746156,0.9716226,0.44073486,0.3695801,0.2814331,77.0
820,0.43693644,-0.58839893,1.128348,0.44073486,0.3695801,0.2814331,77.0
821,0.43693644,-0.58839893,1.128348,0.27612305,0.33134767,0.1529297,77.0
822,0.2584114,-0.18901747,1.2363088,0.27612305,0.33134767,0.1529297,77.0
823,0.2584114,-0.18901747,1.2363088,-0.007434082,0.36745605,0.10195313,77.0
824,0.04374087,0.34780946,1.1623746,-0.007434082,0.36745605,0.10195313,77.0
825,0.04374087,0.34780946,1.1623746,-0.3090454,0.41418457,0.08920898,77.0
826,-0.21067381,0.62092334,0.75911117,-0.3090454,0.41418457,0.08920898,77.0
827,-0.21067381,0.62092334,0.75911117,-0.51932377,0.28674316,0.007434082,77.0
828,-0.33727688,0.44391888,0.27308482,-0.51932377,0.28674316,0.007434082,77.0
829,-0.33727688,0.44391888,0.27308482,-0.54587406,0.11469727,-0.06159668,77.0
830,-0.4826389,0.073616564,0.15909284,-0.54587406,0.11469727,-0.06159668,77.0
831,-0.4826389,0.073616564,0.15909284,-0.49171144,-0.04991455,-0.040356446,77.0
832,-0.84935576,-0.2051082,0.5031776,-0.49171144,-0.04991455,-0.040356446,77.0
833,-0.84935576,-0.2051082,0.5031776,-0.452417,-0.23364258,0.020178223,77.0
834,-1.2345628,-0.3282467,0.9584625,-0.452417,-0.23364258,0.020178223,77.0
835,-1.2345628,-0.3282467,0.9584625,-0.45347902,-0.49277344,0.058410645,77.0
836,-1.2313269,-0.38991672,1.3714331,-0.45347902,-0.49277344,0.058410645,77.0
837,-1.2313269,-0.38991672,1.3714331,-0.36745605,-0.73597413,0.10938721,77.0
838,-0.580667,-0.73174536,2.021768,-0.36745605,-0.73597413,0.10938721,77.0
839,-0.580667,-0.73174536,2.021768,-0.12531738,-0.817749,0.31116945,77.0
840,0.3853931,-0.9964559,2.4859571,-0.12531738,-0.817749,0.31116945,77.0
841,0.3853931,-0.9964559,2.4859571,-0.15717773,-0.7625244,0.5628662,77.0
842,1.0802262,-0.5882536,2.0436852,-0.15717773,-0.7625244,0.5628662,77.0
843,1.0802262,-0.5882536,2.0436852,-0.29948732,-0.63720703,0.70942384,77.0
844,1.3732264,0.08054459,0.9818964,-0.29948732,-0.63720703,0.70942384,77.0
845,1.3732264,0.08054459,0.9818964,-0.36108398,-0.48427734,0.87403566,77.0
846,1.3881563,0.5523263,-0.06824255,-0.36108398,-0.48427734,0.87403566,77.0
847,1.3881563,0.5523263,-0.06824255,-0.35789797,-0.2442627,1.0205933,77.0
848,1.1070826,0.8350373,-0.9053509,-0.35789797,-0.2442627,1.0205933,77.0
849,1.1070826,0.8350373,-0.9053509,-0.35046387,0.032922365,1.1161743,77.0
850,0.473984,0.9867432,-1.6578746,-0.35046387,0.032922365,1.1161743,77.0
851,0.473984,0.9867432,-1.6578746,-0.31966552,0.24320069,1.1533448,77.0
852,-0.32058084,0.95158947,-2.3773372,-0.31966552,0.24320069,1.1533448,77.0
853,-0.32058084,0.95158947,-2.3773372,-0.10938721,0.33771974,1.1406006,77.0
854,-0.87396955,0.84501183,-2.8609762,-0.10938721,0.33771974,1.1406006,77.0
855,-0.87396955,0.84501183,-2.8609762,0.10513916,0.35577393,1.0503296,77.0
856,-0.99509853,0.7308435,-2.8947992,0.10513916,0.35577393,1.0503296,77.0
857,-0.99509853,0.7308435,-2.8947992,0.25806886,0.3536499,0.9324463,77.0
858,-0.82957494,0.46597362,-2.4909616,0.25806886,0.3536499,0.9324463,77.0
859,-0.82957494,0.46597362,-2.4909616,0.3812622,0.35046387,0.75615233,77.0
860,-0.54283476,0.03361869,-1.8860065,0.3812622,0.35046387,0.75615233,77.0
861,-0.54283476,0.03361869,-1.8860065,0.48321533,0.33665773,0.5936646,77.0
862,-0.20650904,-0.3720919,-1.3213174,0.48321533,0.33665773,0.5936646,77.0
863,-0.20650904,-0.3720919,-1.3213174,0.5129517,0.3334717,0.5065796,77.0
864,0.08884551,-0.54669696,-0.87427807,0.5129517,0.3334717,0.5065796,77.0
865,0.08884551,-0.54669696,-0.87427807,0.40356445,0.34727785,0.47896728,77.0
866,0.22195531,-0.39410806,-0.546566,0.40356445,0.34727785,0.47896728,77.0
867,0.22195531,-0.39410806,-0.546566,0.1444336,0.34727785,0.50233155,77.0
868,0.2278206,-0.1418612,-0.29930115,0.1444336,0.34727785,0.50233155,77.0
869,0.2278206,-0.1418612,-0.29930115,-0.16248779,0.33984375,0.5543701,77.0
870,0.15690249,-0.0702883,-0.032360792,-0.16248779,0.33984375,0.5543701,77.0
871,0.15690249,-0.0702883,-0.032360792,-0.42055663,0.3440918,0.66269535,77.0
872,-0.011379868,-0.22728777,0.21211195,-0.42055663,0.3440918,0.66269535,77.0
873,-0.011379868,-0.22728777,0.21211195,-0.6265869,0.34940186,0.8092529,77.0
874,-0.27721915,-0.53569984,0.28608358,-0.6265869,0.34940186,0.8092529,77.0
875,-0.27721915,-0.53569984,0.28608358,-0.7062378,0.30267334,1.0301514,77.0
876,-0.63284713,-0.94596714,0.22104216,-0.7062378,0.30267334,1.0301514,77.0
877,-0.63284713,-0.94596714,0.22104216,-0.6180908,0.19541016,1.351941,77.0
878,-0.99547446,-1.3001819,0.28198504,-0.6180908,0.19541016,1.351941,77.0
879,-0.99547446,-1.3001819,0.28198504,-0.4619751,0.0637207,1.7268311,77.0
880,-1.2065115,-1.2743618,0.6474142,-0.4619751,0.0637207,1.7268311,77.0
881,-1.2065115,-1.2743618,0.6474142,-0.45772704,-0.06903076,1.9328613,77.0
882,-1.1816765,-0.8933176,1.1941644,-0.45772704,-0.06903076,1.9328613,77.0
883,-1.1816765,-0.8933176,1.1941644,-0.60216063,-0.27399904,1.8702027,77.0
884,-0.93633246,-0.76724195,1.6983979,-0.60216063,-0.27399904,1.8702027,77.0
885,-0.93633246,-0.76724195,1.6983979,-0.74659425,-0.56817627,1.5760254,77.0
886,-0.38627303,-1.5301754,2.3507106,-0.74659425,-0.56817627,1.5760254,77.0
887,-0.38627303,-1.5301754,2.3507106,-0.52888185,-0.7805786,1.2977784,77.0
888,0.2761866,-2.5627513,2.916506,-0.52888185,-0.7805786,1.2977784,77.0
889,0.2761866,-2.5627513,2.916506,-0.41949463,-0.8336792,1.2584839,77.0
890,0.49022424,-2.4960384,2.627785,-0.41949463,-0.8336792,1.2584839,77.0
891,0.49022424,-2.4960384,2.627785,-0.63933104,-0.8878418,1.2372437,77.0
892,0.29883218,-1.2220383,1.4166689,-0.63933104,-0.8878418,1.2372437,77.0
893,0.29883218,-1.2220383,1.4166689,-0.88996583,-1.1140503,1.1214844,77.0
894,0.16687334,0.3177917,-0.12219465,-0.88996583,-1.1140503,1.1214844,77.0
895,0.16687334,0.3177917,-0.12219465,-1.2468017,-1.2722901,1.0099732,77.0
896,0.23855239,1.1672461,-1.3288226,-1.2468017,-1.2722901,1.0099732,77.0
897,0.23855239,1.1672461,-1.3288226,-1.4942505,-1.354065,0.905896,77.0
898,0.47543663,0.9968951,-1.9185879,-1.4942505,-1.354065,0.905896,77.0
899,0.47543663,0.9968951,-1.9185879,-1.4167236,-1.4114136,0.8506714,77.0
900,0.7802028,0.41409326,-2.0208933,-1.4167236,-1.4114136,0.8506714,77.0
901,0.7802028,0.41409326,-2.0208933,-1.0959961,-1.4337158,0.85385746,77.0
902,0.9899703,0.03375268,-1.760135,-1.0959961,-1.4337158,0.85385746,77.0
903,0.9899703,0.03375268,-1.760135,-0.6754395,-1.3869873,0.9165161,77.0
904,0.9376428,0.056872845,-1.4074123,-0.6754395,-1.3869873,0.9165161,77.0
905,0.9376428,0.056872845,-1.4074123,-0.41418457,-1.3391968,0.9653687,77.0
906,0.6219282,0.4378811,-1.3550802,-0.41418457,-1.3391968,0.9653687,77.0
907,0.6219282,0.4378811,-1.3550802,-0.28461915,-1.3678712,0.90695804,77.0
908,0.316671,0.8916501,-1.5560857,-0.28461915,-1.3678712,0.90695804,77.0
909,0.316671,0.8916501,-1.5560857,-0.26019287,-1.4390259,0.77314454,77.0
910,0.3792035,0.90022194,-1.4894242,-0.26019287,-1.4390259,0.77314454,77.0
911,0.3792035,0.90022194,-1.4894242,-0.09239502,-1.4581422,0.69986576,77.0
912,0.7397886,0.37458432,-1.0312977,-0.09239502,-1.4581422,0.69986576,77.0
913,0.7397886,0.37458432,-1.0312977,0.107263185,-1.5611572,0.6531372,77.0
914,1.0017918,-0.08906543,-0.6222427,0.107263185,-1.5611572,0.6531372,77.0
915,1.0017918,-0.08906543,-0.6222427,0.26868898,-1.7024049,0.5671143,77.0
916,1.0143852,-0.020361185,-0.6105385,0.26868898,-1.7024049,0.5671143,77.0
917,1.0143852,-0.020361185,-0.6105385,0.2803711,-1.9413575,0.39188233,77.0
918,1.0143852,-0.020361185,-0.6105385,0.2803711,-1.9413575,0.39188233,79.0
919,0.9777801,0.50036144,-0.96493244,0.2803711,-1.9413575,0.39188233,79.0
920,0.9777801,0.50036144,-0.96493244,0.10620117,-2.2111084,0.17629395,79.0
921,1.0794408,0.955758,-1.1883645,0.10620117,-2.2111084,0.17629395,79.0
922,1.0794408,0.955758,-1.1883645,-0.21134034,-2.441565,-0.06159668,79.0
923,1.3192167,0.9511543,-0.98721504,-0.21134034,-2.441565,-0.06159668,79.0
924,1.3192167,0.9511543,-0.98721504,-0.5341919,-2.6592774,-0.25806886,79.0
925,1.4086814,0.7468975,-0.65301657,-0.5341919,-2.6592774,-0.25806886,79.0
926,1.4086814,0.7468975,-0.65301657,-0.9197022,-2.8546875,-0.4704712,79.0
927,1.0460858,0.71960056,-0.50219846,-0.9197022,-2.8546875,-0.4704712,79.0
928,1.0460858,0.71960056,-0.50219846,-1.4772583,-3.0670898,-0.65419924,79.0
929,0.272269,0.89916676,-0.5747566,-1.4772583,-3.0670898,-0.65419924,79.0
930,0.272269,0.89916676,-0.5747566,-2.255713,-3.349585,-0.8050049,79.0
931,-0.467695,1.0876806,-0.6484895,-2.255713,-3.349585,-0.8050049,79.0
932,-0.467695,1.0876806,-0.6484895,-3.000183,-3.6979249,-1.0450195,79.0
933,-0.6922469,1.2082427,-0.33103538,-3.000183,-3.6979249,-1.0450195,79.0
934,-0.6922469,1.2082427,-0.33103538,-3.5641115,-3.9379394,-1.2255615,79.0
935,-0.4130504,1.2386767,0.5888581,-3.5641115,-3.9379394,-1.2255615,79.0
936,-0.4130504,1.2386767,0.5888581,-3.896521,-3.9570558,-1.4719483,79.0
937,0.1740396,0.7580068,1.8444507,-3.896521,-3.9570558,-1.4719483,79.0
938,0.1740396,0.7580068,1.8444507,-3.3272827,-3.8189943,-1.8648926,79.0
939,0.7947736,-0.33059406,2.960851,-3.3272827,-3.8189943,-1.8648926,79.0
940,0.7947736,-0.33059406,2.960851,-1.8510865,-3.5152588,-2.2132325,79.0
941,1.1199498,-1.4200783,3.5047894,-1.8510865,-3.5152588,-2.2132325,79.0
942,1.1199498,-1.4200783,3.5047894,-0.32922363,-3.3793213,-2.524402,79.0
943,1.356983,-1.9759431,3.1306992,-0.32922363,-3.3793213,-2.524402,79.0
944,1.356983,-1.9759431,3.1306992,0.6711914,-3.3145387,-2.540332,79.0
945,1.7589626,-1.8821461,2.2287538,0.6711914,-3.3145387,-2.540332,79.0
946,1.7589626,-1.8821461,2.2287538,0.991919,-3.0437257,-2.342798,79.0
947,1.940361,-1.336088,1.7390943,0.991919,-3.0437257,-2.342798,79.0
948,1.940361,-1.336088,1.7390943,1.2797241,-2.5605104,-2.0326905,79.0
949,1.3833799,-0.36324298,2.0578403,1.2797241,-2.5605104,-2.0326905,79.0
950,1.3833799,-0.36324298,2.0578403,1.2457398,-2.080481,-1.4921265,79.0
951,0.240798,0.9601136,2.5473466,1.2457398,-2.080481,-1.4921265,79.0
952,0.240798,0.9601136,2.5473466,0.38763428,-1.628064,-0.97386473,79.0
953,-0.81472254,1.9063233,2.6486807,0.38763428,-1.628064,-0.97386473,79.0
954,-0.81472254,1.9063233,2.6486807,-0.5299439,-1.3699951,-0.56605226,79.0
955,-1.1010699,1.8942115,2.5958242,-0.5299439,-1.3699951,-0.56605226,79.0
956,-1.1010699,1.8942115,2.5958242,-0.903772,-1.0556396,-0.28461915,79.0
957,-0.9599333,1.676502,3.0278678,-0.903772,-1.0556396,-0.28461915,79.0
958,-0.9599333,1.676502,3.0278678,-1.7799317,-0.51188964,-0.31966552,79.0
959,-1.311306,1.6320219,3.9795208,-1.7799317,-0.51188964,-0.31966552,79.0
960,-1.311306,1.6320219,3.9795208,-3.6756227,0.16779785,-0.37595215,79.0
961,-2.1493623,0.26079333,3.839366,-3.6756227,0.16779785,-0.37595215,79.0
962,-2.1493623,0.26079333,3.839366,-4.0207763,0.48427734,0.08814698,79.0
963,-3.0179887,-1.9553058,1.7148399,-4.0207763,0.48427734,0.08814698,79.0
964,-3.0179887,-1.9553058,1.7148399,-3.2731202,0.59260255,0.28461915,79.0
965,-3.5721424,-2.471874,-0.86472464,-3.2731202,0.59260255,0.28461915,79.0
966,-3.5721424,-2.471874,-0.86472464,-2.1197755,0.52038574,0.18054199,79.0
967,-3.5034049,-0.9080657,-2.5676708,-2.1197755,0.52038574,0.18054199,79.0
968,-3.5034049,-0.9080657,-2.5676708,-1.1490967,0.38763428,-0.09770508,79.0
969,-2.8337297,1.0449097,-3.356566,-1.1490967,0.38763428,-0.09770508,79.0
970,-2.8337297,1.0449097,-3.356566,-1.0205933,0.4163086,-0.27293703,79.0
971,-1.906437,1.5396509,-3.5539174,-1.0205933,0.4163086,-0.27293703,79.0
972,-1.906437,1.5396509,-3.5539174,-0.90695804,0.33240968,-0.37382814,79.0
973,-0.92981267,0.6871163,-3.386835,-0.90695804,0.33240968,-0.37382814,79.0
974,-0.92981267,0.6871163,-3.386835,-0.6552612,0.23895264,-0.41312256,79.0
975,-0.06594491,-0.086879194,-3.0516312,-0.6552612,0.23895264,-0.41312256,79.0
976,-0.06594491,-0.086879194,-3.0516312,-0.4428589,0.19753419,-0.38444826,79.0
977,0.4333769,-0.21392474,-2.634298,-0.4428589,0.19753419,-0.38444826,79.0
978,0.4333769,-0.21392474,-2.634298,-0.022302246,0.13699952,-0.3462158,79.0
979,0.5649144,-0.07142055,-2.1130905,-0.022302246,0.13699952,-0.3462158,79.0
980,0.5649144,-0.07142055,-2.1130905,0.32709962,0.039294433,-0.2538208,79.0
981,0.5749296,-0.021626174,-1.5410949,0.32709962,0.039294433,-0.2538208,79.0
982,0.5749296,-0.021626174,-1.5410949,0.54375,-0.098767094,-0.2081543,79.0
983,0.66471666,0.007955402,-1.0158349,0.54375,-0.098767094,-0.2081543,79.0
984,0.66471666,0.007955402,-1.0158349,0.62764895,-0.21134034,-0.1274414,79.0
985,0.7864608,0.12278277,-0.5397065,0.62764895,-0.21134034,-0.1274414,79.0
986,0.7864608,0.12278277,-0.5397065,0.59472656,-0.26125488,-0.058410645,79.0
987,0.84242547,0.25541615,-0.14068857,0.59472656,-0.26125488,-0.058410645,79.0
988,0.84242547,0.25541615,-0.14068857,0.41737062,-0.2888672,-0.014868164,79.0
989,0.84242547,0.25541615,-0.14068857,0.04885254,-0.32285157,0.053100586,79.0
990,0.75423825,0.36138856,0.04197797,0.04885254,-0.32285157,0.053100586,79.0
991,2.0081024,0.57431597,-0.051451802,0.04885254,-0.32285157,0.053100586,79.0
992,2.0081024,0.57431597,-0.051451802,-0.33665773,-0.41312256,0.083898924,79.0
993,2.0081024,0.57431597,-0.051451802,-0.61065674,-0.5915405,0.02442627,79.0
994,2.0081024,0.57431597,-0.051451802,-1.0163453,-0.66588134,0.08071289,79.0
995,3.0422854,0.63977504,0.11829901,-1.0163453,-0.66588134,0.08071289,79.0
996,3.0422854,0.63977504,0.11829901,-1.2521118,-0.5065796,0.09451904,79.0
997,3.0360134,0.5460608,0.26861382,-1.2521118,-0.5065796,0.09451904,79.0
998,3.0360134,0.5460608,0.26861382,-1.4273437,-0.20390625,0.26444092,79.0
999,1.3937643,0.35768604,0.38491058,-1.4273437,-0.20390625,0.26444092,79.0
1000,1.3937643,0.35768604,0.38491058,-1.4751343,-0.07965088,0.32391357,79.0
1001,-0.6692414,0.24376607,0.532843,-1.4751343,-0.07965088,0.32391357,79.0
1002,-0.6692414,0.24376607,0.532843,-1.2489258,-0.0998291,0.29948732,79.0
1003,-1.3799976,0.25153136,0.602251,-1.2489258,-0.0998291,0.29948732,79.0
1004,-1.3799976,0.25153136,0.602251,-0.87615967,-0.17735596,0.19222413,79.0
1005,-0.39642978,0.37679875,0.45207667,-0.87615967,-0.17735596,0.19222413,79.0
1006,-0.39642978,0.37679875,0.45207667,-0.6403931,-0.09451904,0.21134034,79.0
1007,0.87510467,0.53658295,0.1539343,-0.6403931,-0.09451904,0.21134034,79.0
1008,0.87510467,0.53658295,0.1539343,-0.6467652,0.14230958,0.30161133,79.0
1009,0.94855785,0.67993784,-0.0770845,-0.6467652,0.14230958,0.30161133,79.0
1010,0.94855785,0.67993784,-0.0770845,-0.8050049,0.32072756,0.3706421,79.0
1011,-0.07895899,0.80973387,-0.09435803,-0.8050049,0.32072756,0.3706421,79.0
1012,-0.07895899,0.80973387,-0.09435803,-1.0184692,0.3536499,0.3451538,79.0
1013,-1.0456257,0.9280362,0.08195987,-1.0184692,0.3536499,0.3451538,79.0
1014,-1.0456257,0.9280362,0.08195987,-1.1501588,0.38869628,0.34090576,79.0
1015,-1.4034318,0.97009015,0.33578277,-1.1501588,0.38869628,0.34090576,79.0
1016,-1.4034318,0.97009015,0.33578277,-1.2308716,0.45135498,0.33134767,79.0
1017,-1.397428,0.94853306,0.48982984,-1.2308716,0.45135498,0.33134767,79.0
1018,-1.397428,0.94853306,0.48982984,-1.3391968,0.49383545,0.22302246,79.0
1019,-1.1900494,0.86305,0.45612168,-1.3391968,0.49383545,0.22302246,79.0
1020,-1.1900494,0.86305,0.45612168,-1.4050416,0.51082766,0.16567384,79.0
1021,-1.0959849,0.76812553,0.37278306,-1.4050416,0.51082766,0.16567384,79.0
1022,-1.0959849,0.76812553,0.37278306,-1.536731,0.5713623,-0.083898924,79.0
1023,-0.8823787,0.5968003,0.28100234,-1.536731,0.5713623,-0.083898924,79.0
1024,-0.8823787,0.5968003,0.28100234,-1.5632813,0.6000366,-0.17523193,79.0
1025,-0.64700407,0.24489641,0.0047091246,-1.5632813,0.6000366,-0.17523193,79.0
1026,-0.64700407,0.24489641,0.0047091246,-1.6514282,0.6977417,-0.37595215,79.0
1027,-0.489698,0.09354901,-0.14287579,-1.6514282,0.6977417,-0.37595215,79.0
1028,-0.489698,0.09354901,-0.14287579,-1.6631104,0.71367186,-0.4364868,79.0
1029,-0.21045956,-0.14035845,-0.55719614,-1.6631104,0.71367186,-0.4364868,79.0
1030,-0.21045956,-0.14035845,-0.55719614,-1.6015137,0.724292,-0.59897465,79.0
1031,-0.08644627,-0.19028974,-0.5339039,-1.6015137,0.724292,-0.59897465,79.0
1032,-0.08644627,-0.19028974,-0.5339039,-1.5515991,0.72216797,-0.6488892,79.0
1033,0.2055012,-0.36778355,-0.39122224,-1.5515991,0.72216797,-0.6488892,79.0
1034,0.2055012,-0.36778355,-0.39122224,-1.3954834,0.724292,-0.80819094,79.0
1035,0.19859286,-0.46580887,-0.2829607,-1.3954834,0.724292,-0.80819094,79.0
1036,0.19859286,-0.46580887,-0.2829607,-1.357251,0.72323,-0.86766356,79.0
1037,0.3025877,-0.6446929,-0.18717179,-1.357251,0.72323,-0.86766356,79.0
1038,0.3025877,-0.6446929,-0.18717179,-1.356189,0.71579593,-1.0259033,79.0
1039,0.29050764,-0.62537336,-0.20596302,-1.356189,0.71579593,-1.0259033,79.0
1040,0.29050764,-0.62537336,-0.20596302,-1.4050416,0.7349121,-1.0609497,79.0
1041,0.28734997,-0.5137143,-0.29603264,-1.4050416,0.7349121,-1.0609497,79.0
1042,0.28734997,-0.5137143,-0.29603264,-1.6885986,0.81243896,-1.1129884,79.0
1043,0.14983845,-0.5019016,-0.30656487,-1.6885986,0.81243896,-1.1129884,79.0
1044,0.14983845,-0.5019016,-0.30656487,-1.8011719,0.8241211,-1.1257324,79.0
1045,0.086704254,-0.56249547,-0.37294966,-1.8011719,0.8241211,-1.1257324,79.0
1046,0.086704254,-0.56249547,-0.37294966,-2.0284424,0.83474123,-1.1883911,79.0
1047,0.17877501,-0.6057458,-0.3708817,-2.0284424,0.83474123,-1.1883911,79.0
1048,0.17877501,-0.6057458,-0.3708817,-2.0826051,0.86341554,-1.1692749,79.0
1049,0.53496337,-0.75749695,-0.3924207,-2.0826051,0.86341554,-1.1692749,79.0
1050,0.53496337,-0.75749695,-0.3924207,-2.167566,1.0099732,-1.0673218,79.0
1051,0.4020064,-0.7291788,-0.39093852,-2.167566,1.0099732,-1.0673218,79.0
1052,0.4020064,-0.7291788,-0.39093852,-2.2068603,1.0524536,-1.0343994,79.0
1053,0.4020064,-0.7291788,-0.39093852,-2.2068603,1.0524536,-1.0343994,80.0
1054,-0.012501359,-0.6991023,-0.4696234,-2.2068603,1.0524536,-1.0343994,80.0
1055,-0.012501359,-0.6991023,-0.4696234,-2.3820922,1.0397094,-0.9685547,80.0
1056,0.09945935,-0.6500777,-0.4881621,-2.3820922,1.0397094,-0.9685547,80.0
1057,0.09945935,-0.6500777,-0.4881621,-2.4150147,0.9420044,-1.0375855,80.0
1058,1.1394308,-0.65444946,-0.6096581,-2.4150147,0.9420044,-1.0375855,80.0
1059,1.1394308,-0.65444946,-0.6096581,-2.526526,0.7614624,-1.1140503,80.0
1060,2.5588226,-0.64019775,-0.8168403,-2.526526,0.7614624,-1.1140503,80.0
1061,2.5588226,-0.64019775,-0.8168403,-2.698572,0.8496094,-0.998291,80.0
1062,2.5194335,-0.7547363,-0.83309865,-2.698572,0.8496094,-0.998291,80.0
1063,2.5194335,-0.7547363,-0.83309865,-2.714502,1.0216553,-0.8644776,80.0
1064,0.5249462,-1.033086,-0.36293888,-2.714502,1.0216553,-0.8644776,80.0
1065,0.5249462,-1.033086,-0.36293888,-2.5477662,0.9218262,-0.96430665,80.0
1066,-2.183351,-1.0959268,0.4409355,-2.5477662,0.9218262,-0.96430665,80.0
1067,-2.183351,-1.0959268,0.4409355,-2.4351928,0.6446411,-1.0120972,80.0
1068,-2.059242,-0.85232735,0.44703555,-2.4351928,0.6446411,-1.0120972,80.0
1069,-2.059242,-0.85232735,0.44703555,-2.35979,0.55968016,-0.998291,80.0
1070,-1.5634947,-0.56733555,0.43575346,-2.35979,0.55968016,-0.998291,80.0
1071,-1.5634947,-0.56733555,0.43575346,-2.1134033,0.4343628,-0.9505005,80.0
1072,-0.87215805,-0.42733037,0.4825017,-2.1134033,0.4343628,-0.9505005,80.0
1073,-0.87215805,-0.42733037,0.4825017,-1.8298463,0.36745605,-0.8623535,80.0
1074,-0.5231659,-0.3277896,0.5652494,-1.8298463,0.36745605,-0.8623535,80.0
1075,-0.5231659,-0.3277896,0.5652494,-1.5515991,0.3430298,-0.724292,80.0
1076,-0.5083276,-0.14217553,0.48130113,-1.5515991,0.3430298,-0.724292,80.0
1077,-0.5083276,-0.14217553,0.48130113,-1.264856,0.33240968,-0.61702883,80.0
1078,-0.64047563,0.18876202,0.22929138,-1.264856,0.33240968,-0.61702883,80.0
1079,-0.64047563,0.18876202,0.22929138,-1.1650269,0.31860352,-0.53737795,80.0
1080,-0.9115016,0.5953822,0.0029399395,-1.1650269,0.31860352,-0.53737795,80.0
1081,-0.9115016,0.5953822,0.0029399395,-1.3455689,0.35471192,-0.5012695,80.0
1082,-1.4306417,0.8642086,-0.05525303,-1.3455689,0.35471192,-0.5012695,80.0
1083,-1.4306417,0.8642086,-0.05525303,-1.7565674,0.37807617,-0.5533081,80.0
1084,-1.991071,0.75798064,0.03206712,-1.7565674,0.37807617,-0.5533081,80.0
1085,-1.991071,0.75798064,0.03206712,-2.1781862,0.3090454,-0.71367186,80.0
1086,-2.1304545,0.049707264,0.14726013,-2.1781862,0.3090454,-0.71367186,80.0
1087,-2.1304545,0.049707264,0.14726013,-2.3820922,0.10195313,-0.97067875,80.0
1088,-1.5960019,-0.23542953,0.171458,-2.3820922,0.10195313,-0.97067875,80.0
1089,-1.5960019,-0.23542953,0.171458,-2.3226197,0.052038576,-1.0460815,80.0
1090,-0.7782786,-0.61721325,0.23390713,-2.3226197,0.052038576,-1.0460815,80.0
1091,-0.7782786,-0.61721325,0.23390713,-2.0273805,-0.0637207,-1.178833,80.0
1092,-0.09587717,-0.79207385,0.40778,-2.0273805,-0.0637207,-1.178833,80.0
1093,-0.09587717,-0.79207385,0.40778,-1.718335,-0.1731079,-1.3030884,80.0
1094,0.3117993,-0.7584516,0.6648471,-1.718335,-0.1731079,-1.3030884,80.0
1095,0.3117993,-0.7584516,0.6648471,-1.5823975,-0.2548828,-1.4337158,80.0
1096,0.44403172,-0.6273667,0.8779714,-1.5823975,-0.2548828,-1.4337158,80.0
1097,0.44403172,-0.6273667,0.8779714,-1.630188,-0.29948732,-1.4761963,80.0
1098,0.25938797,-0.5661268,0.96033615,-1.630188,-0.29948732,-1.4761963,80.0
1099,0.25938797,-0.5661268,0.96033615,-1.8447144,-0.3175415,-1.454956,80.0
1100,-0.062277317,-0.650692,0.9345165,-1.8447144,-0.3175415,-1.454956,80.0
1101,-0.062277317,-0.650692,0.9345165,-2.1261475,-0.40993652,-1.4761963,80.0
1102,-0.056596756,-0.8148651,0.85923433,-2.1261475,-0.40993652,-1.4761963,80.0
1103,-0.056596756,-0.8148651,0.85923433,-2.3258057,-0.46622315,-1.4294678,80.0
1104,0.25607753,-0.9692993,0.8208103,-2.3258057,-0.46622315,-1.4294678,80.0
1105,0.25607753,-0.9692993,0.8208103,-2.3194337,-0.42905274,-1.263794,80.0
1106,0.88409793,-1.3033326,1.0988969,-2.3194337,-0.42905274,-1.263794,80.0
1107,0.88409793,-1.3033326,1.0988969,-1.8574585,-0.68074954,-1.2404298,80.0
1108,1.2650664,-1.2981226,1.1063881,-1.8574585,-0.68074954,-1.2404298,80.0
1109,1.2650664,-1.2981226,1.1063881,-1.62594,-0.73597413,-1.2393677,80.0
1110,2.7047045,-1.2696626,1.0107818,-1.62594,-0.73597413,-1.2393677,80.0
1111,2.7047045,-1.2696626,1.0107818,-1.355127,-0.44498292,-0.9717407,80.0
1112,3.3722842,-1.2561355,0.63090324,-1.355127,-0.44498292,-0.9717407,80.0
1113,3.3722842,-1.2561355,0.63090324,-1.1448487,-0.118945315,-0.7508423,80.0
1114,2.7008913,-1.4309704,0.10608983,-1.1448487,-0.118945315,-0.7508423,80.0
1115,2.7008913,-1.4309704,0.10608983,-0.77739257,-0.1444336,-0.6117188,80.0
1116,1.9162061,-1.4782603,-0.4162146,-0.77739257,-0.1444336,-0.6117188,80.0
1117,1.9162061,-1.4782603,-0.4162146,-0.3175415,-0.15823975,-0.35577393,80.0
1118,1.7266295,-1.1629059,-0.5506841,-0.3175415,-0.15823975,-0.35577393,80.0
1119,1.7266295,-1.1629059,-0.5506841,-0.011682129,-0.08602295,0.0031860352,80.0
1120,1.5696337,-0.60829115,-0.1182816,-0.011682129,-0.08602295,0.0031860352,80.0
1121,1.5696337,-0.60829115,-0.1182816,0.16779785,0.039294433,0.37701416,80.0
1122,0.8842592,0.015625477,0.56600714,0.16779785,0.039294433,0.37701416,80.0
1123,0.8842592,0.015625477,0.56600714,0.1985962,0.15505372,0.76464844,80.0
1124,-0.24022436,0.65858173,1.0880108,0.1985962,0.15505372,0.76464844,80.0
1125,-0.24022436,0.65858173,1.0880108,0.12956543,0.29523927,1.1650269,80.0
1126,-1.3737469,1.2642798,1.2571883,0.12956543,0.29523927,1.1650269,80.0
1127,-1.3737469,1.2642798,1.2571883,-0.028674318,0.4630371,1.5632813,80.0
1128,-1.3737469,1.2642798,1.2571883,-0.028674318,0.4630371,1.5632813,80.0
1129,-2.2077134,1.7616315,1.1033216,-0.028674318,0.4630371,1.5632813,80.0
1130,-2.2077134,1.7616315,1.1033216,-0.13806152,0.631897,1.9402955,80.0
1131,-2.5995815,2.0325596,0.7433505,-0.13806152,0.631897,1.9402955,80.0
1132,-2.5995815,2.0325596,0.7433505,-0.11151123,0.7604004,2.2057984,80.0
1133,-2.4330099,2.0833964,0.24826908,-0.11151123,0.7604004,2.2057984,80.0
1134,-2.4330099,2.0833964,0.24826908,-0.058410645,0.8708496,2.441565,80.0
1135,-1.7222991,1.9471371,-0.29064274,-0.058410645,0.8708496,2.441565,80.0
1136,-1.7222991,1.9471371,-0.29064274,0.014868164,1.0152832,2.6040528,80.0
1137,-0.76778066,1.8037791,-0.788337,0.014868164,1.0152832,2.6040528,80.0
1138,-0.76778066,1.8037791,-0.788337,0.098767094,1.2499878,2.6444092,80.0
1139,0.041988835,1.6899471,-1.1553645,0.098767094,1.2499878,2.6444092,80.0
1140,0.041988835,1.6899471,-1.1553645,0.11257324,1.454956,2.7516725,80.0
1141,0.5804661,1.4106858,-1.2911618,0.11257324,1.454956,2.7516725,80.0
1142,0.5804661,1.4106858,-1.2911618,0.07327881,1.6376221,2.805835,80.0
1143,1.0490042,0.7434534,-1.1394968,0.07327881,1.6376221,2.805835,80.0
1144,1.0490042,0.7434534,-1.1394968,0.4598511,1.8054199,2.8674316,80.0
1145,1.6171331,-0.1420537,-0.829139,0.4598511,1.8054199,2.8674316,80.0
1146,1.6171331,-0.1420537,-0.829139,0.98448485,1.9243653,2.9555786,80.0
1147,2.046807,-0.49019325,-0.7155086,0.98448485,1.9243653,2.9555786,80.0
1148,2.046807,-0.49019325,-0.7155086,1.3200806,2.0560548,2.9470825,80.0
1149,2.046807,-0.49019325,-0.7155086,1.354065,2.073047,2.8430054,80.0
1150,1.8021185,0.07381219,-0.82315147,1.354065,2.073047,2.8430054,80.0
1151,-0.71783876,1.8998334,-0.52872384,1.354065,2.073047,2.8430054,80.0
1152,-0.71783876,1.8998334,-0.52872384,1.1236085,1.9466676,2.7028198,80.0
1153,-0.71783876,1.8998334,-0.52872384,0.5479981,1.8255981,2.5859985,80.0
1154,-0.71783876,1.8998334,-0.52872384,-0.09664307,1.7523193,2.4521852,80.0
1155,-1.2971836,1.7805846,-0.22687316,-0.09664307,1.7523193,2.4521852,80.0
1156,-1.2971836,1.7805846,-0.22687316,-0.270813,1.7438233,2.1590698,80.0
1157,-1.5685818,1.7093921,1.0544062E-4,-0.270813,1.7438233,2.1590698,80.0
1158,-1.5685818,1.7093921,1.0544062E-4,-0.08814698,1.812854,1.812854,80.0
1159,-1.4191844,1.3678677,0.075999856,-0.08814698,1.812854,1.812854,80.0
1160,-1.4191844,1.3678677,0.075999856,0.012744141,1.8500245,1.4294678,80.0
1161,-0.9562093,0.7007394,-0.19785494,0.012744141,1.8500245,1.4294678,80.0
1162,-0.9562093,0.7007394,-0.19785494,-0.07115479,1.7629395,0.903772,80.0
1163,-0.30378583,-0.14806318,-0.6154617,-0.07115479,1.7629395,0.903772,80.0
1164,-0.30378583,-0.14806318,-0.6154617,-0.16354981,1.7045288,0.33878174,80.0
1165,0.40661734,-0.8667904,-0.60201293,-0.16354981,1.7045288,0.33878174,80.0
1166,0.40661734,-0.8667904,-0.60201293,0.0998291,1.8022339,-0.2793091,80.0
1167,0.9596323,-0.9728879,-0.09635645,0.0998291,1.8022339,-0.2793091,80.0
1168,0.9596323,-0.9728879,-0.09635645,0.24213867,1.9360474,-0.60959476,80.0
1169,1.1869807,-0.46517563,0.33470684,0.24213867,1.9360474,-0.60959476,80.0
1170,1.1869807,-0.46517563,0.33470684,-0.12213135,1.9997681,-0.7455322,80.0
1171,1.0610714,0.1559968,0.32696956,-0.12213135,1.9997681,-0.7455322,80.0
1172,1.0610714,0.1559968,0.32696956,-0.59897465,1.8617066,-0.72216797,80.0
1173,0.84832,0.5193286,0.0055453777,-0.59897465,1.8617066,-0.72216797,80.0
1174,0.84832,0.5193286,0.0055453777,-0.9834229,1.5717773,-0.7678345,80.0
1175,0.82766724,0.56158113,-0.2674265,-0.9834229,1.5717773,-0.7678345,80.0
1176,0.82766724,0.56158113,-0.2674265,-1.0471436,1.2786621,-0.7943848,80.0
1177,0.8898926,0.44264877,-0.16774982,-1.0471436,1.2786621,-0.7943848,80.0
1178,0.8898926,0.44264877,-0.16774982,-0.66481936,0.99510497,-0.83898926,80.0
1179,0.7488526,0.48763955,0.1631146,-0.66481936,0.99510497,-0.83898926,80.0
1180,0.7488526,0.48763955,0.1631146,-0.14230958,0.79013675,-0.9600586,80.0
1181,0.2849952,0.80226994,0.26237643,-0.14230958,0.79013675,-0.9600586,80.0
1182,0.2849952,0.80226994,0.26237643,0.21452637,0.6881836,-1.1448487,80.0
1183,-0.35210633,1.2285836,-0.12343627,0.21452637,0.6881836,-1.1448487,80.0
1184,-0.35210633,1.2285836,-0.12343627,0.33028564,0.6552612,-1.268042,80.0
1185,-0.9480548,1.5846248,-0.79396385,0.33028564,0.6552612,-1.268042,80.0
1186,-0.9480548,1.5846248,-0.79396385,0.107263185,0.6818115,-1.4241577,80.0
1187,-1.3868618,1.6899409,-1.3947536,0.107263185,0.6818115,-1.4241577,80.0
1188,-1.3868618,1.6899409,-1.3947536,-0.26550293,0.7083618,-1.6025757,80.0
1189,-1.6351486,1.4288573,-1.7125192,-0.26550293,0.7083618,-1.6025757,80.0
1190,-1.6351486,1.4288573,-1.7125192,-0.6595093,0.727478,-1.7661256,80.0
1191,-1.7427992,0.7790599,-1.6422689,-0.6595093,0.727478,-1.7661256,80.0
1192,-1.7427992,0.7790599,-1.6422689,-0.8867798,0.71791995,-1.9360474,80.0
1193,-1.7418345,-0.15237474,-1.2412443,-0.8867798,0.71791995,-1.9360474,80.0
1194,-1.7418345,-0.15237474,-1.2412443,-0.9143921,0.6754395,-2.0964112,80.0
1195,-1.5916367,-1.154639,-0.6723411,-0.9143921,0.6754395,-2.0964112,80.0
1196,-1.5916367,-1.154639,-0.6723411,-0.7434082,0.65419924,-2.2079225,80.0
1197,-1.3313537,-2.0496023,-0.051166296,-0.7434082,0.65419924,-2.2079225,80.0
1198,-1.3313537,-2.0496023,-0.051166296,-0.44923097,0.67437744,-2.247217,80.0
1199,-1.0863476,-2.6504118,0.53831494,-0.44923097,0.67437744,-2.247217,80.0
1200,-1.0863476,-2.6504118,0.53831494,-0.19541016,0.7051758,-2.1898682,80.0
1201,-0.9233017,-2.7925096,0.9286256,-0.19541016,0.7051758,-2.1898682,80.0
1202,-0.9233017,-2.7925096,0.9286256,-0.0063720704,0.77951664,-2.0475585,80.0
1203,-0.8664001,-2.5478992,1.0025074,-0.0063720704,0.77951664,-2.0475585,80.0
1204,-0.8664001,-2.5478992,1.0025074,0.19434814,0.82836914,-1.9158691,80.0
1205,-0.82504153,-2.0879898,0.82699376,0.19434814,0.82836914,-1.9158691,80.0
1206,-0.82504153,-2.0879898,0.82699376,0.24744873,0.80181885,-1.7427613,80.0
1207,-0.70174456,-1.585724,0.5994124,0.24744873,0.80181885,-1.7427613,80.0
1208,-0.70174456,-1.585724,0.5994124,0.032922365,0.73597413,-1.5908936,80.0
1209,-0.564008,-1.1892214,0.46347767,0.032922365,0.73597413,-1.5908936,80.0
1210,-0.564008,-1.1892214,0.46347767,-0.29736328,0.6223389,-1.5006226,80.0
1211,-0.43387246,-0.92778087,0.3915463,-0.29736328,0.6223389,-1.5006226,80.0
1212,-0.43387246,-0.92778087,0.3915463,-0.72854006,0.5012695,-1.447522,80.0
1213,-0.3272128,-0.9809332,0.36995092,-0.72854006,0.5012695,-1.447522,80.0
1214,-0.3272128,-0.9809332,0.36995092,-0.9526245,0.29948732,-1.4581422,80.0
1215,-0.2139554,-1.6169,0.57777226,-0.9526245,0.29948732,-1.4581422,80.0
1216,-0.2139554,-1.6169,0.57777226,-0.66481936,0.09664307,-1.4857544,80.0
1217,-0.008969545,-2.5215595,0.963939,-0.66481936,0.09664307,-1.4857544,80.0
1218,-0.008969545,-2.5215595,0.963939,0.015930176,-0.16885987,-1.4199097,80.0
1219,0.16576123,-2.7660391,1.2379115,0.015930176,-0.16885987,-1.4199097,80.0
1220,0.16576123,-2.7660391,1.2379115,0.3451538,-0.3069214,-1.1979493,80.0
1221,0.09949136,-2.1219866,1.2683198,0.3451538,-0.3069214,-1.1979493,80.0
1222,0.09949136,-2.1219866,1.2683198,0.30373535,-0.38232422,-0.8995239,80.0
1223,-0.07364178,-1.2805727,1.057173,0.30373535,-0.38232422,-0.8995239,80.0
1224,-0.07364178,-1.2805727,1.057173,0.25063476,-0.49277344,-0.6202149,80.0
1225,-0.02071762,-0.7204056,0.7305651,0.25063476,-0.49277344,-0.6202149,80.0
1226,-0.02071762,-0.7204056,0.7305651,0.18479005,-0.5883545,-0.35577393,80.0
1227,-0.02071762,-0.7204056,0.7305651,0.18479005,-0.5883545,-0.35577393,80.0
1228,0.2959137,-0.42521358,0.47540665,0.18479005,-0.5883545,-0.35577393,80.0
1229,0.2959137,-0.42521358,0.47540665,0.13062744,-0.6265869,-0.0722168,80.0
1230,0.6585815,-0.13053942,0.3131013,0.13062744,-0.6265869,-0.0722168,80.0
1231,0.6585815,-0.13053942,0.3131013,0.07646485,-0.5968506,0.20709229,80.0
1232,0.82085943,0.34047818,0.15605974,0.07646485,-0.5968506,0.20709229,80.0
1233,0.82085943,0.34047818,0.15605974,0.1083252,-0.4895874,0.49489745,80.0
1234,0.6506207,1.0140696,-0.090703964,0.1083252,-0.4895874,0.49489745,80.0
1235,0.6506207,1.0140696,-0.090703964,0.14230958,-0.3717041,0.7763306,80.0
1236,0.20511568,1.7921028,-0.4887619,0.14230958,-0.3717041,0.7763306,80.0
1237,0.20511568,1.7921028,-0.4887619,0.16567384,-0.23682861,1.0588257,80.0
1238,-0.3600042,2.4918244,-1.0314026,0.16567384,-0.23682861,1.0588257,80.0
1239,-0.3600042,2.4918244,-1.0314026,0.19222413,-0.12956543,1.179895,80.0
1240,-0.83564734,2.9741116,-1.5886232,0.19222413,-0.12956543,1.179895,80.0
1241,-0.83564734,2.9741116,-1.5886232,0.16248779,-0.029736329,1.2361816,80.0
1242,-1.1564696,3.1434736,-1.8871827,0.16248779,-0.029736329,1.2361816,80.0
1243,-1.1564696,3.1434736,-1.8871827,0.008496094,0.038232423,1.2000732,80.0
1244,-1.3568652,2.8455162,-1.7976246,0.008496094,0.038232423,1.2000732,80.0
1245,-1.3568652,2.8455162,-1.7976246,-0.052038576,0.038232423,1.1246704,80.0
1246,-1.321161,2.1010714,-1.4623673,-0.052038576,0.038232423,1.1246704,80.0
1247,-1.321161,2.1010714,-1.4623673,0.12531738,0.027612304,1.0014771,80.0
1248,-0.9032178,1.1454933,-1.1021447,0.12531738,0.027612304,1.0014771,80.0
1249,-0.9032178,1.1454933,-1.1021447,0.44498292,-0.028674318,0.8857178,80.0
1250,-0.17379475,0.2167486,-0.8226826,0.44498292,-0.028674318,0.8857178,80.0
1251,-0.17379475,0.2167486,-0.8226826,0.814563,-0.11257324,0.7104859,80.0
1252,0.59264135,-0.4973775,-0.5984415,0.814563,-0.11257324,0.7104859,80.0
1253,0.59264135,-0.4973775,-0.5984415,1.1852051,-0.24320069,0.58410645,80.0
1254,1.1544476,-0.9061906,-0.35820878,1.1852051,-0.24320069,0.58410645,80.0
1255,1.1544476,-0.9061906,-0.35820878,1.5133667,-0.4959595,0.38763428,80.0
1256,1.6267076,-0.9236341,-0.051410794,1.5133667,-0.4959595,0.38763428,80.0
1257,1.6267076,-0.9236341,-0.051410794,1.5186768,-0.7604004,0.07646485,80.0
1258,2.1931753,-0.79128766,0.41081226,1.5186768,-0.7604004,0.07646485,80.0
1259,2.1931753,-0.79128766,0.41081226,1.3869873,-1.0322754,-0.2177124,80.0
1260,2.7751946,-0.8096537,0.9897705,1.3869873,-1.0322754,-0.2177124,80.0
1261,2.7751946,-0.8096537,0.9897705,1.002539,-1.2510499,-0.4715332,80.0
1262,3.0706682,-0.75460774,1.3326612,1.002539,-1.2510499,-0.4715332,80.0
1263,3.0706682,-0.75460774,1.3326612,0.3717041,-1.3657471,-0.5809204,80.0
1264,3.0706682,-0.75460774,1.3326612,-0.3355957,-1.4613281,-0.7051758,80.0
1265,2.6835854,-0.41607633,1.1074741,-0.3355957,-1.4613281,-0.7051758,80.0
1266,-0.07226005,1.9421389,0.00865997,-0.3355957,-1.4613281,-0.7051758,80.0
1267,-0.07226005,1.9421389,0.00865997,-0.8315552,-1.4592041,-0.817749,80.0
1268,-0.07226005,1.9421389,0.00865997,-1.3699951,-1.3285767,-0.95581055,80.0
1269,-0.07226005,1.9421389,0.00865997,-2.075171,-1.260608,-1.1087402,80.0
1270,-0.8478593,1.8958254,-0.27715406,-2.075171,-1.260608,-1.1087402,80.0
1271,-0.8478593,1.8958254,-0.27715406,-2.3236816,-1.1299804,-1.2776002,80.0
1272,-1.0603431,1.2268044,-0.08572471,-2.3236816,-1.1299804,-1.2776002,80.0
1273,-1.0603431,1.2268044,-0.08572471,-2.1590698,-1.2595459,-1.3434448,80.0
1274,-0.45428038,0.23010075,0.84475034,-2.1590698,-1.2595459,-1.3434448,80.0
1275,-0.45428038,0.23010075,0.84475034,-1.4528321,-1.3094605,-1.3349488,80.0
1276,0.8033604,-0.86115867,1.9064155,-1.4528321,-1.3094605,-1.3349488,80.0
1277,0.8033604,-0.86115867,1.9064155,-0.3525879,-1.2722901,-1.356189,80.0
1278,2.05741,-1.5853137,2.4576275,-0.3525879,-1.2722901,-1.356189,80.0
1279,2.05741,-1.5853137,2.4576275,0.4088745,-1.0503296,-1.2499878,80.0
1280,2.7684379,-1.7145278,2.541981,0.4088745,-1.0503296,-1.2499878,80.0
1281,2.7684379,-1.7145278,2.541981,0.6680054,-0.71579593,-1.269104,80.0
1282,2.6387372,-1.3721716,2.4251254,0.6680054,-0.71579593,-1.269104,80.0
1283,2.6387372,-1.3721716,2.4251254,0.33028564,-0.2357666,-1.183081,80.0
1284,1.5792637,-0.89087695,1.9852297,0.33028564,-0.2357666,-1.183081,80.0
1285,1.5792637,-0.89087695,1.9852297,-0.15930176,0.08602295,-1.1066163,80.0
1286,0.07354283,-0.56852436,1.1466434,-0.15930176,0.08602295,-1.1066163,80.0
1287,0.07354283,-0.56852436,1.1466434,-0.7699585,0.31966552,-1.0482056,80.0
1288,-1.1365515,-0.5643288,0.2741263,-0.7699585,0.31966552,-1.0482056,80.0
1289,-1.1365515,-0.5643288,0.2741263,-1.4082276,0.54587406,-0.97492677,80.0
1290,-1.9425542,-0.9604596,-0.37487626,-1.4082276,0.54587406,-0.97492677,80.0
1291,-1.9425542,-0.9604596,-0.37487626,-1.5505371,0.7189819,-0.9494385,80.0
1292,-2.6231475,-1.5026084,-0.80126834,-1.5505371,0.7189819,-0.9494385,80.0
1293,-2.6231475,-1.5026084,-0.80126834,-1.5016845,0.7508423,-0.9388184,80.0
1294,-3.3451,-1.8132806,-1.0400991,-1.5016845,0.7508423,-0.9388184,80.0
1295,-3.3451,-1.8132806,-1.0400991,-1.3391968,0.7848267,-0.9228882,80.0
1296,-4.0899963,-1.7090595,-1.0857291,-1.3391968,0.7848267,-0.9228882,80.0
1297,-4.0899963,-1.7090595,-1.0857291,-1.1437867,0.87403566,-0.8687256,80.0
1298,-4.7620482,-1.1333122,-0.991081,-1.1437867,0.87403566,-0.8687256,80.0
1299,-4.7620482,-1.1333122,-0.991081,-0.9759888,1.0205933,-0.66588134,80.0
1300,-5.2497387,-0.25252366,-0.8626158,-0.9759888,1.0205933,-0.66588134,80.0
1301,-5.2497387,-0.25252366,-0.8626158,-0.9154541,1.0917481,-0.45772704,80.0
1302,-5.3416367,0.5515454,-0.78669906,-0.9154541,1.0917481,-0.45772704,80.0
1303,-5.3416367,0.5515454,-0.78669906,-1.2170655,1.075818,-0.15611573,80.0
1304,-4.709137,0.7429209,-0.85626364,-1.2170655,1.075818,-0.15611573,80.0
1305,-4.709137,0.7429209,-0.85626364,-1.4326538,0.8442993,0.19222413,80.0
1306,-3.0938601,0.16573548,-0.9828625,-1.4326538,0.8442993,0.19222413,80.0
1307,-3.0938601,0.16573548,-0.9828625,-1.1883911,0.5915405,0.49489745,80.0
1308,-0.9620142,-0.9390547,-0.7753525,-1.1883911,0.5915405,0.49489745,80.0
1309,-0.9620142,-0.9390547,-0.7753525,-0.30267334,0.24851075,0.7699585,80.0
1310,1.216363,-2.5042346,0.10802615,-0.30267334,0.24851075,0.7699585,80.0
1311,1.216363,-2.5042346,0.10802615,1.4687623,-0.3791382,0.8071289,80.0
1312,3.5115304,-3.5804138,1.1986402,1.4687623,-0.3791382,0.8071289,80.0
1313,3.5115304,-3.5804138,1.1986402,3.2614381,-0.9483765,0.78164065,80.0
1314,6.0693808,-2.8025146,1.50088,3.2614381,-0.9483765,0.78164065,80.0
1315,6.0693808,-2.8025146,1.50088,3.8317382,-1.1629028,0.8666016,80.0
1316,8.708263,-0.727705,0.89195156,3.8317382,-1.1629028,0.8666016,80.0
1317,8.708263,-0.727705,0.89195156,3.1860352,-0.70305175,0.9345703,80.0
1318,9.226608,0.8829365,0.14526296,3.1860352,-0.70305175,0.9345703,80.0
1319,9.226608,0.8829365,0.14526296,2.171814,-0.2516968,1.1660889,80.0
1320,6.9661016,1.5288224,-0.43795228,2.171814,-0.2516968,1.1660889,80.0
1321,6.9661016,1.5288224,-0.43795228,1.4921265,-0.37701416,1.4156617,80.0
1322,4.241851,1.7128286,-1.1299883,1.4921265,-0.37701416,1.4156617,80.0
1323,4.241851,1.7128286,-1.1299883,0.9420044,-0.28461915,1.6004517,80.0
1324,1.9955316,1.7311149,-2.0017934,0.9420044,-0.28461915,1.6004517,80.0
1325,1.9955316,1.7311149,-2.0017934,1.0673218,-0.22089843,1.5250489,80.0
1326,0.16612744,1.9491374,-2.8817203,1.0673218,-0.22089843,1.5250489,80.0
1327,0.16612744,1.9491374,-2.8817203,1.2361816,-0.20178223,1.3997315,80.0
1328,-1.4652793,2.7791953,-3.5418386,1.2361816,-0.20178223,1.3997315,80.0
1329,-1.4652793,2.7791953,-3.5418386,0.8294312,-0.1444336,1.2999023,80.0
1330,-3.1011176,4.061638,-3.9515862,0.8294312,-0.1444336,1.2999023,80.0
1331,-3.1011176,4.061638,-3.9515862,-0.038232423,-0.032922365,1.0981201,80.0
1332,-4.5188217,5.0010195,-3.9090595,-0.038232423,-0.032922365,1.0981201,80.0
1333,-4.5188217,5.0010195,-3.9090595,-0.6796875,0.009558106,0.91864014,80.0
1334,-4.5188217,5.0010195,-3.9090595,-0.6796875,0.009558106,0.91864014,80.0
1335,-5.2193785,5.092332,-3.2763932,-0.6796875,0.009558106,0.91864014,80.0
1336,-5.2193785,5.092332,-3.2763932,-0.58623046,0.11363526,0.73809814,80.0
1337,-4.976858,4.7286997,-2.4662929,-0.58623046,0.11363526,0.73809814,80.0
1338,-4.976858,4.7286997,-2.4662929,-0.35152587,0.028674318,0.42905274,80.0
1339,-3.786662,4.1555424,-1.967834,-0.35152587,0.028674318,0.42905274,80.0
1340,-3.786662,4.1555424,-1.967834,-0.29099122,-0.0541626,-0.0361084,80.0
1341,-1.7014365,2.8302445,-1.5316038,-0.29099122,-0.0541626,-0.0361084,80.0
1342,-1.7014365,2.8302445,-1.5316038,-0.18372802,-0.14655761,-0.540564,80.0
1343,0.91815996,1.046752,-0.6087427,-0.18372802,-0.14655761,-0.540564,80.0
1344,0.91815996,1.046752,-0.6087427,-0.21346436,-0.34940186,-1.265918,80.0
1345,3.9458318,-0.22869968,0.37168503,-0.21346436,-0.34940186,-1.265918,80.0
1346,3.9458318,-0.22869968,0.37168503,-0.9345703,-1.0312134,-2.3905885,80.0
1347,7.338013,-0.6654668,0.43685007,-0.9345703,-1.0312134,-2.3905885,80.0
1348,7.338013,-0.6654668,0.43685007,-1.538855,-0.994043,-2.4128907,80.0
1349,9.907655,-1.0199223,0.1971364,-1.538855,-0.994043,-2.4128907,80.0
1350,9.907655,-1.0199223,0.1971364,-2.0326905,-1.3530029,-3.0352294,80.0
1351,9.694593,-1.896553,0.6390934,-2.0326905,-1.3530029,-3.0352294,80.0
1352,9.694593,-1.896553,0.6390934,-2.3905885,-1.539917,-3.3124146,80.0
1353,6.5665874,-2.5473082,2.1776323,-2.3905885,-1.539917,-3.3124146,80.0
1354,6.5665874,-2.5473082,2.1776323,-2.151636,-2.1080933,-3.163733,80.0
1355,2.9122915,-2.0139332,4.484745,-2.151636,-2.1080933,-3.163733,80.0
1356,2.9122915,-2.0139332,4.484745,-1.622754,-2.0486207,-2.6688354,80.0
1357,-0.04039383,-0.42393947,6.1658964,-1.622754,-2.0486207,-2.6688354,80.0
1358,-0.04039383,-0.42393947,6.1658964,-1.2977784,-1.6439942,-2.261023,80.0
1359,-2.6246853,0.7194543,5.615225,-1.2977784,-1.6439942,-2.261023,80.0
1360,-2.6246853,0.7194543,5.615225,-1.453894,-1.2032593,-2.0995972,80.0
1361,-4.632695,0.182729,2.863481,-1.453894,-1.2032593,-2.0995972,80.0
1362,-4.632695,0.182729,2.863481,-1.4953126,-1.080066,-2.1378295,80.0
1363,-4.632695,0.182729,2.863481,-2.1378295,-0.9133301,-2.1442018,80.0
1364,-5.3758707,-1.3291585,-0.04813111,-2.1378295,-0.9133301,-2.1442018,80.0
1365,-4.4939337,-4.257785,-0.9969155,-2.1378295,-0.9133301,-2.1442018,80.0
1366,-4.4939337,-4.257785,-0.9969155,-2.9162843,-0.6775635,-2.356604,80.0
1367,-4.4939337,-4.257785,-0.9969155,-3.1541748,-0.54587406,-2.7622926,80.0
1368,-4.4939337,-4.257785,-0.9969155,-3.2062135,-0.3430298,-3.0299194,80.0
1369,-3.1054256,-3.8239524,-0.060569525,-3.2062135,-0.3430298,-3.0299194,80.0
1370,-3.1054256,-3.8239524,-0.060569525,-3.4908326,0.14230958,-2.9311523,80.0
1371,-2.7209005,-3.6455145,0.3666811,-3.4908326,0.14230958,-2.9311523,80.0
1372,-2.7209005,-3.6455145,0.3666811,-3.9804199,0.5543701,-2.7930908,80.0
1373,-3.2150385,-3.7010307,0.17111588,-3.9804199,0.5543701,-2.7930908,80.0
1374,-3.2150385,-3.7010307,0.17111588,-4.696216,0.74022216,-2.623169,80.0
1375,-3.6923556,-3.6061373,-0.336618,-4.696216,0.74022216,-2.623169,80.0
1376,-3.6923556,-3.6061373,-0.336618,-4.9893312,0.79119873,-2.1346436,80.0
1377,-3.4540188,-3.261277,-0.66922116,-4.9893312,0.79119873,-2.1346436,80.0
1378,-3.4540188,-3.261277,-0.66922116,-4.89375,0.90695804,-1.7448853,80.0
1379,-2.4088082,-2.8964972,-0.8586801,-4.89375,0.90695804,-1.7448853,80.0
1380,-2.4088082,-2.8964972,-0.8586801,-4.12804,0.72641605,-1.4868164,80.0
1381,-0.17207837,-3.0220442,-1.0512142,-4.12804,0.72641605,-1.4868164,80.0
1382,-0.17207837,-3.0220442,-1.0512142,-2.5711305,0.1731079,-1.4061035,80.0
1383,3.526705,-4.2141075,-0.8082809,-2.5711305,0.1731079,-1.4061035,80.0
1384,3.526705,-4.2141075,-0.8082809,-0.027612304,-0.008496094,-1.2839721,80.0
1385,6.4939594,-5.8359585,-0.15709835,-0.027612304,-0.008496094,-1.2839721,80.0
1386,6.4939594,-5.8359585,-0.15709835,2.351294,0.41312256,-0.77314454,80.0
1387,6.3873672,-5.385234,-0.46259275,2.351294,0.41312256,-0.77314454,80.0
1388,6.3873672,-5.385234,-0.46259275,3.0288575,0.21346436,0.28780517,80.0
1389,4.424164,-2.0160608,-1.6194639,3.0288575,0.21346436,0.28780517,80.0
1390,4.424164,-2.0160608,-1.6194639,2.4914796,0.41418457,1.5091187,80.0
1391,2.342163,2.0164967,-1.657412,2.4914796,0.41418457,1.5091187,80.0
1392,2.342163,2.0164967,-1.657412,1.7024049,0.63614506,2.9247804,80.0
1393,0.5671754,4.348134,-0.37920117,1.7024049,0.63614506,2.9247804,80.0
1394,0.5671754,4.348134,-0.37920117,1.1342286,0.61915284,3.7404053,80.0
1395,-0.4931836,4.3671427,0.6138998,1.1342286,0.61915284,3.7404053,80.0
1396,-0.4931836,4.3671427,0.6138998,0.9696167,0.5979126,4.0186524,80.0
1397,-0.8598056,3.18816,0.48131764,0.9696167,0.5979126,4.0186524,80.0
1398,-0.8598056,3.18816,0.48131764,1.0949341,0.4970215,4.228931,80.0
1399,-1.0273952,2.2451205,-0.22322226,1.0949341,0.4970215,4.228931,80.0
1400,-1.0273952,2.2451205,-0.22322226,1.2914063,0.41206056,4.3850465,80.0
1401,-1.3092942,2.1291285,-0.8005749,1.2914063,0.41206056,4.3850465,80.0
1402,-1.3092942,2.1291285,-0.8005749,1.5462891,0.3717041,4.433899,80.0
1403,-1.626708,2.5180001,-1.0400693,1.5462891,0.3717041,4.433899,80.0
1404,-1.626708,2.5180001,-1.0400693,1.8903809,0.34940186,4.3999147,80.0
1405,-1.7056024,2.9683795,-1.1654539,1.8903809,0.34940186,4.3999147,80.0
1406,-1.7056024,2.9683795,-1.1654539,2.1994264,0.3345337,4.3043337,80.0
1407,-1.4452803,3.17861,-1.3484888,2.1994264,0.3345337,4.3043337,80.0
1408,-1.4452803,3.17861,-1.3484888,2.5509522,0.31966552,4.156714,80.0
1409,-0.895067,3.0082078,-1.3898995,2.5509522,0.31966552,4.156714,80.0
1410,-0.895067,3.0082078,-1.3898995,3.0171754,0.3154175,3.9145753,80.0
1411,-0.087025166,2.6106315,-1.1258967,3.0171754,0.3154175,3.9145753,80.0
1412,-0.087025166,2.6106315,-1.1258967,3.5970337,0.4354248,3.6681886,80.0
1413,0.77702284,2.3108563,-0.82896423,3.5970337,0.4354248,3.6681886,80.0
1414,0.77702284,2.3108563,-0.82896423,3.9613037,0.70092773,3.3973756,80.0
1415,1.3663938,2.1650424,-0.8300414,3.9613037,0.70092773,3.3973756,80.0
1416,1.3663938,2.1650424,-0.8300414,4.1248536,0.8867798,3.073462,80.0
1417,1.7693846,2.0091825,-1.132246,4.1248536,0.8867798,3.073462,80.0
1418,1.7693846,2.0091825,-1.132246,4.044141,0.9781128,2.7357423,80.0
1419,2.1497607,1.8419406,-1.443541,4.044141,0.9781128,2.7357423,80.0
1420,2.1497607,1.8419406,-1.443541,3.722351,1.1267945,2.4808595,80.0
1421,2.1497607,1.8419406,-1.443541,3.722351,1.1267945,2.4808595,81.0
1422,2.4090786,1.7877493,-1.4833851,3.722351,1.1267945,2.4808595,81.0
1423,2.4090786,1.7877493,-1.4833851,3.2009034,1.1862671,2.255713,81.0
1424,2.4866624,1.8595695,-1.2944474,3.2009034,1.1862671,2.255713,81.0
1425,2.4866624,1.8595695,-1.2944474,2.5424562,1.2489258,2.061365,81.0
1426,2.1628528,1.999289,-1.1005116,2.5424562,1.2489258,2.061365,81.0
1427,2.1628528,1.999289,-1.1005116,1.6578003,1.3413209,1.8733886,81.0
1428,1.2045012,2.183684,-1.0623307,1.6578003,1.3413209,1.8733886,81.0
1429,1.2045012,2.183684,-1.0623307,0.47578126,1.1076783,1.5728394,81.0
1430,-0.12439966,2.25913,-1.2113638,0.47578126,1.1076783,1.5728394,81.0
1431,-0.12439966,2.25913,-1.2113638,-0.7582764,0.64782715,1.1299804,81.0
1432,-1.5163045,2.1253462,-1.1832514,-0.7582764,0.64782715,1.1299804,81.0
1433,-1.5163045,2.1253462,-1.1832514,-1.6556762,0.11682129,0.5894165,81.0
1434,-1.5163045,2.1253462,-1.1832514,-2.2928834,-0.60109866,-0.1083252,81.0
1435,-2.6890202,1.7615075,-0.57183266,-2.2928834,-0.60109866,-0.1083252,81.0
1436,-3.1185014,0.987905,0.47366142,-2.2928834,-0.60109866,-0.1083252,81.0
1437,-3.1185014,0.987905,0.47366142,-2.461743,-1.3731812,-0.85704345,81.0
1438,-2.663063,-0.13062334,1.6285143,-2.461743,-1.3731812,-0.85704345,81.0
1439,-2.663063,-0.13062334,1.6285143,-2.092163,-2.0305665,-1.6100098,81.0
1440,-1.8282044,-1.0133734,2.5402384,-2.092163,-2.0305665,-1.6100098,81.0
1441,-1.8282044,-1.0133734,2.5402384,-1.3041505,-2.5658205,-2.351294,81.0
1442,-1.3182397,-1.1870415,2.9535651,-1.3041505,-2.5658205,-2.351294,81.0
1443,-1.3182397,-1.1870415,2.9535651,-0.4970215,-3.1201904,-2.9619508,81.0
1444,-1.1776998,-0.9010005,2.9227886,-0.4970215,-3.1201904,-2.9619508,81.0
1445,-1.1776998,-0.9010005,2.9227886,0.17735596,-3.6607544,-3.4090576,81.0
1446,-0.88710606,-0.7504878,2.726317,0.17735596,-3.6607544,-3.4090576,81.0
1447,-0.88710606,-0.7504878,2.726317,0.61278075,-3.982544,-3.714917,81.0
1448,-0.2807176,-0.9695065,2.6694934,0.61278075,-3.982544,-3.714917,81.0
1449,-0.2807176,-0.9695065,2.6694934,0.63826907,-3.9315674,-3.7627075,81.0
1450,0.1475451,-1.340095,2.7756581,0.63826907,-3.9315674,-3.7627075,81.0
1451,0.1475451,-1.340095,2.7756581,0.08602295,-3.6565063,-3.7828858,81.0
1452,0.12067282,-1.6877499,2.8750556,0.08602295,-3.6565063,-3.7828858,81.0
1453,0.12067282,-1.6877499,2.8750556,-0.9409424,-3.2072754,-3.8179321,81.0
1454,-0.0010204315,-2.091545,2.5299394,-0.9409424,-3.2072754,-3.8179321,81.0
1455,-0.0010204315,-2.091545,2.5299394,-1.9211792,-2.624231,-3.722351,81.0
1456,-0.06563568,-2.520038,1.4527235,-1.9211792,-2.624231,-3.722351,81.0
1457,-0.06563568,-2.520038,1.4527235,-1.1533448,-2.3173096,-4.275659,81.0
1458,0.18718874,-2.8496242,0.36021346,-1.1533448,-2.3173096,-4.275659,81.0
1459,0.18718874,-2.8496242,0.36021346,-0.83049315,-1.8638306,-4.2119384,81.0
1460,0.69604015,-3.347241,-0.04608214,-0.83049315,-1.8638306,-4.2119384,81.0
1461,0.69604015,-3.347241,-0.04608214,-0.98448485,-1.354065,-3.6342041,81.0
1462,0.70658803,-3.792148,0.08342236,-0.98448485,-1.354065,-3.6342041,81.0
1463,0.70658803,-3.792148,0.08342236,-1.8181641,-0.991919,-2.8493774,81.0
1464,0.07352233,-3.770425,0.49220175,-1.8181641,-0.991919,-2.8493774,81.0
1465,0.07352233,-3.770425,0.49220175,-2.7835329,-0.7497803,-1.9402955,81.0
1466,-0.4623735,-3.3888865,1.1827263,-2.7835329,-0.7497803,-1.9402955,81.0
1467,-0.4623735,-3.3888865,1.1827263,-3.1945312,-0.55755615,-1.2531738,81.0
1468,-0.23536515,-2.767469,1.7944355,-3.1945312,-0.55755615,-1.2531738,81.0
1469,-0.23536515,-2.767469,1.7944355,-3.2423217,-0.4598511,-0.72004396,81.0
1470,0.5428846,-2.0814433,1.7695084,-3.2423217,-0.4598511,-0.72004396,81.0
1471,0.5428846,-2.0814433,1.7695084,-3.0862062,-0.21877442,-0.24851075,81.0
1472,0.7648618,-1.6597223,1.1462951,-3.0862062,-0.21877442,-0.24851075,81.0
1473,0.7648618,-1.6597223,1.1462951,-2.5488281,-0.007434082,0.08602295,81.0
1474,-0.15637231,-1.5811834,0.33815432,-2.5488281,-0.007434082,0.08602295,81.0
1475,-0.15637231,-1.5811834,0.33815432,-2.0624268,-0.13381349,0.1731079,81.0
1476,-1.2187989,-1.6822686,-0.35844374,-2.0624268,-0.13381349,0.1731079,81.0
1477,-1.2187989,-1.6822686,-0.35844374,-1.263794,-0.37701416,0.18266602,81.0
1478,-1.1811793,-1.7590475,-0.6251216,-1.263794,-0.37701416,0.18266602,81.0
1479,-1.1811793,-1.7590475,-0.6251216,-0.121069334,-0.53737795,0.08602295,81.0
1480,-0.5337007,-1.5870967,-0.24269986,-0.121069334,-0.53737795,0.08602295,81.0
1481,-0.5337007,-1.5870967,-0.24269986,0.8442993,-0.32391357,0.09770508,81.0
1482,-0.4653517,-1.2770996,0.5514455,0.8442993,-0.32391357,0.09770508,81.0
1483,-0.4653517,-1.2770996,0.5514455,1.5643433,-0.2538208,0.1263794,81.0
1484,-0.28566027,-1.0338378,1.07851,1.5643433,-0.2538208,0.1263794,81.0
1485,-0.28566027,-1.0338378,1.07851,2.2801392,-0.27506104,0.050976563,81.0
1486,0.9256344,-0.7209549,0.93160677,2.2801392,-0.27506104,0.050976563,81.0
1487,0.9256344,-0.7209549,0.93160677,2.7261841,0.046728518,0.14761963,81.0
1488,2.2090988,-0.18933678,0.22873259,2.7261841,0.046728518,0.14761963,81.0
1489,2.2090988,-0.18933678,0.22873259,2.6401613,0.5076416,0.4343628,81.0
1490,2.6208923,0.5655594,-0.8265233,2.6401613,0.5076416,0.4343628,81.0
1491,2.6208923,0.5655594,-0.8265233,2.0496826,0.8857178,0.9388184,81.0
1492,2.1506448,1.4120297,-1.7457523,2.0496826,0.8857178,0.9388184,81.0
1493,2.1506448,1.4120297,-1.7457523,1.2383057,1.1979493,1.5303589,81.0
1494,1.2708576,2.1283913,-1.9923172,1.2383057,1.1979493,1.5303589,81.0
1495,1.2708576,2.1283913,-1.9923172,0.8527954,1.4326538,2.2217286,81.0
1496,0.36541653,2.712881,-1.6632874,0.8527954,1.4326538,2.2217286,81.0
1497,0.36541653,2.712881,-1.6632874,0.7062378,1.6885986,2.9247804,81.0
1498,-0.54123616,3.1148243,-1.217898,0.7062378,1.6885986,2.9247804,81.0
1499,-0.54123616,3.1148243,-1.217898,0.63826907,1.9264892,3.4727783,81.0
1500,-1.2474909,3.1904924,-1.0049459,0.63826907,1.9264892,3.4727783,81.0
1501,-1.2474909,3.1904924,-1.0049459,0.48215333,1.988086,3.9634278,81.0
1502,-1.2568672,3.0046158,-1.0896013,0.48215333,1.988086,3.9634278,81.0
1503,-1.2568672,3.0046158,-1.0896013,0.42799073,2.0348146,4.36062,81.0
1504,-0.5521736,2.813031,-1.4351821,0.42799073,2.0348146,4.36062,81.0
1505,-0.5521736,2.813031,-1.4351821,0.32709962,2.081543,4.6834717,81.0
1506,0.1911223,2.7768774,-1.9095837,0.32709962,2.081543,4.6834717,81.0
1507,0.1911223,2.7768774,-1.9095837,0.31010744,2.0464966,4.7631226,81.0
1508,0.63502693,2.8992608,-2.247662,0.31010744,2.0464966,4.7631226,81.0
1509,0.63502693,2.8992608,-2.247662,0.42161867,1.9689697,4.6431155,81.0
1510,0.85291886,3.0811152,-2.4756932,0.42161867,1.9689697,4.6431155,81.0
1511,0.85291886,3.0811152,-2.4756932,0.5097656,1.9657837,4.433899,81.0
1512,0.598717,3.212097,-2.6232426,0.5097656,1.9657837,4.433899,81.0
1513,0.598717,3.212097,-2.6232426,0.35895997,1.9848999,4.1768923,81.0
1514,-0.076690435,3.3093748,-2.5268655,0.35895997,1.9848999,4.1768923,81.0
1515,-0.076690435,3.3093748,-2.5268655,0.09451904,1.8521484,3.7627075,81.0
1516,-0.5094116,3.4021752,-2.2036335,0.09451904,1.8521484,3.7627075,81.0
1517,-0.5094116,3.4021752,-2.2036335,-0.19328614,1.6652344,3.3219726,81.0
1518,-0.53094244,3.3617425,-1.8021402,-0.19328614,1.6652344,3.3219726,81.0
1519,-0.53094244,3.3617425,-1.8021402,-0.34727785,1.5282348,2.8599975,81.0
1520,-0.6431377,3.0338888,-1.2996469,-0.34727785,1.5282348,2.8599975,81.0
1521,-0.6431377,3.0338888,-1.2996469,-0.31966552,1.3179566,2.4139526,81.0
1522,-0.90032554,2.434081,-0.55891895,-0.31966552,1.3179566,2.4139526,81.0
1523,-0.90032554,2.434081,-0.55891895,0.03079834,1.0216553,1.9519776,81.0
1524,-0.70431805,1.7502923,0.28450537,0.03079834,1.0216553,1.9519776,81.0
1525,-0.70431805,1.7502923,0.28450537,0.69986576,0.725354,1.2202514,81.0
1526,-0.70431805,1.7502923,0.28450537,0.69986576,0.725354,1.2202514,82.0
1527,0.018052101,1.1321554,0.7137861,0.69986576,0.725354,1.2202514,82.0
1528,0.018052101,1.1321554,0.7137861,1.3030884,0.29630128,0.2548828,82.0
1529,0.7284918,0.41403723,0.6064415,1.3030884,0.29630128,0.2548828,82.0
1530,0.7284918,0.41403723,0.6064415,1.5494751,-0.31966552,-0.7338501,82.0
1531,1.2183647,-0.29226875,0.6442354,1.5494751,-0.31966552,-0.7338501,82.0
1532,1.2183647,-0.29226875,0.6442354,1.2924683,-1.1204224,-1.6046997,82.0
1533,1.6366668,-0.6322651,1.4954786,1.2924683,-1.1204224,-1.6046997,82.0
1534,1.6366668,-0.6322651,1.4954786,0.36320803,-1.7661256,-2.3194337,82.0
1535,1.6366668,-0.6322651,1.4954786,-0.6605713,-2.0995972,-2.7283082,82.0
1536,1.8817577,-0.66115856,2.9822228,-0.6605713,-2.0995972,-2.7283082,82.0
1537,2.002574,-0.66382694,5.7184687,-0.6605713,-2.0995972,-2.7283082,82.0
1538,2.002574,-0.66382694,5.7184687,-1.3062744,-2.3799684,-3.0309815,82.0
1539,2.002574,-0.66382694,5.7184687,-1.5760254,-2.2142944,-3.1849732,82.0
1540,1.2735314,-0.8670602,4.91518,-1.5760254,-2.2142944,-3.1849732,82.0
1541,1.2735314,-0.8670602,4.91518,-1.621692,-1.6928467,-3.2412598,82.0
1542,-0.34725142,-1.2757401,3.3425324,-1.621692,-1.6928467,-3.2412598,82.0
1543,-0.34725142,-1.2757401,3.3425324,-1.7884277,-1.0949341,-3.2848022,82.0
1544,-2.291656,-1.7029285,1.5692286,-1.7884277,-1.0949341,-3.2848022,82.0
1545,-2.291656,-1.7029285,1.5692286,-2.0964112,-0.52888185,-3.2922363,82.0
1546,-3.7695796,-1.920656,0.011400938,-2.0964112,-0.52888185,-3.2922363,82.0
1547,-3.7695796,-1.920656,0.011400938,-2.52334,-0.21134034,-3.248694,82.0
1548,-4.313015,-1.9076428,-1.1561868,-2.52334,-0.21134034,-3.248694,82.0
1549,-4.313015,-1.9076428,-1.1561868,-2.8345094,-0.1178833,-3.1095703,82.0
1550,-4.013986,-1.8397985,-1.7689681,-2.8345094,-0.1178833,-3.1095703,82.0
1551,-4.013986,-1.8397985,-1.7689681,-2.9661987,-0.107263185,-3.0957642,82.0
1552,-3.4188917,-1.928333,-1.7585827,-2.9661987,-0.107263185,-3.0957642,82.0
1553,-3.4188917,-1.928333,-1.7585827,-3.1000123,-0.09133301,-3.085144,82.0
1554,-2.8782773,-2.048306,-1.3475888,-3.1000123,-0.09133301,-3.085144,82.0
1555,-2.8782773,-2.048306,-1.3475888,-3.0469117,-0.070092775,-3.0097413,82.0
1556,-2.5947118,-3.0317967,-0.5338816,-3.0469117,-0.070092775,-3.0097413,82.0
1557,-2.5947118,-3.0317967,-0.5338816,-2.531836,0.07115479,-2.8727417,82.0
1558,-2.1937017,-3.1972392,-0.06113848,-2.531836,0.07115479,-2.8727417,82.0
1559,-2.1937017,-3.1972392,-0.06113848,-2.3831544,0.10301514,-2.8366334,82.0
1560,-1.4141655,-4.198075,0.8805936,-2.3831544,0.10301514,-2.8366334,82.0
1561,-1.4141655,-4.198075,0.8805936,-1.3487549,-0.09770508,-2.710254,82.0
1562,-0.54144,-4.0498295,0.8760203,-1.3487549,-0.09770508,-2.710254,82.0
