,accx,accy,accz,gyrox,gyroy,gyroz,heart rate
0,walk,walk,walk,walk,walk,walk,walk
1,-0.48488772,-60.46056,32.575233,0.0,0.0,0.0,0.0
2,-0.48488772,-60.46056,32.575233,0.15717773,-0.016992187,-0.15823975,0.0
3,-0.40491456,-47.85076,26.120964,0.15717773,-0.016992187,-0.15823975,0.0
4,-0.40491456,-47.85076,26.120964,-0.033984374,-0.0010620117,-0.09770508,0.0
5,-0.15490091,-37.865036,21.064972,-0.033984374,-0.0010620117,-0.09770508,0.0
6,-0.15490091,-37.865036,21.064972,-0.18903808,-0.021240234,-0.0637207,0.0
7,-0.15490091,-37.865036,21.064972,-0.18903808,-0.021240234,-0.0637207,99.0
8,0.037346363,-30.373074,16.859901,-0.18903808,-0.021240234,-0.0637207,99.0
9,0.037346363,-30.373074,16.859901,-0.15611573,0.022302246,0.022302246,99.0
10,0.05034828,-24.706978,13.363972,-0.15611573,0.022302246,0.022302246,99.0
11,0.05034828,-24.706978,13.363972,-0.035046387,0.0021240234,0.020178223,99.0
12,-0.028703302,-20.151726,10.563503,-0.035046387,0.0021240234,0.020178223,99.0
13,-0.028703302,-20.151726,10.563503,0.14124756,-0.0021240234,-0.07540283,99.0
14,-0.036231667,-16.158745,8.422859,0.14124756,-0.0021240234,-0.07540283,99.0
15,-0.036231667,-16.158745,8.422859,0.23258057,-0.0010620117,-0.12213135,99.0
16,0.004437506,-12.5964775,6.8492737,0.23258057,-0.0010620117,-0.12213135,99.0
17,0.004437506,-12.5964775,6.8492737,0.1709839,-0.021240234,-0.13168946,99.0
18,0.06739278,-9.679451,5.608238,0.1709839,-0.021240234,-0.13168946,99.0
19,0.06739278,-9.679451,5.608238,0.04248047,-0.0541626,-0.12956543,99.0
20,0.11438787,-7.519928,4.5498123,0.04248047,-0.0541626,-0.12956543,99.0
21,0.11438787,-7.519928,4.5498123,-0.118945315,-0.06478272,-0.10620117,99.0
22,0.11084624,-6.059181,3.6409988,-0.118945315,-0.06478272,-0.10620117,99.0
23,0.11084624,-6.059181,3.6409988,-0.16354981,-0.08071289,-0.11363526,99.0
24,0.09500024,-5.0468826,2.8823166,-0.16354981,-0.08071289,-0.11363526,99.0
25,0.09500024,-5.0468826,2.8823166,-0.07540283,-0.038232423,-0.09133301,99.0
26,0.06111981,-4.1908646,2.3213196,-0.07540283,-0.038232423,-0.09133301,99.0
27,0.06111981,-4.1908646,2.3213196,0.025488282,-0.057348635,-0.14018555,99.0
28,0.013104826,-3.3629227,1.9152946,0.025488282,-0.057348635,-0.14018555,99.0
29,0.013104826,-3.3629227,1.9152946,0.06903076,-0.038232423,-0.12531738,99.0
30,-0.014906764,-2.6028748,1.5654755,0.06903076,-0.038232423,-0.12531738,99.0
31,-0.014906764,-2.6028748,1.5654755,0.02442627,-0.06159668,-0.1274414,99.0
32,-0.025817007,-2.0600204,1.2174301,0.02442627,-0.06159668,-0.1274414,99.0
33,-0.025817007,-2.0600204,1.2174301,0.027612304,-0.06265869,-0.16036378,99.0
34,-0.0148308575,-1.7481155,0.9008713,0.027612304,-0.06265869,-0.16036378,99.0
35,-0.0148308575,-1.7481155,0.9008713,0.115759276,-0.058410645,-0.17947999,99.0
36,0.015100643,-1.4820633,0.6937065,0.115759276,-0.058410645,-0.17947999,99.0
37,0.015100643,-1.4820633,0.6937065,0.1985962,-0.0637207,-0.15930176,99.0
38,0.06686567,-1.1349335,0.5829315,0.1985962,-0.0637207,-0.15930176,99.0
39,0.06686567,-1.1349335,0.5829315,0.22727051,-0.04460449,-0.11257324,99.0
40,0.07998179,-0.73716736,0.50871277,0.22727051,-0.04460449,-0.11257324,99.0
41,0.07998179,-0.73716736,0.50871277,0.15186767,-0.059472658,-0.107263185,99.0
42,0.058541097,-0.45200348,0.39526367,0.15186767,-0.059472658,-0.107263185,99.0
43,0.058541097,-0.45200348,0.39526367,0.08920898,-0.07434082,-0.12319336,99.0
44,0.069757685,-0.31926727,0.25185394,0.08920898,-0.07434082,-0.12319336,99.0
45,0.069757685,-0.31926727,0.25185394,0.050976563,-0.040356446,-0.09239502,99.0
46,0.05257128,-0.24459839,0.18530655,0.050976563,-0.040356446,-0.09239502,99.0
47,0.05257128,-0.24459839,0.18530655,-0.025488282,-0.03186035,-0.107263185,99.0
48,0.00935439,-0.24705505,0.18591309,-0.025488282,-0.03186035,-0.107263185,99.0
49,0.00935439,-0.24705505,0.18591309,-0.035046387,-0.033984374,-0.1539917,99.0
50,-0.013598032,-0.33537292,0.14382172,-0.035046387,-0.033984374,-0.1539917,99.0
51,-0.013598032,-0.33537292,0.14382172,0.0063720704,-0.032922365,-0.1985962,99.0
52,-0.013598032,-0.33537292,0.14382172,0.093457036,-0.026550293,-0.20496826,99.0
53,0.012375966,-0.3793106,0.05247116,0.093457036,-0.026550293,-0.20496826,99.0
54,0.07450038,-0.31118774,0.023971558,0.093457036,-0.026550293,-0.20496826,99.0
55,0.07450038,-0.31118774,0.023971558,0.12213135,-0.010620117,-0.16673584,99.0
56,0.1382258,-0.26818085,0.04710388,0.12213135,-0.010620117,-0.16673584,99.0
57,0.1382258,-0.26818085,0.04710388,0.2347046,-0.008496094,-0.1985962,99.0
58,0.23885213,-0.3434143,0.06721115,0.2347046,-0.008496094,-0.1985962,99.0
59,0.23885213,-0.3434143,0.06721115,0.5235718,0.033984374,-0.14549561,99.0
60,0.33145034,-0.28891754,0.14800644,0.5235718,0.033984374,-0.14549561,99.0
61,0.33145034,-0.28891754,0.14800644,0.5798584,0.11257324,0.015930176,99.0
62,0.26320717,-0.091545105,0.31380463,0.5798584,0.11257324,0.015930176,99.0
63,0.26320717,-0.091545105,0.31380463,0.48321533,0.09133301,0.052038576,99.0
64,0.11234796,0.035362244,0.41161346,0.48321533,0.09133301,0.052038576,99.0
65,0.11234796,0.035362244,0.41161346,0.4959595,0.16036378,0.052038576,99.0
66,0.07228804,0.09510803,0.3848076,0.4959595,0.16036378,0.052038576,99.0
67,0.07228804,0.09510803,0.3848076,0.5777344,0.20603028,0.023364259,99.0
68,-0.0030582547,0.27742767,0.37244415,0.5777344,0.20603028,0.023364259,99.0
69,-0.0030582547,0.27742767,0.37244415,0.31010744,0.18054199,0.095581055,99.0
70,-0.0030582547,0.27742767,0.37244415,0.21027832,0.11469727,0.027612304,99.0
71,-0.10504669,0.45846558,0.42847443,0.21027832,0.11469727,0.027612304,99.0
72,-0.07831226,0.3881073,0.4766655,0.21027832,0.11469727,0.027612304,99.0
73,-0.07831226,0.3881073,0.4766655,0.22939454,0.14868164,0.0,99.0
74,0.078512296,0.09354401,0.5264511,0.22939454,0.14868164,0.0,99.0
75,0.078512296,0.09354401,0.5264511,0.3971924,0.1529297,-0.058410645,99.0
76,0.27310038,-0.21276093,0.56710815,0.3971924,0.1529297,-0.058410645,99.0
77,0.27310038,-0.21276093,0.56710815,0.57242435,0.2623169,-0.0637207,99.0
78,0.27310038,-0.21276093,0.56710815,0.6202149,0.34833986,-0.06690674,99.0
79,0.35453987,-0.24774933,0.5385246,0.6202149,0.34833986,-0.06690674,99.0
80,0.22447664,0.00680542,0.42486572,0.6202149,0.34833986,-0.06690674,99.0
81,0.22447664,0.00680542,0.42486572,0.5363159,0.3982544,-0.04991455,99.0
82,0.030460209,0.3010788,0.30485535,0.5363159,0.3982544,-0.04991455,99.0
83,0.030460209,0.3010788,0.30485535,0.4067505,0.42905274,0.0031860352,99.0
84,-0.07341015,0.44216156,0.27526855,0.4067505,0.42905274,0.0031860352,99.0
85,-0.07341015,0.44216156,0.27526855,0.2516968,0.47578126,0.05628662,99.0
86,-0.108044535,0.35966492,0.31935883,0.2516968,0.47578126,0.05628662,99.0
87,-0.108044535,0.35966492,0.31935883,0.13487549,0.4895874,0.070092775,99.0
88,-0.11697763,0.076416016,0.32936096,0.13487549,0.4895874,0.070092775,99.0
89,-0.11697763,0.076416016,0.32936096,0.20178223,0.48427734,0.013806152,99.0
90,-0.08136287,-0.16307831,0.28186035,0.20178223,0.48427734,0.013806152,99.0
91,-0.08136287,-0.16307831,0.28186035,0.3717041,0.53950197,-0.019116212,99.0
92,-0.09435055,-0.07878113,0.24528885,0.3717041,0.53950197,-0.019116212,99.0
93,-0.09435055,-0.07878113,0.24528885,0.38869628,0.5543701,-0.043542482,99.0
94,-0.13783395,0.21498871,0.25530243,0.38869628,0.5543701,-0.043542482,99.0
95,-0.13783395,0.21498871,0.25530243,0.3058594,0.53737795,-0.06690674,99.0
96,-0.13783395,0.21498871,0.25530243,0.18054199,0.5511841,-0.081774905,99.0
97,-0.1370616,0.40459442,0.23552704,0.18054199,0.5511841,-0.081774905,99.0
98,-0.1355648,0.4203949,0.18171692,0.18054199,0.5511841,-0.081774905,99.0
99,-0.1355648,0.4203949,0.18171692,0.027612304,0.56180423,-0.078588866,99.0
100,-0.1882248,0.29396057,0.11501312,0.027612304,0.56180423,-0.078588866,99.0
101,-0.1882248,0.29396057,0.11501312,-0.03717041,0.53100586,-0.10513916,99.0
102,-0.22693484,0.010864258,0.06867218,-0.03717041,0.53100586,-0.10513916,99.0
103,-0.22693484,0.010864258,0.06867218,0.11151123,0.51932377,-0.15823975,99.0
104,-0.22693484,0.010864258,0.06867218,0.11151123,0.51932377,-0.15823975,99.0
105,-0.19100831,-0.17085266,0.09456253,0.11151123,0.51932377,-0.15823975,99.0
106,-0.19100831,-0.17085266,0.09456253,0.22514649,0.53525394,-0.20072022,99.0
107,-0.18115139,0.037353516,0.14819336,0.22514649,0.53525394,-0.20072022,99.0
108,-0.18115139,0.037353516,0.14819336,0.14230958,0.53737795,-0.23258057,99.0
109,-0.27574387,0.4447174,0.15317535,0.14230958,0.53737795,-0.23258057,99.0
110,-0.27574387,0.4447174,0.15317535,-0.12000733,0.4343628,-0.26868898,99.0
111,-0.29066345,0.43843842,0.09925842,-0.12000733,0.4343628,-0.26868898,99.0
112,-0.29066345,0.43843842,0.09925842,-0.06584473,0.30161133,-0.3971924,99.0
113,-0.15098779,0.039642334,0.10350418,-0.06584473,0.30161133,-0.3971924,99.0
114,-0.15098779,0.039642334,0.10350418,0.09664307,0.3345337,-0.42374268,99.0
115,-0.077345416,-0.13896179,0.23309326,0.09664307,0.3345337,-0.42374268,99.0
116,-0.077345416,-0.13896179,0.23309326,0.13168946,0.2527588,-0.4800293,99.0
117,-0.085960805,0.08719635,0.32818604,0.13168946,0.2527588,-0.4800293,99.0
118,-0.085960805,0.08719635,0.32818604,0.04141846,0.16779785,-0.51826173,99.0
119,-0.030694902,0.34947968,0.27558517,0.04141846,0.16779785,-0.51826173,99.0
120,-0.030694902,0.34947968,0.27558517,-0.012744141,0.033984374,-0.6053467,99.0
121,0.13280493,0.3212433,0.1364212,-0.012744141,0.033984374,-0.6053467,99.0
122,0.13280493,0.3212433,0.1364212,0.10195313,0.035046387,-0.6605713,99.0
123,0.21233526,0.2535553,0.07007599,0.10195313,0.035046387,-0.6605713,99.0
124,0.21233526,0.2535553,0.07007599,0.07434082,0.029736329,-0.67650145,99.0
125,0.12337162,0.37837982,0.092998505,0.07434082,0.029736329,-0.67650145,99.0
126,0.12337162,0.37837982,0.092998505,-0.06478272,-0.060534667,-0.7189819,99.0
127,0.011148468,0.5291214,0.040988922,-0.06478272,-0.060534667,-0.7189819,99.0
128,0.011148468,0.5291214,0.040988922,-0.16992188,-0.10938721,-0.7391602,99.0
129,-0.056425467,0.49699402,-0.18537521,-0.16992188,-0.10938721,-0.7391602,99.0
130,-0.056425467,0.49699402,-0.18537521,-0.14655761,-0.19328614,-0.8241211,99.0
131,-0.079307854,0.42128754,-0.46034622,-0.14655761,-0.19328614,-0.8241211,99.0
132,-0.079307854,0.42128754,-0.46034622,-0.21983643,-0.22833252,-0.8644776,99.0
133,-0.06795068,0.43374634,-0.6895752,-0.21983643,-0.22833252,-0.8644776,99.0
134,-0.06795068,0.43374634,-0.6895752,-0.362146,-0.31010744,-0.94412845,99.0
135,0.03636211,0.46710205,-0.8912735,-0.362146,-0.31010744,-0.94412845,99.0
136,0.03636211,0.46710205,-0.8912735,-0.4704712,-0.41206056,-1.0513916,99.0
137,0.31362337,0.4596176,-1.0432663,-0.4704712,-0.41206056,-1.0513916,99.0
138,0.31362337,0.4596176,-1.0432663,-0.7147339,-0.5097656,-1.1692749,99.0
139,0.6640701,0.33704376,-1.2558746,-0.7147339,-0.5097656,-1.1692749,99.0
140,0.6640701,0.33704376,-1.2558746,-0.9483765,-0.56605226,-1.3147706,99.0
141,0.8977722,0.29169464,-1.7531509,-0.9483765,-0.56605226,-1.3147706,99.0
142,0.8977722,0.29169464,-1.7531509,-1.447522,-0.6966797,-1.4528321,99.0
143,0.98597896,0.48988342,-2.5053635,-1.447522,-0.6966797,-1.4528321,99.0
144,0.98597896,0.48988342,-2.5053635,-2.1378295,-0.8782837,-1.5579712,99.0
145,0.97811425,0.834816,-3.2858124,-2.1378295,-0.8782837,-1.5579712,99.0
146,0.97811425,0.834816,-3.2858124,-2.8886719,-1.1395386,-1.6779785,99.0
147,0.9948815,1.2054062,-3.8956146,-2.8886719,-1.1395386,-1.6779785,99.0
148,0.9948815,1.2054062,-3.8956146,-3.6851807,-1.4209718,-1.7905518,99.0
149,1.1592597,1.5971146,-4.262474,-3.6851807,-1.4209718,-1.7905518,99.0
150,1.1592597,1.5971146,-4.262474,-4.6792235,-1.6588624,-1.8776368,99.0
151,1.4282134,2.0604324,-4.3764114,-4.6792235,-1.6588624,-1.8776368,99.0
152,1.4282134,2.0604324,-4.3764114,-5.9971805,-1.806482,-1.9732178,99.0
153,1.6595631,2.2852097,-4.3295593,-5.9971805,-1.806482,-1.9732178,99.0
154,1.6595631,2.2852097,-4.3295593,-6.965735,-2.0528686,-2.3268678,99.0
155,1.9825699,2.1715012,-4.171547,-6.965735,-2.0528686,-2.3268678,99.0
156,1.9825699,2.1715012,-4.171547,-7.6114383,-1.9987061,-2.72937,99.0
157,2.439767,2.039032,-3.676361,-7.6114383,-1.9987061,-2.72937,99.0
158,2.439767,2.039032,-3.676361,-8.187049,-1.8563966,-3.1977174,99.0
159,2.7954416,1.6984406,-2.715187,-8.187049,-1.8563966,-3.1977174,99.0
160,2.7954416,1.6984406,-2.715187,-8.234839,-1.7693115,-3.7818239,99.0
161,2.9769049,1.0344467,-1.6107979,-8.234839,-1.7693115,-3.7818239,99.0
162,2.9769049,1.0344467,-1.6107979,-7.615686,-1.545227,-4.3170776,99.0
163,2.8535824,0.8220978,-0.5965729,-7.615686,-1.545227,-4.3170776,99.0
164,2.8535824,0.8220978,-0.5965729,-7.051758,-1.2765381,-4.715332,99.0
165,2.2075605,1.5663223,0.34223557,-7.051758,-1.2765381,-4.715332,99.0
166,2.2075605,1.5663223,0.34223557,-6.586597,-1.174585,-5.0976562,99.0
167,1.4223104,2.6214905,1.2464333,-6.586597,-1.174585,-5.0976562,99.0
168,1.4223104,2.6214905,1.2464333,-5.910095,-1.3168945,-5.530957,99.0
169,1.1305242,2.9460526,2.225563,-5.910095,-1.3168945,-5.530957,99.0
170,1.1305242,2.9460526,2.225563,-4.721704,-1.630188,-6.0428467,99.0
171,1.365418,1.8490677,3.3106384,-4.721704,-1.630188,-6.0428467,99.0
172,1.365418,1.8490677,3.3106384,-2.618921,-2.1367676,-6.5791626,99.0
173,1.429688,-0.593132,4.1993065,-2.618921,-2.1367676,-6.5791626,99.0
174,1.429688,-0.593132,4.1993065,0.5065796,-2.89823,-7.1016726,99.0
175,0.73223925,-3.0971146,3.9757423,0.5065796,-2.89823,-7.1016726,99.0
176,0.73223925,-3.0971146,3.9757423,3.6586304,-3.5205688,-7.1600833,99.0
177,-0.5056882,-3.9751434,1.7027969,3.6586304,-3.5205688,-7.1600833,99.0
178,-0.5056882,-3.9751434,1.7027969,5.7656617,-2.809021,-6.1267457,99.0
179,-2.2624974,-2.6336746,-1.4196472,5.7656617,-2.809021,-6.1267457,99.0
180,-2.2624974,-2.6336746,-1.4196472,6.6513796,-1.445398,-4.3457522,99.0
181,-4.5066776,0.5098419,-2.627674,6.6513796,-1.445398,-4.3457522,99.0
182,-4.5066776,0.5098419,-2.627674,5.4576783,-1.0694458,-2.8419435,99.0
183,-5.8382034,3.9381714,-1.6146278,5.4576783,-1.0694458,-2.8419435,99.0
184,-5.8382034,3.9381714,-1.6146278,3.0670898,-0.68287355,-1.5048707,99.0
185,-6.243329,6.1556625,-0.088443756,3.0670898,-0.68287355,-1.5048707,99.0
186,-6.243329,6.1556625,-0.088443756,0.58304447,-0.5479981,-0.41843262,99.0
187,-6.2820535,6.3194733,0.76010513,0.58304447,-0.5479981,-0.41843262,99.0
188,-6.2820535,6.3194733,0.76010513,-1.358313,-0.73809814,0.057348635,99.0
189,-5.505428,4.692566,0.60572815,-1.358313,-0.73809814,0.057348635,99.0
190,-5.505428,4.692566,0.60572815,-2.5966187,-0.39188233,0.5692383,99.0
191,-4.5739837,3.062584,0.20806885,-2.5966187,-0.39188233,0.5692383,99.0
192,-4.5739837,3.062584,0.20806885,-3.98573,-0.18585205,1.0004151,99.0
193,-3.8562574,2.0735893,0.18018723,-3.98573,-0.18585205,1.0004151,99.0
194,-3.8562574,2.0735893,0.18018723,-5.408826,-0.045666505,1.4815063,99.0
195,-3.0656824,0.95534515,0.6418419,-5.408826,-0.045666505,1.4815063,99.0
196,-3.0656824,0.95534515,0.6418419,-6.4952636,0.17947999,1.8319702,99.0
197,-2.173774,-0.7154732,1.3355064,-6.4952636,0.17947999,1.8319702,99.0
198,-2.173774,-0.7154732,1.3355064,-6.9306884,0.54587406,2.0518067,99.0
199,-1.5018001,-2.4866867,1.8349228,-6.9306884,0.54587406,2.0518067,99.0
200,-1.5018001,-2.4866867,1.8349228,-6.7607665,0.9218262,2.163318,99.0
201,-1.5018001,-2.4866867,1.8349228,-6.7607665,0.9218262,2.163318,97.0
202,-1.3291378,-3.5161438,2.0018616,-6.7607665,0.9218262,2.163318,97.0
203,-1.3291378,-3.5161438,2.0018616,-6.306226,1.0609497,2.1314576,97.0
204,-1.4829636,-3.5098495,1.9660263,-6.306226,1.0609497,2.1314576,97.0
205,-1.4829636,-3.5098495,1.9660263,-5.5479493,0.9685547,1.8744507,97.0
206,-1.5018492,-2.8485794,1.9493103,-5.5479493,0.9685547,1.8744507,97.0
207,-1.5018492,-2.8485794,1.9493103,-4.346814,0.74871826,1.4793824,97.0
208,-1.1065207,-1.9554901,2.1276855,-4.346814,0.74871826,1.4793824,97.0
209,-1.1065207,-1.9554901,2.1276855,-2.9035401,0.4364868,1.081128,97.0
210,-0.296093,-0.9364395,2.4538574,-2.9035401,0.4364868,1.081128,97.0
211,-0.296093,-0.9364395,2.4538574,-1.6546143,0.22408448,0.76677245,97.0
212,0.5938387,0.096328735,2.7439842,-1.6546143,0.22408448,0.76677245,97.0
213,0.5938387,0.096328735,2.7439842,-0.7455322,0.0063720704,0.5979126,97.0
214,1.1827002,0.90506744,2.7713356,-0.7455322,0.0063720704,0.5979126,97.0
215,1.1827002,0.90506744,2.7713356,0.0031860352,-0.24532472,0.47790527,97.0
216,1.4365411,1.5043259,2.480896,0.0031860352,-0.24532472,0.47790527,97.0
217,1.4365411,1.5043259,2.480896,0.53950197,-0.540564,0.4258667,97.0
218,1.4925189,1.9331589,2.152378,0.53950197,-0.540564,0.4258667,97.0
219,1.4925189,1.9331589,2.152378,0.88996583,-0.8379273,0.47365722,97.0
220,1.5495815,2.1004944,2.044754,0.88996583,-0.8379273,0.47365722,97.0
221,1.5495815,2.1004944,2.044754,1.1416626,-1.0726318,0.5363159,97.0
222,1.7431686,2.1051636,1.9724731,1.1416626,-1.0726318,0.5363159,97.0
223,1.7431686,2.1051636,1.9724731,1.170337,-1.0450195,0.7317261,97.0
224,1.8264318,2.1203232,1.7334595,1.170337,-1.0450195,0.7317261,97.0
225,1.8264318,2.1203232,1.7334595,1.084314,-0.99085695,0.9494385,97.0
226,1.6339483,2.173603,1.3494606,1.084314,-0.99085695,0.9494385,97.0
227,1.6339483,2.173603,1.3494606,0.89421386,-0.8846558,1.0938721,97.0
228,1.4336722,2.021572,0.97621155,0.89421386,-0.8846558,1.0938721,97.0
229,1.4336722,2.021572,0.97621155,0.77526855,-0.79969484,1.1575928,97.0
230,1.2724993,2.6089325,0.93571854,0.77526855,-0.79969484,1.1575928,97.0
231,1.2724993,2.6089325,0.93571854,0.76358646,-0.39188233,0.8464233,97.0
232,1.1268617,2.849987,0.8664818,0.76358646,-0.39188233,0.8464233,97.0
233,1.1268617,2.849987,0.8664818,0.7805786,-0.18585205,0.53525394,97.0
234,0.92504895,4.641697,1.2484093,0.7805786,-0.18585205,0.53525394,97.0
235,0.92504895,4.641697,1.2484093,-0.44816896,0.14549561,0.56817627,97.0
236,0.6498902,3.7840118,1.0262909,-0.44816896,0.14549561,0.56817627,97.0
237,0.6498902,3.7840118,1.0262909,-0.7858887,0.1731079,0.4598511,97.0
238,-0.094272375,1.0757561,-0.15405273,-0.7858887,0.1731079,0.4598511,97.0
239,-0.094272375,1.0757561,-0.15405273,-1.1501588,0.02442627,0.0637207,97.0
240,-0.13514686,0.025054932,-0.428833,-1.1501588,0.02442627,0.0637207,97.0
241,-0.13514686,0.025054932,-0.428833,-1.1193603,-0.004248047,-0.027612304,97.0
242,0.45460224,-1.9017448,-0.8456688,-1.1193603,-0.004248047,-0.027612304,97.0
243,0.45460224,-1.9017448,-0.8456688,-1.2499878,-0.26550293,-0.46409914,97.0
244,0.7943946,-2.0609589,-0.44604492,-1.2499878,-0.26550293,-0.46409914,97.0
245,0.7943946,-2.0609589,-0.44604492,-1.3041505,-0.3090454,-0.57561034,97.0
246,2.4600396,-3.109558,0.033374786,-1.3041505,-0.3090454,-0.57561034,97.0
247,2.4600396,-3.109558,0.033374786,-0.8358032,-0.20284425,-0.901648,97.0
248,2.3678486,-3.0149422,0.082790375,-0.8358032,-0.20284425,-0.901648,97.0
249,2.3678486,-3.0149422,0.082790375,-0.50233155,-0.06796875,-0.9494385,97.0
250,1.9850137,-3.0946198,-0.3818245,-0.50233155,-0.06796875,-0.9494385,97.0
251,1.9850137,-3.0946198,-0.3818245,0.26975098,0.29948732,-0.76464844,97.0
252,1.1046858,-2.4693222,-0.5781021,0.26975098,0.29948732,-0.76464844,97.0
253,1.1046858,-2.4693222,-0.5781021,0.4694092,0.3451538,-0.64782715,97.0
254,-0.58765024,-1.6822433,-1.0997276,0.4694092,0.3451538,-0.64782715,97.0
255,-0.58765024,-1.6822433,-1.0997276,1.3147706,0.46516114,-0.24320069,97.0
256,-0.7779205,-1.1238098,-1.242527,1.3147706,0.46516114,-0.24320069,97.0
257,-0.7779205,-1.1238098,-1.242527,1.6068238,0.50870365,-0.11469727,97.0
258,-0.72221434,-0.18052673,-1.4957199,1.6068238,0.50870365,-0.11469727,97.0
259,-0.72221434,-0.18052673,-1.4957199,1.9700317,0.6552612,0.21346436,97.0
260,-0.24339646,0.8759537,-1.7192307,1.9700317,0.6552612,0.21346436,97.0
261,-0.24339646,0.8759537,-1.7192307,2.0156982,0.8729736,0.53100586,97.0
262,0.19014612,1.6291428,-1.9300995,2.0156982,0.8729736,0.53100586,97.0
263,0.19014612,1.6291428,-1.9300995,1.7629395,1.1448487,0.84748536,97.0
264,0.3108083,1.867279,-2.077919,1.7629395,1.1448487,0.84748536,97.0
265,0.3108083,1.867279,-2.077919,1.2956543,1.4103516,1.1565307,97.0
266,-0.23934165,1.6686287,-2.1056824,1.2956543,1.4103516,1.1565307,97.0
267,-0.23934165,1.6686287,-2.1056824,0.4895874,1.7586914,1.5069946,97.0
268,-0.33213493,1.3825989,-1.799633,0.4895874,1.7586914,1.5069946,97.0
269,-0.33213493,1.3825989,-1.799633,0.20178223,1.8415283,1.5993897,97.0
270,-1.2154272,1.0152245,-0.99608994,0.20178223,1.8415283,1.5993897,97.0
271,-1.2154272,1.0152245,-0.99608994,-0.7327881,2.005078,1.8468384,97.0
272,-1.0440336,0.8186722,-0.5500717,-0.7327881,2.005078,1.8468384,97.0
273,-1.0440336,0.8186722,-0.5500717,-1.0482056,2.005078,1.898877,97.0
274,-1.0649388,0.47332,-0.06974411,-1.0482056,2.005078,1.898877,97.0
275,-1.0649388,0.47332,-0.06974411,-1.5898316,1.9647217,1.9541016,97.0
276,-0.84242964,0.07483673,0.11695862,-1.5898316,1.9647217,1.9541016,97.0
277,-0.84242964,0.07483673,0.11695862,-1.9233032,1.9201173,1.9562256,97.0
278,-0.6562435,-0.33935928,0.15093994,-1.9233032,1.9201173,1.9562256,97.0
279,-0.6562435,-0.33935928,0.15093994,-1.991272,1.7756836,1.8648926,97.0
280,-0.6220895,-0.7448425,0.24046326,-1.991272,1.7756836,1.8648926,97.0
281,-0.6220895,-0.7448425,0.24046326,-1.8351563,1.5685914,1.62594,97.0
282,-0.5747956,-1.0656853,0.38614273,-1.8351563,1.5685914,1.62594,97.0
283,-0.5747956,-1.0656853,0.38614273,-1.5229248,1.4199097,1.3402588,97.0
284,-0.524192,-1.2216263,0.4651909,-1.5229248,1.4199097,1.3402588,97.0
285,-0.524192,-1.2216263,0.4651909,-1.1406006,1.2999023,1.0598878,97.0
286,-0.494439,-1.1757278,0.409935,-1.1406006,1.2999023,1.0598878,97.0
287,-0.494439,-1.1757278,0.409935,-0.7338501,1.1140503,0.7306641,97.0
288,-0.3442695,-0.9102478,0.13490677,-0.7338501,1.1140503,0.7306641,97.0
289,-0.3442695,-0.9102478,0.13490677,-0.39613038,0.9260742,0.38763428,97.0
290,0.08181095,-0.51651764,-0.24927521,-0.39613038,0.9260742,0.38763428,97.0
291,0.08181095,-0.51651764,-0.24927521,-0.16036378,0.81243896,0.1083252,97.0
292,0.4584297,-0.15876007,-0.5451584,-0.16036378,0.81243896,0.1083252,97.0
293,0.4584297,-0.15876007,-0.5451584,-0.029736329,0.72323,-0.11257324,97.0
294,0.5380449,0.048137665,-0.5881424,-0.029736329,0.72323,-0.11257324,97.0
295,0.5380449,0.048137665,-0.5881424,-0.050976563,0.57454836,-0.29948732,97.0
296,0.45470357,0.1035614,-0.4372406,-0.050976563,0.57454836,-0.29948732,97.0
297,0.45470357,0.1035614,-0.4372406,-0.24638672,0.37382814,-0.48215333,97.0
298,0.5347712,0.049827576,-0.23830795,-0.24638672,0.37382814,-0.48215333,97.0
299,0.5347712,0.049827576,-0.23830795,-0.5363159,0.14868164,-0.6425171,97.0
300,0.8216036,-0.089164734,-0.001461029,-0.5363159,0.14868164,-0.6425171,97.0
301,0.8216036,-0.089164734,-0.001461029,-0.73809814,-0.047790527,-0.7391602,97.0
302,1.0317214,-0.24656677,0.3704872,-0.73809814,-0.047790527,-0.7391602,97.0
303,1.0317214,-0.24656677,0.3704872,-0.7858887,-0.26444092,-0.815625,97.0
304,1.0026965,-0.3928337,0.91724014,-0.7858887,-0.26444092,-0.815625,97.0
305,1.0026965,-0.3928337,0.91724014,-0.72641605,-0.5140137,-0.93138427,97.0
306,0.9720546,-0.5139351,1.391346,-0.72641605,-0.5140137,-0.93138427,97.0
307,0.9720546,-0.5139351,1.391346,-0.58198243,-0.7742066,-1.0906861,97.0
308,1.1149728,-0.6230507,1.4531403,-0.58198243,-0.7742066,-1.0906861,97.0
309,1.1149728,-0.6230507,1.4531403,-0.2623169,-0.94412845,-1.2096313,97.0
310,1.2842879,-0.6310692,1.1551056,-0.2623169,-0.94412845,-1.2096313,97.0
311,1.2842879,-0.6310692,1.1551056,0.115759276,-1.1862671,-1.364685,97.0
312,1.2537975,-0.5621338,1.0134163,0.115759276,-1.1862671,-1.364685,97.0
313,1.2537975,-0.5621338,1.0134163,0.6446411,-1.4326538,-1.4878784,97.0
314,0.7219467,-0.6597786,1.4952927,0.6446411,-1.4326538,-1.4878784,97.0
315,0.7219467,-0.6597786,1.4952927,1.5590333,-1.6599244,-1.5823975,97.0
316,0.7219467,-0.6597786,1.4952927,1.5590333,-1.6599244,-1.5823975,97.0
317,-0.18800658,-0.71998596,2.378498,1.5590333,-1.6599244,-1.5823975,97.0
318,-0.18800658,-0.71998596,2.378498,2.5552003,-1.7937378,-1.6546143,97.0
319,-0.93849117,-0.23848724,2.90934,2.5552003,-1.7937378,-1.6546143,97.0
320,-0.93849117,-0.23848724,2.90934,3.1860352,-1.7002808,-1.5431031,97.0
321,-1.2725947,0.85079956,2.6593056,3.1860352,-1.7002808,-1.5431031,97.0
322,-1.2725947,0.85079956,2.6593056,3.0692139,-1.4995606,-1.3052124,97.0
323,-1.1867158,2.150097,2.0660324,3.0692139,-1.4995606,-1.3052124,97.0
324,-1.1867158,2.150097,2.0660324,2.275891,-1.3200806,-1.0205933,97.0
325,-0.7142409,3.0855942,1.5426064,2.275891,-1.3200806,-1.0205933,97.0
326,-0.7142409,3.0855942,1.5426064,1.3806152,-1.0163453,-0.7434082,97.0
327,-0.05505971,3.460907,0.9660187,1.3806152,-1.0163453,-0.7434082,97.0
328,-0.05505971,3.460907,0.9660187,0.48746338,-0.50870365,-0.41524658,97.0
329,0.33919197,3.4008408,0.32138824,0.48746338,-0.50870365,-0.41524658,97.0
330,0.33919197,3.4008408,0.32138824,-0.4619751,0.0031860352,-0.09664307,97.0
331,0.13187605,2.8646774,-0.3257637,-0.4619751,0.0031860352,-0.09664307,97.0
332,0.13187605,2.8646774,-0.3257637,-1.2574219,0.45666504,0.20709229,97.0
333,-0.5475875,1.9326859,-0.87760544,-1.2574219,0.45666504,0.20709229,97.0
334,-0.5475875,1.9326859,-0.87760544,-1.8457764,0.74659425,0.42799073,97.0
335,-1.2518274,0.85891724,-1.1766357,-1.8457764,0.74659425,0.42799073,97.0
336,-1.2518274,0.85891724,-1.1766357,-2.1537597,0.905896,0.55968016,97.0
337,-1.5829195,-0.16397858,-1.1947632,-2.1537597,0.905896,0.55968016,97.0
338,-1.5829195,-0.16397858,-1.1947632,-2.1229615,1.0620117,0.64995116,97.0
339,-1.5605251,-1.0235634,-0.9881363,-2.1229615,1.0620117,0.64995116,97.0
340,-1.5605251,-1.0235634,-0.9881363,-1.9041871,1.1586548,0.69349366,97.0
341,-1.381196,-1.603447,-0.6693268,-1.9041871,1.1586548,0.69349366,97.0
342,-1.381196,-1.603447,-0.6693268,-1.5940796,1.2425537,0.6860596,97.0
343,-1.230909,-1.7906036,-0.37286377,-1.5940796,1.2425537,0.6860596,97.0
344,-1.230909,-1.7906036,-0.37286377,-1.2829102,1.3455689,0.67437744,97.0
345,-1.246922,-1.6155853,-0.1533966,-1.2829102,1.3455689,0.67437744,97.0
346,-1.246922,-1.6155853,-0.1533966,-1.1257324,1.3487549,0.66269535,97.0
347,-1.3810215,-1.2703094,0.010231018,-1.1257324,1.3487549,0.66269535,97.0
348,-1.3810215,-1.2703094,0.010231018,-1.0375855,1.2149414,0.5915405,97.0
349,-1.3674636,-0.9411621,0.16786575,-1.0375855,1.2149414,0.5915405,97.0
350,-1.3674636,-0.9411621,0.16786575,-0.9802368,1.0450195,0.49171144,97.0
351,-1.1593275,-0.7015381,0.36304092,-0.9802368,1.0450195,0.49171144,97.0
352,-1.1593275,-0.7015381,0.36304092,-0.9239502,0.8973999,0.3982544,97.0
353,-0.97693706,-0.5614395,0.53679276,-0.9239502,0.8973999,0.3982544,97.0
354,-0.97693706,-0.5614395,0.53679276,-0.89208984,0.70305175,0.26550293,97.0
355,-0.9010565,-0.4758377,0.6086693,-0.89208984,0.70305175,0.26550293,97.0
356,-0.9010565,-0.4758377,0.6086693,-0.95581055,0.45878908,0.11257324,97.0
357,-0.8571367,-0.4780426,0.5942688,-0.95581055,0.45878908,0.11257324,97.0
358,-0.8571367,-0.4780426,0.5942688,-1.0046631,0.20390625,-0.06265869,97.0
359,-0.7266519,-0.6629257,0.6048813,-1.0046631,0.20390625,-0.06265869,97.0
360,-0.7266519,-0.6629257,0.6048813,-0.92076415,-0.09239502,-0.28568116,97.0
361,-0.34836245,-0.9868965,0.6639328,-0.92076415,-0.09239502,-0.28568116,97.0
362,-0.34836245,-0.9868965,0.6639328,-0.67650145,-0.29417726,-0.53100586,97.0
363,0.24400282,-1.2419968,0.6541443,-0.67650145,-0.29417726,-0.53100586,97.0
364,0.24400282,-1.2419968,0.6541443,-0.44179687,-0.35471192,-0.7391602,97.0
365,0.7695675,-1.2732849,0.4410553,-0.44179687,-0.35471192,-0.7391602,97.0
366,0.7695675,-1.2732849,0.4410553,-0.34090576,-0.38657227,-0.90695804,97.0
367,1.0690598,-1.1692505,0.068553925,-0.34090576,-0.38657227,-0.90695804,97.0
368,1.0690598,-1.1692505,0.068553925,-0.34727785,-0.41949463,-1.0216553,97.0
369,1.1780019,-1.0971298,-0.32827377,-0.34727785,-0.41949463,-1.0216553,97.0
370,1.1780019,-1.0971298,-0.32827377,-0.37382814,-0.45666504,-1.0651978,97.0
371,1.2942204,-1.1273499,-0.57444763,-0.37382814,-0.45666504,-1.0651978,97.0
372,1.2942204,-1.1273499,-0.57444763,-0.42692873,-0.59260255,-1.081128,97.0
373,1.6642215,-1.1686172,-0.6028328,-0.42692873,-0.59260255,-1.081128,97.0
374,1.6642215,-1.1686172,-0.6028328,-0.38763428,-0.725354,-1.0779419,97.0
375,2.3031547,-1.0962105,-0.45932007,-0.38763428,-0.725354,-1.0779419,97.0
376,2.3031547,-1.0962105,-0.45932007,-0.3717041,-0.7657105,-0.9218262,97.0
377,2.796137,-0.9237442,-0.13314438,-0.3717041,-0.7657105,-0.9218262,97.0
378,2.796137,-0.9237442,-0.13314438,-0.23789063,-0.70092773,-0.68712157,97.0
379,2.6321125,-0.75975037,0.394619,-0.23789063,-0.70092773,-0.68712157,97.0
380,2.6321125,-0.75975037,0.394619,-0.08283692,-0.57561034,-0.3695801,97.0
381,1.7554824,-0.62861633,0.90854263,-0.08283692,-0.57561034,-0.3695801,97.0
382,1.7554824,-0.62861633,0.90854263,-0.0063720704,-0.54906005,-0.06478272,97.0
383,0.74169064,-0.49277496,1.0497208,-0.0063720704,-0.54906005,-0.06478272,97.0
384,0.74169064,-0.49277496,1.0497208,0.04460449,-0.58410645,0.23682861,97.0
385,0.19320604,-0.3090973,0.79159546,0.04460449,-0.58410645,0.23682861,97.0
386,0.19320604,-0.3090973,0.79159546,0.18903808,-0.6637573,0.50020754,97.0
387,0.27071473,-0.061912537,0.44966125,0.18903808,-0.6637573,0.50020754,97.0
388,0.27071473,-0.061912537,0.44966125,0.41949463,-0.6403931,0.7126099,97.0
389,0.68168414,0.259346,0.21076584,0.41949463,-0.6403931,0.7126099,97.0
390,0.68168414,0.259346,0.21076584,0.630835,-0.49489745,0.88040775,97.0
391,0.9569074,0.6381531,0.027107239,0.630835,-0.49489745,0.88040775,97.0
392,0.9569074,0.6381531,0.027107239,0.7540283,-0.2347046,1.0195312,97.0
393,0.7740464,1.001442,-0.1882019,0.7540283,-0.2347046,1.0195312,97.0
394,0.7740464,1.001442,-0.1882019,0.7104859,0.07434082,1.1501588,97.0
395,0.1321888,1.2399979,-0.39241028,0.7104859,0.07434082,1.1501588,97.0
396,0.1321888,1.2399979,-0.39241028,0.5533081,0.2538208,1.2043213,97.0
397,-0.60541844,1.3125038,-0.48342514,0.5533081,0.2538208,1.2043213,97.0
398,-0.60541844,1.3125038,-0.48342514,0.35895997,0.38657227,1.2319336,97.0
399,-1.1117761,1.2855988,-0.37807465,0.35895997,0.38657227,1.2319336,97.0
400,-1.1117761,1.2855988,-0.37807465,0.14337158,0.4959595,1.264856,97.0
401,-1.3209395,1.2223015,-0.08037567,0.14337158,0.4959595,1.264856,97.0
402,-1.3209395,1.2223015,-0.08037567,-0.040356446,0.544812,1.2765381,97.0
403,-1.249635,1.1443176,0.32151413,-0.040356446,0.544812,1.2765381,97.0
404,-1.249635,1.1443176,0.32151413,-0.14974366,0.59260255,1.26167,97.0
405,-0.98929536,1.0508537,0.65823364,-0.14974366,0.59260255,1.26167,97.0
406,-0.98929536,1.0508537,0.65823364,-0.19647217,0.6924316,1.2372437,97.0
407,-0.755389,0.9412308,0.74840164,-0.19647217,0.6924316,1.2372437,97.0
408,-0.755389,0.9412308,0.74840164,-0.19647217,0.6924316,1.2372437,96.0
409,-0.755389,0.9412308,0.74840164,-0.16673584,0.79013675,1.173523,96.0
410,-0.6514303,0.7935715,0.54278564,-0.16673584,0.79013675,1.173523,96.0
411,-0.6514303,0.7935715,0.54278564,-0.08920898,0.8294312,1.0110352,96.0
412,-0.57373214,0.62226105,0.13085938,-0.08920898,0.8294312,1.0110352,96.0
413,-0.57373214,0.62226105,0.13085938,-0.023364259,0.89102787,0.79332274,96.0
414,-0.48225236,0.46630096,-0.3223877,-0.023364259,0.89102787,0.79332274,96.0
415,-0.48225236,0.46630096,-0.3223877,0.025488282,0.9600586,0.5628662,96.0
416,-0.443004,0.35088348,-0.66096115,0.025488282,0.9600586,0.5628662,96.0
417,-0.443004,0.35088348,-0.66096115,0.033984374,0.9674927,0.29417726,96.0
418,-0.36928356,0.31891632,-0.80384445,0.033984374,0.9674927,0.29417726,96.0
419,-0.36928356,0.31891632,-0.80384445,0.016992187,0.9398804,-0.023364259,96.0
420,-0.15231156,0.3724556,-0.7371445,0.016992187,0.9398804,-0.023364259,96.0
421,-0.15231156,0.3724556,-0.7371445,-0.08071289,0.94412845,-0.33771974,96.0
422,0.12734509,0.4221115,-0.53798294,-0.08071289,0.94412845,-0.33771974,96.0
423,0.12734509,0.4221115,-0.53798294,-0.2782471,0.9526245,-0.635083,96.0
424,0.32686377,0.34391403,-0.36061096,-0.2782471,0.9526245,-0.635083,96.0
425,0.32686377,0.34391403,-0.36061096,-0.5543701,0.9494385,-0.905896,96.0
426,0.3970623,0.142025,-0.33137512,-0.5543701,0.9494385,-0.905896,96.0
427,0.3970623,0.142025,-0.33137512,-0.87615967,0.92501223,-1.1671509,96.0
428,0.38913417,-0.14215088,-0.42940903,-0.87615967,0.92501223,-1.1671509,96.0
429,0.38913417,-0.14215088,-0.42940903,-1.2128174,0.84323734,-1.44646,96.0
430,0.44595093,-0.48392487,-0.5207863,-1.2128174,0.84323734,-1.44646,96.0
431,0.44595093,-0.48392487,-0.5207863,-1.4836304,0.74659425,-1.7087768,96.0
432,0.58025926,-0.8523865,-0.48911285,-1.4836304,0.74659425,-1.7087768,96.0
433,0.58025926,-0.8523865,-0.48911285,-1.6121339,0.66481936,-1.9392334,96.0
434,0.6937851,-1.1657867,-0.30978394,-1.6121339,0.66481936,-1.9392334,96.0
435,0.6937851,-1.1657867,-0.30978394,-1.6556762,0.5809204,-2.1643798,96.0
436,0.7872912,-1.3718872,-0.12507248,-1.6556762,0.5809204,-2.1643798,96.0
437,0.7872912,-1.3718872,-0.12507248,-1.7353271,0.4630371,-2.4075806,96.0
438,0.9591055,-1.534996,-0.10058594,-1.7353271,0.4630371,-2.4075806,96.0
439,0.9591055,-1.534996,-0.10058594,-1.8054199,0.29630128,-2.6348512,96.0
440,1.2644279,-1.7481766,-0.17305756,-1.8054199,0.29630128,-2.6348512,96.0
441,1.2644279,-1.7481766,-0.17305756,-1.7735596,0.10620117,-2.8589356,96.0
442,1.4385321,-2.0652924,-0.04111862,-1.7735596,0.10620117,-2.8589356,96.0
443,1.4385321,-2.0652924,-0.04111862,-1.4783204,-0.0021240234,-3.0150514,96.0
444,0.72224903,-2.3954697,0.56314087,-1.4783204,-0.0021240234,-3.0150514,96.0
445,0.72224903,-2.3954697,0.56314087,-0.94412845,0.052038576,-2.989563,96.0
446,-1.1884972,-2.4588242,1.4134178,-0.94412845,0.052038576,-2.989563,96.0
447,-1.1884972,-2.4588242,1.4134178,-0.5628662,0.02442627,-2.800525,96.0
448,-3.2801802,-2.2733002,1.9449921,-0.5628662,0.02442627,-2.800525,96.0
449,-3.2801802,-2.2733002,1.9449921,-0.31329346,-0.27612305,-2.6157348,96.0
450,-4.1328354,-1.9944916,1.8744011,-0.31329346,-0.27612305,-2.6157348,96.0
451,-4.1328354,-1.9944916,1.8744011,0.052038576,-0.65419924,-2.3948364,96.0
452,-3.4613955,-1.4811249,1.3649979,0.052038576,-0.65419924,-2.3948364,96.0
453,-3.4613955,-1.4811249,1.3649979,0.29630128,-0.71367186,-1.9764038,96.0
454,-2.2670655,-0.7239151,0.8210869,0.29630128,-0.71367186,-1.9764038,96.0
455,-2.2670655,-0.7239151,0.8210869,0.33984375,-0.6425171,-1.4698242,96.0
456,-1.5297413,0.06777191,0.45176697,0.33984375,-0.6425171,-1.4698242,96.0
457,-1.5297413,0.06777191,0.45176697,0.10938721,-0.49171144,-0.99935305,96.0
458,-1.3689103,0.66469574,0.2107315,0.10938721,-0.49171144,-0.99935305,96.0
459,-1.3689103,0.66469574,0.2107315,-0.34090576,-0.31966552,-0.5501221,96.0
460,-1.4930162,0.97644806,0.03681183,-0.34090576,-0.31966552,-0.5501221,96.0
461,-1.4930162,0.97644806,0.03681183,-0.87403566,-0.12956543,-0.10089111,96.0
462,-1.7137489,1.0343475,-0.034015656,-0.87403566,-0.12956543,-0.10089111,96.0
463,-1.7137489,1.0343475,-0.034015656,-1.5622193,0.028674318,0.2984253,96.0
464,-1.9739289,0.8348999,0.0130729675,-1.5622193,0.028674318,0.2984253,96.0
465,-1.9739289,0.8348999,0.0130729675,-2.3449218,0.093457036,0.57454836,96.0
466,-2.1128469,0.29942322,0.14941025,-2.3449218,0.093457036,0.57454836,96.0
467,-2.1128469,0.29942322,0.14941025,-3.003369,0.1263794,0.73597413,96.0
468,-1.9735909,-0.5671997,0.32008743,-3.003369,0.1263794,0.73597413,96.0
469,-1.9735909,-0.5671997,0.32008743,-3.3517091,0.15505372,0.80606693,96.0
470,-1.592093,-1.5337067,0.4961319,-3.3517091,0.15505372,0.80606693,96.0
471,-1.592093,-1.5337067,0.4961319,-3.3910034,0.16779785,0.80181885,96.0
472,-1.1216602,-2.2608185,0.64274216,-3.3910034,0.16779785,0.80181885,96.0
473,-1.1216602,-2.2608185,0.64274216,-3.2019653,0.22089843,0.7625244,96.0
474,-0.7483778,-2.6349335,0.7065506,-3.2019653,0.22089843,0.7625244,96.0
475,-0.7483778,-2.6349335,0.7065506,-2.8440673,0.23364258,0.6446411,96.0
476,-0.5236287,-2.718979,0.6656647,-2.8440673,0.23364258,0.6446411,96.0
477,-0.5236287,-2.718979,0.6656647,-2.3682861,0.18372802,0.42692873,96.0
478,-0.29767513,-2.5958405,0.54232407,-2.3682861,0.18372802,0.42692873,96.0
479,-0.29767513,-2.5958405,0.54232407,-1.8882569,0.107263185,0.15717773,96.0
480,-0.00775671,-2.3348618,0.45730972,-1.8882569,0.107263185,0.15717773,96.0
481,-0.00775671,-2.3348618,0.45730972,-1.4114136,0.03186035,-0.11044922,96.0
482,0.24943447,-1.9891891,0.5165787,-1.4114136,0.03186035,-0.11044922,96.0
483,0.24943447,-1.9891891,0.5165787,-1.0004151,-0.1083252,-0.37489015,96.0
484,0.5835686,-1.6061096,0.678669,-1.0004151,-0.1083252,-0.37489015,96.0
485,0.5835686,-1.6061096,0.678669,-0.8007569,-0.33134767,-0.65419924,96.0
486,1.1754365,-1.3250656,0.85850906,-0.8007569,-0.33134767,-0.65419924,96.0
487,1.1754365,-1.3250656,0.85850906,-0.6775635,-0.5511841,-0.91757816,96.0
488,1.9277639,-1.2407379,0.9891281,-0.6775635,-0.5511841,-0.91757816,96.0
489,1.9277639,-1.2407379,0.9891281,-0.51082766,-0.6945557,-1.09281,96.0
490,2.502636,-1.2803802,0.94695663,-0.51082766,-0.6945557,-1.09281,96.0
491,2.502636,-1.2803802,0.94695663,-0.38763428,-0.7349121,-1.1193603,96.0
492,2.8402433,-1.4255219,0.6556587,-0.38763428,-0.7349121,-1.1193603,96.0
493,2.8402433,-1.4255219,0.6556587,-0.33984375,-1.0906861,-1.2181275,96.0
494,3.5622704,-1.6917343,0.22360992,-0.33984375,-1.0906861,-1.2181275,96.0
495,3.5622704,-1.6917343,0.22360992,0.053100586,-1.4061035,-1.3062744,96.0
496,4.5638914,-1.7163239,-0.025043488,0.053100586,-1.4061035,-1.3062744,96.0
497,4.5638914,-1.7163239,-0.025043488,0.77314454,-1.1023682,-0.96430665,96.0
498,4.1735983,-1.0287247,0.22126007,0.77314454,-1.1023682,-0.96430665,96.0
499,4.1735983,-1.0287247,0.22126007,1.2722901,-0.5341919,-0.35789797,96.0
500,1.8539666,0.20570374,0.84451294,1.2722901,-0.5341919,-0.35789797,96.0
501,1.8539666,0.20570374,0.84451294,1.3126465,-0.46834716,0.083898924,96.0
502,-0.58648,1.3621368,1.2921638,1.3126465,-0.46834716,0.083898924,96.0
503,-0.58648,1.3621368,1.2921638,1.183081,-0.5787964,0.45347902,96.0
504,-1.3281318,2.0654297,1.1165428,1.183081,-0.5787964,0.45347902,96.0
505,-1.3281318,2.0654297,1.1165428,0.901648,-0.6881836,0.7041138,96.0
506,-0.2548883,2.3098373,0.46597672,0.901648,-0.6881836,0.7041138,96.0
507,-0.2548883,2.3098373,0.46597672,0.631897,-0.541626,1.0460815,96.0
508,1.2046709,2.1355667,-0.1387024,0.631897,-0.541626,1.0460815,96.0
509,1.2046709,2.1355667,-0.1387024,0.4364868,-0.25806886,1.3222046,96.0
510,1.7672157,1.6588669,-0.44137192,0.4364868,-0.25806886,1.3222046,96.0
511,1.7672157,1.6588669,-0.44137192,0.21983643,0.02442627,1.454956,96.0
512,1.3339508,1.1080627,-0.5559807,0.21983643,0.02442627,1.454956,96.0
513,1.3339508,1.1080627,-0.5559807,0.04141846,0.32816163,1.5770874,96.0
514,0.32222658,0.6885605,-0.55789566,0.04141846,0.32816163,1.5770874,96.0
515,0.32222658,0.6885605,-0.55789566,-0.020178223,0.5851685,1.6970948,96.0
516,-0.84984815,0.528183,-0.37441635,-0.020178223,0.5851685,1.6970948,96.0
517,-0.84984815,0.528183,-0.37441635,0.046728518,0.7688965,1.7809937,96.0
518,-1.8261676,0.64658356,-0.043308258,0.046728518,0.7688965,1.7809937,96.0
519,-1.8261676,0.64658356,-0.043308258,0.1539917,0.87191164,1.8351563,96.0
520,-1.8261676,0.64658356,-0.043308258,0.1539917,0.87191164,1.8351563,96.0
521,-2.40975,0.91980743,0.26164246,0.1539917,0.87191164,1.8351563,96.0
522,-2.40975,0.91980743,0.26164246,0.23258057,0.8687256,1.8277222,96.0
523,-2.5516038,1.1725769,0.30576324,0.23258057,0.8687256,1.8277222,96.0
524,-2.5516038,1.1725769,0.30576324,0.26975098,0.82836914,1.7724975,96.0
525,-2.3431141,1.2822952,0.049873352,0.26975098,0.82836914,1.7724975,96.0
526,-2.3431141,1.2822952,0.049873352,0.26762697,0.7582764,1.6365601,96.0
527,-1.9884562,1.201004,-0.3477974,0.26762697,0.7582764,1.6365601,96.0
528,-1.9884562,1.201004,-0.3477974,0.24213867,0.6860596,1.4241577,96.0
529,-1.6900082,0.95832825,-0.7157364,0.24213867,0.6860596,1.4241577,96.0
530,-1.6900082,0.95832825,-0.7157364,0.24213867,0.63826907,1.1331666,96.0
531,-1.5623093,0.65865326,-0.9411087,0.24213867,0.63826907,1.1331666,96.0
532,-1.5623093,0.65865326,-0.9411087,0.2347046,0.58304447,0.74659425,96.0
533,-1.5601258,0.3730011,-0.9902153,0.2347046,0.58304447,0.74659425,96.0
534,-1.5601258,0.3730011,-0.9902153,0.26762697,0.5076416,0.27718505,96.0
535,-1.5441947,0.08089447,-0.9127884,0.26762697,0.5076416,0.27718505,96.0
536,-1.5441947,0.08089447,-0.9127884,0.3812622,0.42799073,-0.26550293,96.0
537,-1.3088913,-0.24567413,-0.7901306,0.3812622,0.42799073,-0.26550293,96.0
538,-1.3088913,-0.24567413,-0.7901306,0.57454836,0.3164795,-0.8772217,96.0
539,-0.66659546,-0.59856415,-0.74729156,0.57454836,0.3164795,-0.8772217,96.0
540,-0.66659546,-0.59856415,-0.74729156,0.87615967,0.24001466,-1.5091187,96.0
541,0.19416523,-0.8616638,-0.8506012,0.87615967,0.24001466,-1.5091187,96.0
542,0.19416523,-0.8616638,-0.8506012,1.2340577,0.27718505,-2.0443726,96.0
543,0.8509984,-0.9639282,-0.9867096,1.2340577,0.27718505,-2.0443726,96.0
544,0.8509984,-0.9639282,-0.9867096,1.5643433,0.23151855,-2.53396,96.0
545,1.3762579,-0.9487152,-1.1510124,1.5643433,0.23151855,-2.53396,96.0
546,1.3762579,-0.9487152,-1.1510124,1.7671875,0.11044922,-2.9555786,96.0
547,2.1933527,-0.8828049,-1.4715424,1.7671875,0.11044922,-2.9555786,96.0
548,2.1933527,-0.8828049,-1.4715424,1.8022339,-0.023364259,-3.250818,96.0
549,3.4023628,-0.67731476,-2.0550194,1.8022339,-0.023364259,-3.250818,96.0
550,3.4023628,-0.67731476,-2.0550194,1.6195679,-0.047790527,-3.3209107,96.0
551,4.4901524,-0.16464233,-2.7058067,1.6195679,-0.047790527,-3.3209107,96.0
552,4.4901524,-0.16464233,-2.7058067,1.083252,0.21346436,-3.0076172,96.0
553,3.8887162,0.385849,-2.620739,1.083252,0.21346436,-3.0076172,96.0
554,3.8887162,0.385849,-2.620739,0.4980835,0.6064087,-2.258899,96.0
555,0.59617794,0.46063232,-1.251461,0.4980835,0.6064087,-2.258899,96.0
556,0.59617794,0.46063232,-1.251461,-0.36002198,0.61702883,-1.2436157,96.0
557,-3.3538437,0.0028457642,0.94828415,-0.36002198,0.61702883,-1.2436157,96.0
558,-3.3538437,0.0028457642,0.94828415,-0.9674927,-0.11363526,-0.5097656,96.0
559,-4.7224307,-0.16143036,2.6956024,-0.9674927,-0.11363526,-0.5097656,96.0
560,-4.7224307,-0.16143036,2.6956024,-1.2064453,-0.60322267,0.16779785,96.0
561,-3.345779,0.3629837,3.3013306,-1.2064453,-0.60322267,0.16779785,96.0
562,-3.345779,0.3629837,3.3013306,-1.175647,-0.9143921,0.89208984,96.0
563,-1.4285517,0.6323166,3.297142,-1.175647,-0.9143921,0.89208984,96.0
564,-1.4285517,0.6323166,3.297142,-0.7072998,-1.363623,1.3307008,96.0
565,0.041338444,0.18604279,2.9535065,-0.7072998,-1.363623,1.3307008,96.0
566,0.041338444,0.18604279,2.9535065,-0.0361084,-1.6609863,1.5059327,96.0
567,1.2277975,-0.568573,2.039795,-0.0361084,-1.6609863,1.5059327,96.0
568,1.2277975,-0.568573,2.039795,0.77102053,-1.174585,1.8776368,96.0
569,1.6711173,-0.8941269,0.95772934,0.77102053,-1.174585,1.8776368,96.0
570,1.6711173,-0.8941269,0.95772934,1.4284058,-0.4970215,2.3119996,96.0
571,0.858073,-0.27226257,0.3178215,1.4284058,-0.4970215,2.3119996,96.0
572,0.858073,-0.27226257,0.3178215,1.5707153,-0.3355957,2.4649293,96.0
573,-0.44675684,0.9210434,0.034931183,1.5707153,-0.3355957,2.4649293,96.0
574,-0.44675684,0.9210434,0.034931183,1.537793,-0.22833252,2.357666,96.0
575,-1.2724447,2.0613937,-0.07271576,1.537793,-0.22833252,2.357666,96.0
576,-1.2724447,2.0613937,-0.07271576,1.4029175,-0.090270996,2.2079225,96.0
577,-1.5243402,2.7516937,0.06241989,1.4029175,-0.090270996,2.2079225,96.0
578,-1.5243402,2.7516937,0.06241989,1.1321045,-0.043542482,2.0241945,96.0
579,-1.3314352,2.844101,0.35393906,1.1321045,-0.043542482,2.0241945,96.0
580,-1.3314352,2.844101,0.35393906,1.0524536,-0.007434082,1.8394043,96.0
581,-0.8473749,2.5701752,0.59866714,1.0524536,-0.007434082,1.8394043,96.0
582,-0.8473749,2.5701752,0.59866714,1.0991821,0.038232423,1.6779785,96.0
583,-0.3613596,2.258545,0.7184601,1.0991821,0.038232423,1.6779785,96.0
584,-0.3613596,2.258545,0.7184601,1.177771,0.070092775,1.5101807,96.0
585,-0.03901434,1.9811554,0.7055893,1.177771,0.070092775,1.5101807,96.0
586,-0.03901434,1.9811554,0.7055893,1.2744141,0.047790527,1.2871583,96.0
587,0.18612242,1.6779327,0.5495529,1.2744141,0.047790527,1.2871583,96.0
588,0.18612242,1.6779327,0.5495529,1.3678712,0.011682129,1.0248413,96.0
589,0.41176414,1.3498764,0.27302933,1.3678712,0.011682129,1.0248413,96.0
590,0.41176414,1.3498764,0.27302933,1.4698242,-0.0053100586,0.7434082,96.0
591,0.6179733,1.0934868,-0.0317688,1.4698242,-0.0053100586,0.7434082,96.0
592,0.6179733,1.0934868,-0.0317688,1.4761963,0.022302246,0.49489745,96.0
593,0.71172476,0.9194679,-0.25502777,1.4761963,0.022302246,0.49489745,96.0
594,0.71172476,0.9194679,-0.25502777,1.3869873,0.020178223,0.23364258,96.0
595,0.70956516,0.7415314,-0.41747665,1.3869873,0.020178223,0.23364258,96.0
596,0.70956516,0.7415314,-0.41747665,1.2414917,-0.007434082,-0.020178223,96.0
597,0.6982918,0.5251465,-0.59993744,1.2414917,-0.007434082,-0.020178223,96.0
598,0.6982918,0.5251465,-0.59993744,1.0492676,0.004248047,-0.2357666,96.0
599,0.6835966,0.29558182,-0.8242264,1.0492676,0.004248047,-0.2357666,96.0
600,0.6835966,0.29558182,-0.8242264,0.7688965,0.027612304,-0.38763428,96.0
601,0.61998534,0.0333786,-1.043354,0.7688965,0.027612304,-0.38763428,96.0
602,0.61998534,0.0333786,-1.043354,0.44923097,0.028674318,-0.49489745,96.0
603,0.5731368,-0.30157852,-1.2400436,0.44923097,0.028674318,-0.49489745,96.0
604,0.5731368,-0.30157852,-1.2400436,0.18160401,0.035046387,-0.5968506,96.0
605,0.57894397,-0.64834213,-1.4224052,0.18160401,0.035046387,-0.5968506,96.0
606,0.57894397,-0.64834213,-1.4224052,0.04141846,0.05628662,-0.67437744,96.0
607,0.6083822,-0.9791107,-1.4985352,0.04141846,0.05628662,-0.67437744,96.0
608,0.6083822,-0.9791107,-1.4985352,0.0031860352,0.009558106,-0.80606693,96.0
609,0.75490665,-1.2878876,-1.5096054,0.0031860352,0.009558106,-0.80606693,96.0
610,0.75490665,-1.2878876,-1.5096054,-0.0180542,-0.059472658,-0.9303223,96.0
611,1.0840888,-1.5407639,-1.5646896,-0.0180542,-0.059472658,-0.9303223,96.0
612,1.0840888,-1.5407639,-1.5646896,-0.118945315,-0.087084964,-0.97067875,96.0
613,1.3792706,-1.7304382,-1.5640831,-0.118945315,-0.087084964,-0.97067875,96.0
614,1.3792706,-1.7304382,-1.5640831,-0.2527588,-0.14549561,-0.9218262,96.0
615,1.3826644,-1.8582153,-1.2380562,-0.2527588,-0.14549561,-0.9218262,96.0
616,1.3826644,-1.8582153,-1.2380562,-0.31223145,-0.2262085,-0.78376466,96.0
617,0.9566319,-1.8548126,-0.536747,-0.31223145,-0.2262085,-0.78376466,96.0
618,0.9566319,-1.8548126,-0.536747,-0.29948732,-0.26762697,-0.54906005,96.0
619,0.2744608,-1.6616058,0.15854263,-0.29948732,-0.26762697,-0.54906005,96.0
620,0.2744608,-1.6616058,0.15854263,-0.35471192,-0.4056885,-0.31010744,96.0
621,0.2744608,-1.6616058,0.15854263,-0.35471192,-0.4056885,-0.31010744,98.0
622,0.013660431,-1.314003,0.4310074,-0.35471192,-0.4056885,-0.31010744,98.0
623,0.013660431,-1.314003,0.4310074,-0.270813,-0.7327881,-0.15611573,98.0
624,0.565567,-0.9017029,0.2795105,-0.270813,-0.7327881,-0.15611573,98.0
625,0.565567,-0.9017029,0.2795105,0.09664307,-0.8687256,0.046728518,98.0
626,1.3633423,-0.55944824,-0.00907135,0.09664307,-0.8687256,0.046728518,98.0
627,1.3633423,-0.55944824,-0.00907135,0.60322267,-0.90270996,0.26444092,98.0
628,1.6139526,-0.3412857,-0.26228714,0.60322267,-0.90270996,0.26444092,98.0
629,1.6139526,-0.3412857,-0.26228714,1.1034302,-0.82730716,0.48321533,98.0
630,1.0597413,-0.13567352,-0.49458313,1.1034302,-0.82730716,0.48321533,98.0
631,1.0597413,-0.13567352,-0.49458313,1.4570801,-0.62977296,0.76464844,98.0
632,-0.035410106,0.16474915,-0.6977997,1.4570801,-0.62977296,0.76464844,98.0
633,-0.035410106,0.16474915,-0.6977997,1.716211,-0.5097656,1.0354614,98.0
634,-1.0707109,0.6736603,-0.8088379,1.716211,-0.5097656,1.0354614,98.0
635,-1.0707109,0.6736603,-0.8088379,1.8723267,-0.49489745,1.2468017,98.0
636,-1.5218763,1.4271088,-0.7566986,1.8723267,-0.49489745,1.2468017,98.0
637,-1.5218763,1.4271088,-0.7566986,1.9222412,-0.4895874,1.4592041,98.0
638,-1.3898766,2.2132187,-0.54361725,1.9222412,-0.4895874,1.4592041,98.0
639,-1.3898766,2.2132187,-0.54361725,1.8659546,-0.40462646,1.7087768,98.0
640,-1.0651851,2.7597198,-0.2149849,1.8659546,-0.40462646,1.7087768,98.0
641,-1.0651851,2.7597198,-0.2149849,1.6365601,-0.29630128,1.9636596,98.0
642,-0.7929075,2.8671036,0.11216736,1.6365601,-0.29630128,1.9636596,98.0
643,-0.7929075,2.8671036,0.11216736,1.3476928,-0.2803711,2.1080933,98.0
644,-0.38120103,2.5411453,0.23939133,1.3476928,-0.2803711,2.1080933,98.0
645,-0.38120103,2.5411453,0.23939133,1.1947632,-0.25700685,2.095349,98.0
646,0.23576188,2.0677643,0.08181763,1.1947632,-0.25700685,2.095349,98.0
647,0.23576188,2.0677643,0.08181763,1.1406006,-0.083898924,2.0985353,98.0
648,0.6662097,1.7009048,-0.23545074,1.1406006,-0.083898924,2.0985353,98.0
649,0.6662097,1.7009048,-0.23545074,1.0269654,0.028674318,2.0560548,98.0
650,0.7327113,1.4328918,-0.5967827,1.0269654,0.028674318,2.0560548,98.0
651,0.7327113,1.4328918,-0.5967827,0.8581055,0.040356446,1.8733886,98.0
652,0.71374476,1.1611443,-0.9428673,0.8581055,0.040356446,1.8733886,98.0
653,0.71374476,1.1611443,-0.9428673,0.7391602,0.014868164,1.5823975,98.0
654,0.7911496,0.86865234,-1.1238861,0.7391602,0.014868164,1.5823975,98.0
655,0.7911496,0.86865234,-1.1238861,0.7338501,0.011682129,1.2478638,98.0
656,0.909116,0.6016121,-1.0011978,0.7338501,0.011682129,1.2478638,98.0
657,0.909116,0.6016121,-1.0011978,0.8028809,-0.06478272,0.85704345,98.0
658,1.0948588,0.44443512,-0.70181274,0.8028809,-0.06478272,0.85704345,98.0
659,1.0948588,0.44443512,-0.70181274,0.82836914,-0.15930176,0.4258667,98.0
660,1.3995321,0.37830353,-0.41929626,0.82836914,-0.15930176,0.4258667,98.0
661,1.3995321,0.37830353,-0.41929626,0.82836914,-0.27718505,-0.06584473,98.0
662,1.721359,0.25267792,-0.17253113,0.82836914,-0.27718505,-0.06584473,98.0
663,1.721359,0.25267792,-0.17253113,0.89421386,-0.38869628,-0.5968506,98.0
664,1.9176879,0.008796692,0.04454422,0.89421386,-0.38869628,-0.5968506,98.0
665,1.9176879,0.008796692,0.04454422,1.088562,-0.44179687,-1.1002442,98.0
666,1.7682934,-0.2263031,0.13119125,1.088562,-0.44179687,-1.1002442,98.0
667,1.7682934,-0.2263031,0.13119125,1.3838013,-0.46728516,-1.5292969,98.0
668,1.3125961,-0.27825928,-0.0891037,1.3838013,-0.46728516,-1.5292969,98.0
669,1.3125961,-0.27825928,-0.0891037,1.632312,-0.5533081,-1.9137452,98.0
670,0.9083533,-0.04763031,-0.6479645,1.632312,-0.5533081,-1.9137452,98.0
671,0.9083533,-0.04763031,-0.6479645,1.7321411,-0.54587406,-2.176062,98.0
672,0.7328961,0.4524727,-1.3341827,1.7321411,-0.54587406,-2.176062,98.0
673,0.7328961,0.4524727,-1.3341827,1.5685914,-0.49064943,-2.2854493,98.0
674,0.5934702,1.0482559,-1.8021622,1.5685914,-0.49064943,-2.2854493,98.0
675,0.5934702,1.0482559,-1.8021622,1.2181275,-0.32285157,-2.2174804,98.0
676,0.031282425,1.4805603,-1.7660332,1.2181275,-0.32285157,-2.2174804,98.0
677,0.031282425,1.4805603,-1.7660332,0.7349121,-0.050976563,-1.9519776,98.0
678,-1.0145005,1.6400146,-1.3411484,0.7349121,-0.050976563,-1.9519776,98.0
679,-1.0145005,1.6400146,-1.3411484,-0.1083252,0.06903076,-1.6662964,98.0
680,-1.7279091,1.5994034,-0.9501152,-0.1083252,0.06903076,-1.6662964,98.0
681,-1.7279091,1.5994034,-0.9501152,-1.2287476,0.0010620117,-1.3997315,98.0
682,-1.4053131,1.3072586,-0.79904556,-1.2287476,0.0010620117,-1.3997315,98.0
683,-1.4053131,1.3072586,-0.79904556,-2.162256,-0.013806152,-1.1182984,98.0
684,-0.47815675,0.68572235,-0.64006805,-2.162256,-0.013806152,-1.1182984,98.0
685,-0.47815675,0.68572235,-0.64006805,-2.704944,0.15823975,-0.7476563,98.0
686,0.10181299,-0.0978241,-0.16940308,-2.704944,0.15823975,-0.7476563,98.0
687,0.10181299,-0.0978241,-0.16940308,-3.0458496,0.3355957,-0.44179687,98.0
688,-0.11220196,-0.85637283,0.5435295,-3.0458496,0.3355957,-0.44179687,98.0
689,-0.11220196,-0.85637283,0.5435295,-3.2794921,0.5140137,-0.19328614,98.0
690,-0.9608675,-1.4645653,1.1489563,-3.2794921,0.5140137,-0.19328614,98.0
691,-0.9608675,-1.4645653,1.1489563,-3.4133058,0.71579593,0.04991455,98.0
692,-2.0978568,-1.7969208,1.432724,-3.4133058,0.71579593,0.04991455,98.0
693,-2.0978568,-1.7969208,1.432724,-3.4090576,0.81031495,0.2262085,98.0
694,-3.1091814,-1.8101196,1.4957886,-3.4090576,0.81031495,0.2262085,98.0
695,-3.1091814,-1.8101196,1.4957886,-3.260376,0.7593384,0.28461915,98.0
696,-3.5783243,-1.6398315,1.5234604,-3.260376,0.7593384,0.28461915,98.0
697,-3.5783243,-1.6398315,1.5234604,-2.983191,0.631897,0.23682861,98.0
698,-3.4177864,-1.4820213,1.5638962,-2.983191,0.631897,0.23682861,98.0
699,-3.4177864,-1.4820213,1.5638962,-2.6019287,0.541626,0.13487549,98.0
700,-2.9532843,-1.4217148,1.5402031,-2.6019287,0.541626,0.13487549,98.0
701,-2.9532843,-1.4217148,1.5402031,-2.2036743,0.4959595,0.012744141,98.0
702,-2.4991999,-1.3693657,1.3919067,-2.2036743,0.4959595,0.012744141,98.0
703,-2.4991999,-1.3693657,1.3919067,-1.8489624,0.4333008,-0.14337158,98.0
704,-2.08072,-1.272007,1.1608009,-1.8489624,0.4333008,-0.14337158,98.0
705,-2.08072,-1.272007,1.1608009,-1.5611572,0.32178956,-0.35577393,98.0
706,-1.5574713,-1.166275,0.92463684,-1.5611572,0.32178956,-0.35577393,98.0
707,-1.5574713,-1.166275,0.92463684,-1.2765381,0.17947999,-0.634021,98.0
708,-0.91653347,-1.0920906,0.7432976,-1.2765381,0.17947999,-0.634021,98.0
709,-0.91653347,-1.0920906,0.7432976,-0.99298096,0.11257324,-0.92076415,98.0
710,-0.3895011,-1.0379562,0.7035599,-0.99298096,0.11257324,-0.92076415,98.0
711,-0.3895011,-1.0379562,0.7035599,-0.81243896,0.004248047,-1.2595459,98.0
712,1.7929077E-4,-1.0765686,0.79629517,-0.81243896,0.004248047,-1.2595459,98.0
713,1.7929077E-4,-1.0765686,0.79629517,-0.7147339,-0.2081543,-1.6503662,98.0
714,0.48260164,-1.238594,0.9230461,-0.7147339,-0.2081543,-1.6503662,98.0
715,0.48260164,-1.238594,0.9230461,-0.70092773,-0.3982544,-2.0528686,98.0
716,1.1355319,-1.5230865,1.0844345,-0.70092773,-0.3982544,-2.0528686,98.0
717,1.1355319,-1.5230865,1.0844345,-0.7391602,-0.6042847,-2.4925416,98.0
718,1.869998,-1.9936066,1.3541679,-0.7391602,-0.6042847,-2.4925416,98.0
719,1.869998,-1.9936066,1.3541679,-0.6988037,-0.8007569,-2.9375246,98.0
720,2.5650535,-2.6627579,1.7099915,-0.6988037,-0.8007569,-2.9375246,98.0
721,2.5650535,-2.6627579,1.7099915,-0.46834716,-0.9228882,-3.3230348,98.0
722,2.9390545,-3.42173,2.003994,-0.46834716,-0.9228882,-3.3230348,98.0
723,2.9390545,-3.42173,2.003994,-0.040356446,-1.0163453,-3.5492432,98.0
724,2.9273179,-4.1493454,1.8512039,-0.040356446,-1.0163453,-3.5492432,98.0
725,2.9273179,-4.1493454,1.8512039,0.60216063,-1.2446778,-3.6947389,98.0
726,2.8748255,-4.8059998,0.9531555,0.60216063,-1.2446778,-3.6947389,98.0
727,2.8748255,-4.8059998,0.9531555,1.6514282,-1.3115845,-3.5545533,98.0
728,2.7001166,-5.0870743,-0.4344597,1.6514282,-1.3115845,-3.5545533,98.0
729,2.7001166,-5.0870743,-0.4344597,2.9523926,-0.9122681,-2.8164551,98.0
730,1.797044,-4.0957794,-1.2612648,2.9523926,-0.9122681,-2.8164551,98.0
731,1.797044,-4.0957794,-1.2612648,4.444519,-0.82836914,-1.8585205,98.0
732,0.63314307,-0.8273697,-1.0440483,4.444519,-0.82836914,-1.8585205,98.0
733,0.63314307,-0.8273697,-1.0440483,4.985083,-0.39506838,-1.0365235,98.0
734,0.63314307,-0.8273697,-1.0440483,4.985083,-0.39506838,-1.0365235,100.0
735,0.13888747,3.64151,-0.5658531,4.985083,-0.39506838,-1.0365235,100.0
736,0.13888747,3.64151,-0.5658531,4.1928225,0.008496094,-0.04991455,100.0
737,0.11865389,5.1920013,-0.57974625,4.1928225,0.008496094,-0.04991455,100.0
738,0.11865389,5.1920013,-0.57974625,3.620398,0.18479005,0.47896728,100.0
739,0.3158216,7.1778793,-1.0753937,3.620398,0.18479005,0.47896728,100.0
740,0.3158216,7.1778793,-1.0753937,1.8447144,0.35152587,1.7385132,100.0
741,0.39876324,5.8191223,-1.3484879,1.8447144,0.35152587,1.7385132,100.0
742,0.39876324,5.8191223,-1.3484879,1.4634522,0.4364868,1.9636596,100.0
743,0.2971356,2.6703262,-2.0223465,1.4634522,0.4364868,1.9636596,100.0
744,0.2971356,2.6703262,-2.0223465,0.7434082,0.8294312,2.360852,100.0
745,0.29176122,1.620636,-1.9035339,0.7434082,0.8294312,2.360852,100.0
746,0.29176122,1.620636,-1.9035339,0.6531372,1.0163453,2.4670532,100.0
747,-0.07197434,0.12322998,-1.6088867,0.6531372,1.0163453,2.4670532,100.0
748,-0.07197434,0.12322998,-1.6088867,0.68287355,1.7087768,2.7729127,100.0
749,-0.12586561,0.29221344,-1.2876472,0.68287355,1.7087768,2.7729127,100.0
750,-0.12586561,0.29221344,-1.2876472,0.64570314,1.8723267,2.890796,100.0
751,-1.0446134,1.0384598,-0.258667,0.64570314,1.8723267,2.890796,100.0
752,-1.0446134,1.0384598,-0.258667,0.4428589,2.0252564,3.2083375,100.0
753,-0.9955052,1.3273697,-0.0952034,0.4428589,2.0252564,3.2083375,100.0
754,-0.9955052,1.3273697,-0.0952034,0.44604492,1.9700317,3.258252,100.0
755,-1.4816947,1.7079391,0.295784,0.44604492,1.9700317,3.258252,100.0
756,-1.4816947,1.7079391,0.295784,0.55543214,1.5792115,3.3325927,100.0
757,-1.002641,1.6847076,0.103458405,0.55543214,1.5792115,3.3325927,100.0
758,-1.002641,1.6847076,0.103458405,0.5607422,1.4337158,3.3177247,100.0
759,-0.6561655,1.7843018,-0.44389343,0.5607422,1.4337158,3.3177247,100.0
760,-0.6561655,1.7843018,-0.44389343,0.44816896,1.0875,3.2285156,100.0
761,-0.19196117,1.6449203,-0.72079086,0.44816896,1.0875,3.2285156,100.0
762,-0.19196117,1.6449203,-0.72079086,0.38975832,0.9834229,3.166919,100.0
763,-0.09681845,1.4113693,-1.5795631,0.38975832,0.9834229,3.166919,100.0
764,-0.09681845,1.4113693,-1.5795631,0.3802002,0.6117188,2.800525,100.0
765,0.2201649,1.1443062,-1.6443176,0.3802002,0.6117188,2.800525,100.0
766,0.2201649,1.1443062,-1.6443176,0.44179687,0.5140137,2.616797,100.0
767,0.5635953,0.7438507,-1.9386826,0.44179687,0.5140137,2.616797,100.0
768,0.5635953,0.7438507,-1.9386826,0.66588134,0.3982544,2.1951783,100.0
769,0.9600315,0.3883171,-2.0426216,0.66588134,0.3982544,2.1951783,100.0
770,0.9600315,0.3883171,-2.0426216,0.99935305,0.36745605,1.718335,100.0
771,1.2566116,0.15254974,-1.9882126,0.99935305,0.36745605,1.718335,100.0
772,1.2566116,0.15254974,-1.9882126,1.3275146,0.3971924,1.2128174,100.0
773,1.4963416,0.14094925,-1.8664856,1.3275146,0.3971924,1.2128174,100.0
774,1.4963416,0.14094925,-1.8664856,1.4337158,0.4630371,0.72216797,100.0
775,2.1533477,0.41461563,-1.8134384,1.4337158,0.4630371,0.72216797,100.0
776,2.1533477,0.41461563,-1.8134384,1.3009644,0.4970215,-0.023364259,100.0
777,2.0697362,0.52064514,-1.7064743,1.3009644,0.4970215,-0.023364259,100.0
778,2.0697362,0.52064514,-1.7064743,1.1597168,0.55543214,-0.22514649,100.0
779,2.157669,0.84358215,-1.5890312,1.1597168,0.55543214,-0.22514649,100.0
780,2.157669,0.84358215,-1.5890312,0.6488892,0.65844727,-0.49277344,100.0
781,1.6390746,1.0240593,-1.2234116,0.6488892,0.65844727,-0.49277344,100.0
782,1.6390746,1.0240593,-1.2234116,-0.093457036,0.5479981,-0.69349366,100.0
783,1.0325608,0.9284401,-0.7931709,-0.093457036,0.5479981,-0.69349366,100.0
784,1.0325608,0.9284401,-0.7931709,-0.90058595,0.3079834,-0.8867798,100.0
785,0.880553,0.58454895,-0.3834877,-0.90058595,0.3079834,-0.8867798,100.0
786,0.880553,0.58454895,-0.3834877,-1.5473511,0.06265869,-1.0142212,100.0
787,0.8374746,0.08276367,-0.01681137,-1.5473511,0.06265869,-1.0142212,100.0
788,0.8374746,0.08276367,-0.01681137,-1.8404664,-0.15930176,-1.0790039,100.0
789,0.1010344,-0.5552826,0.6763916,-1.8404664,-0.15930176,-1.0790039,100.0
790,0.1010344,-0.5552826,0.6763916,-1.6046997,-0.48746338,-1.1044922,100.0
791,-1.2675612,-1.2677765,1.8586159,-1.6046997,-0.48746338,-1.1044922,100.0
792,-1.2675612,-1.2677765,1.8586159,-0.79013675,-1.0482056,-1.178833,100.0
793,-1.9458483,-1.7252045,2.890606,-0.79013675,-1.0482056,-1.178833,100.0
794,-1.9458483,-1.7252045,2.890606,0.3175415,-1.6439942,-1.4145997,100.0
795,-1.2010146,-1.6586304,3.0583344,0.3175415,-1.6439942,-1.4145997,100.0
796,-1.2010146,-1.6586304,3.0583344,1.5462891,-2.0146363,-1.531421,100.0
797,0.018704891,-1.0858002,1.9966164,1.5462891,-2.0146363,-1.531421,100.0
798,0.018704891,-1.0858002,1.9966164,2.7537963,-2.1941164,-1.537793,100.0
799,0.64926565,-0.31498718,0.26115036,2.7537963,-2.1941164,-1.537793,100.0
800,0.64926565,-0.31498718,0.26115036,3.7329712,-2.1834962,-1.4443359,100.0
801,0.5000155,0.41937256,-1.3218689,3.7329712,-2.1834962,-1.4443359,100.0
802,0.5000155,0.41937256,-1.3218689,4.2607913,-1.9902099,-1.2563599,100.0
803,-0.26614964,1.0209122,-2.0631447,4.2607913,-1.9902099,-1.2563599,100.0
804,-0.26614964,1.0209122,-2.0631447,3.9974122,-1.7926759,-1.0142212,100.0
805,-1.2573167,1.4717484,-1.8878479,3.9974122,-1.7926759,-1.0142212,100.0
806,-1.2573167,1.4717484,-1.8878479,3.0161133,-1.6514282,-0.7880127,100.0
807,-1.8881776,1.7891273,-1.0702896,3.0161133,-1.6514282,-0.7880127,100.0
808,-1.8881776,1.7891273,-1.0702896,1.7735596,-1.4220337,-0.4364868,100.0
809,-2.0456007,2.1504898,-0.112846375,1.7735596,-1.4220337,-0.4364868,100.0
810,-2.0456007,2.1504898,-0.112846375,0.30373535,-0.9876709,-0.09239502,100.0
811,-2.102838,2.6577072,0.57724,0.30373535,-0.9876709,-0.09239502,100.0
812,-2.102838,2.6577072,0.57724,-1.0482056,-0.7784546,0.07540283,100.0
813,-2.052522,3.0907173,1.0727539,-1.0482056,-0.7784546,0.07540283,100.0
814,-2.052522,3.0907173,1.0727539,-3.076648,-0.47365722,0.36745605,100.0
815,-1.7065439,2.5173645,1.8648415,-3.076648,-0.47365722,0.36745605,100.0
816,-1.7065439,2.5173645,1.8648415,-5.7518554,-0.17416993,0.8400513,100.0
817,-1.2602303,-0.059425354,2.6271973,-5.7518554,-0.17416993,0.8400513,100.0
818,-1.2602303,-0.059425354,2.6271973,-5.9971805,0.21027832,0.813501,100.0
819,-0.88165855,-3.2550354,2.9335442,-5.9971805,0.21027832,0.813501,100.0
820,-0.88165855,-3.2550354,2.9335442,-4.8650756,0.42268068,0.75721437,100.0
821,-0.7002244,-5.1735115,2.7908897,-4.8650756,0.42268068,0.75721437,100.0
822,-0.7002244,-5.1735115,2.7908897,-3.0023072,0.38338622,0.29736328,100.0
823,-0.70936155,-5.469963,2.1824303,-3.0023072,0.38338622,0.29736328,100.0
824,-0.70936155,-5.469963,2.1824303,-0.92076415,0.28674316,-0.2899292,100.0
825,-0.7170987,-4.580719,1.515892,-0.92076415,0.28674316,-0.2899292,100.0
826,-0.7170987,-4.580719,1.515892,0.80394286,0.16673584,-0.79013675,100.0
827,-0.71401095,-3.1727028,0.972065,0.80394286,0.16673584,-0.79013675,100.0
828,-0.71401095,-3.1727028,0.972065,2.083667,-0.03079834,-1.2021973,100.0
829,-0.6332693,-1.4563522,0.52204895,2.083667,-0.03079834,-1.2021973,100.0
830,-0.6332693,-1.4563522,0.52204895,2.52865,-0.17416993,-1.4581422,100.0
831,-0.6332693,-1.4563522,0.52204895,2.52865,-0.17416993,-1.4581422,101.0
832,-0.39830232,0.13036346,0.13254166,2.52865,-0.17416993,-1.4581422,101.0
833,-0.39830232,0.13036346,0.13254166,2.4118288,-0.30479738,-1.5983276,101.0
834,-0.051686287,1.024723,-0.28276062,2.4118288,-0.30479738,-1.5983276,101.0
835,-0.051686287,1.024723,-0.28276062,2.1877441,-0.35895997,-1.722583,101.0
836,0.34838486,1.2339249,-0.6679802,2.1877441,-0.35895997,-1.722583,101.0
837,0.34838486,1.2339249,-0.6679802,1.8415283,-0.33028564,-1.7756836,101.0
838,0.747226,0.96683884,-1.0177116,1.8415283,-0.33028564,-1.7756836,101.0
839,0.747226,0.96683884,-1.0177116,1.4241577,-0.23895264,-1.7629395,101.0
840,1.1929224,0.49223328,-1.504818,1.4241577,-0.23895264,-1.7629395,101.0
841,1.1929224,0.49223328,-1.504818,0.9143921,-0.16779785,-1.7353271,101.0
842,1.8116255,0.016750336,-2.0952492,0.9143921,-0.16779785,-1.7353271,101.0
843,1.8116255,0.016750336,-2.0952492,0.48746338,-0.14018555,-1.716211,101.0
844,2.530758,-0.4328537,-2.4514465,0.48746338,-0.14018555,-1.716211,101.0
845,2.530758,-0.4328537,-2.4514465,0.2516968,0.04248047,-1.5420411,101.0
846,2.8090425,-0.9341965,-2.0821762,0.2516968,0.04248047,-1.5420411,101.0
847,2.8090425,-0.9341965,-2.0821762,0.3090454,0.26656494,-1.2722901,101.0
848,2.2476735,-1.4790726,-1.0591507,0.3090454,0.26656494,-1.2722901,101.0
849,2.2476735,-1.4790726,-1.0591507,0.5341919,0.4439209,-0.9855469,101.0
850,1.2525333,-1.7441254,-0.35399628,0.5341919,0.4439209,-0.9855469,101.0
851,1.2525333,-1.7441254,-0.35399628,0.65419924,0.6775635,-0.6287109,101.0
852,0.4239627,-1.5538559,-0.60388947,0.65419924,0.6775635,-0.6287109,101.0
853,0.4239627,-1.5538559,-0.60388947,0.73703617,0.7975708,-0.1274414,101.0
854,0.008103281,-1.0857468,-1.3305588,0.73703617,0.7975708,-0.1274414,101.0
855,0.008103281,-1.0857468,-1.3305588,1.075818,0.75721437,0.37382814,101.0
856,0.035950392,-0.40660858,-1.8350868,1.075818,0.75721437,0.37382814,101.0
857,0.035950392,-0.40660858,-1.8350868,1.6068238,0.8092529,0.8209351,101.0
858,0.17032528,0.62275696,-2.0097923,1.6068238,0.8092529,0.8209351,101.0
859,0.17032528,0.62275696,-2.0097923,1.9190552,1.0460815,1.3328247,101.0
860,-0.17169875,1.723526,-2.016304,1.9190552,1.0460815,1.3328247,101.0
861,-0.17169875,1.723526,-2.016304,1.8786987,1.1724609,1.806482,101.0
862,-0.9702692,2.3532257,-1.999527,1.8786987,1.1724609,1.806482,101.0
863,-0.9702692,2.3532257,-1.999527,1.7013428,1.2032593,2.1962402,101.0
864,-1.6620185,2.3968391,-1.9181061,1.7013428,1.2032593,2.1962402,101.0
865,-1.6620185,2.3968391,-1.9181061,1.4337158,1.2213135,2.4957275,101.0
866,-1.9005499,2.1451569,-1.6690292,1.4337158,1.2213135,2.4957275,101.0
867,-1.9005499,2.1451569,-1.6690292,0.994043,1.1937011,2.7548585,101.0
868,-1.6991997,1.7919769,-1.349884,0.994043,1.1937011,2.7548585,101.0
869,-1.6991997,1.7919769,-1.349884,0.48746338,1.1533448,2.9906251,101.0
870,-1.2193085,1.4012909,-1.1271858,0.48746338,1.1533448,2.9906251,101.0
871,-1.2193085,1.4012909,-1.1271858,0.10301514,1.0535157,3.1138184,101.0
872,-0.58539546,1.03722,-0.98460007,0.10301514,1.0535157,3.1138184,101.0
873,-0.58539546,1.03722,-0.98460007,-0.13062744,0.8973999,3.1106324,101.0
874,0.12157631,0.72729874,-0.8118744,-0.13062744,0.8973999,3.1106324,101.0
875,0.12157631,0.72729874,-0.8118744,-0.17416993,0.7519043,2.998059,101.0
876,0.7397659,0.41971588,-0.5892563,-0.17416993,0.7519043,2.998059,101.0
877,0.7397659,0.41971588,-0.5892563,0.0,0.60109866,2.7622926,101.0
878,1.1965369,0.16378784,-0.44010544,0.0,0.60109866,2.7622926,101.0
879,1.1965369,0.16378784,-0.44010544,0.26868898,0.47896728,2.4012086,101.0
880,1.4967926,0.013820648,-0.44988632,0.26868898,0.47896728,2.4012086,101.0
881,1.4967926,0.013820648,-0.44988632,0.53737795,0.3791382,1.9795898,101.0
882,1.629685,-0.09444809,-0.56775665,0.53737795,0.3791382,1.9795898,101.0
883,1.629685,-0.09444809,-0.56775665,0.8262451,0.29630128,1.5208008,101.0
884,1.6065557,-0.16386414,-0.7219429,0.8262451,0.29630128,1.5208008,101.0
885,1.6065557,-0.16386414,-0.7219429,1.09281,0.23682861,1.0705079,101.0
886,1.4870145,-0.11025238,-0.86385727,1.09281,0.23682861,1.0705079,101.0
887,1.4870145,-0.11025238,-0.86385727,1.2128174,0.16779785,0.6616333,101.0
888,1.3944578,0.08795929,-1.0030746,1.2128174,0.16779785,0.6616333,101.0
889,1.3944578,0.08795929,-1.0030746,1.1947632,0.032922365,0.26550293,101.0
890,1.4482079,0.38474655,-1.1022644,1.1947632,0.032922365,0.26550293,101.0
891,1.4482079,0.38474655,-1.1022644,0.9855469,-0.053100586,-0.05628662,101.0
892,1.4826508,0.64788437,-1.0459709,0.9855469,-0.053100586,-0.05628662,101.0
893,1.4826508,0.64788437,-1.0459709,0.63720703,-0.1901001,-0.35683593,101.0
894,1.3872924,0.6391792,-0.7816391,0.63720703,-0.1901001,-0.35683593,101.0
895,1.3872924,0.6391792,-0.7816391,0.35683593,-0.41312256,-0.68074954,101.0
896,1.4046581,0.37273026,-0.48008347,0.35683593,-0.41312256,-0.68074954,101.0
897,1.4046581,0.37273026,-0.48008347,0.06796875,-0.63933104,-1.0227174,101.0
898,1.6201377,0.07292938,-0.33852386,0.06796875,-0.63933104,-1.0227174,101.0
899,1.6201377,0.07292938,-0.33852386,-0.18797608,-0.8294312,-1.3062744,101.0
900,1.5618451,-0.26433563,-0.2914505,-0.18797608,-0.8294312,-1.3062744,101.0
901,1.5618451,-0.26433563,-0.2914505,-0.10407715,-1.0598878,-1.5962037,101.0
902,0.7644174,-0.6914749,-0.006000519,-0.10407715,-1.0598878,-1.5962037,101.0
903,0.7644174,-0.6914749,-0.006000519,0.36533204,-1.4029175,-1.720459,101.0
904,-0.6004169,-1.2427063,0.70105743,0.36533204,-1.4029175,-1.720459,101.0
905,-0.6004169,-1.2427063,0.70105743,1.1512207,-1.9116211,-1.7491333,101.0
906,-1.6187491,-1.9261627,1.0385666,1.1512207,-1.9116211,-1.7491333,101.0
907,-1.6187491,-1.9261627,1.0385666,2.4797974,-2.5552003,-1.6524903,101.0
908,-1.4194012,-2.2669296,0.31702042,2.4797974,-2.5552003,-1.6524903,101.0
909,-1.4194012,-2.2669296,0.31702042,3.98573,-2.9173462,-1.5261109,101.0
910,-0.30635834,-1.8007507,-1.0787315,3.98573,-2.9173462,-1.5261109,101.0
911,-0.30635834,-1.8007507,-1.0787315,4.7418823,-2.8695557,-1.0864381,101.0
912,0.68941045,-0.7227173,-2.4167938,4.7418823,-2.8695557,-1.0864381,101.0
913,0.68941045,-0.7227173,-2.4167938,4.7482543,-2.5552003,-0.48746338,101.0
914,0.8083155,0.65784836,-2.8707504,4.7482543,-2.5552003,-0.48746338,101.0
915,0.8083155,0.65784836,-2.8707504,3.6989868,-2.1091554,0.08920898,101.0
916,0.04205036,1.9883423,-2.0663757,3.6989868,-2.1091554,0.08920898,101.0
917,0.04205036,1.9883423,-2.0663757,1.713025,-1.6376221,0.5161377,101.0
918,-1.0657737,2.8635864,-0.49035645,1.713025,-1.6376221,0.5161377,101.0
919,-1.0657737,2.8635864,-0.49035645,-0.25806886,-1.1151123,0.8666016,101.0
920,-1.9757147,2.9187622,1.1359749,-0.25806886,-1.1151123,0.8666016,101.0
921,-1.9757147,2.9187622,1.1359749,-1.9381714,-0.54693604,1.2096313,101.0
922,-2.5579522,2.07312,2.3914833,-1.9381714,-0.54693604,1.2096313,101.0
923,-2.5579522,2.07312,2.3914833,-2.8483155,-0.03079834,1.2956543,101.0
924,-2.7105098,1.0367546,3.193325,-2.8483155,-0.03079834,1.2956543,101.0
925,-2.7105098,1.0367546,3.193325,-3.338965,0.3536499,1.3307008,101.0
926,-2.3578486,-0.5480766,3.2910233,-3.338965,0.3536499,1.3307008,101.0
927,-2.3578486,-0.5480766,3.2910233,-3.3166625,0.48533937,1.6386842,101.0
928,-2.0623777,-2.6624718,2.341423,-3.3166625,0.48533937,1.6386842,101.0
929,-2.0623777,-2.6624718,2.341423,-1.7310791,0.8857178,1.3976074,101.0
930,-1.9778929,-3.26062,1.519413,-1.7310791,0.8857178,1.3976074,101.0
931,-1.9778929,-3.26062,1.519413,-1.356189,0.94412845,1.447522,101.0
932,-1.9972923,-2.333046,1.3287506,-1.356189,0.94412845,1.447522,101.0
933,-1.9972923,-2.333046,1.3287506,-1.4284058,0.9228882,1.3965454,101.0
934,-1.9972923,-2.333046,1.3287506,-1.4284058,0.9228882,1.3965454,100.0
935,-2.4400826,-1.8315277,0.63503647,-1.4284058,0.9228882,1.3965454,100.0
936,-2.4400826,-1.8315277,0.63503647,-0.40250245,0.39082032,1.2064453,100.0
937,-2.793692,-2.4719734,-0.6045189,-0.40250245,0.39082032,1.2064453,100.0
938,-2.793692,-2.4719734,-0.6045189,0.04460449,-0.045666505,1.1809571,100.0
939,-2.4320974,-3.5919952,-1.5176239,0.04460449,-0.045666505,1.1809571,100.0
940,-2.4320974,-3.5919952,-1.5176239,0.87615967,-0.28461915,0.99298096,100.0
941,-1.5288932,-3.966858,-1.7832146,0.87615967,-0.28461915,0.99298096,100.0
942,-1.5288932,-3.966858,-1.7832146,2.1240234,-0.58198243,0.6042847,100.0
943,-0.4007635,-2.6021957,-1.4298439,2.1240234,-0.58198243,0.6042847,100.0
944,-0.4007635,-2.6021957,-1.4298439,2.4670532,-0.73703617,0.29630128,100.0
945,0.7223456,-0.6211014,-0.9817276,2.4670532,-0.73703617,0.29630128,100.0
946,0.7223456,-0.6211014,-0.9817276,2.4925416,-0.89846194,0.20496826,100.0
947,1.8238969,0.61963654,-1.026226,2.4925416,-0.89846194,0.20496826,100.0
948,1.8238969,0.61963654,-1.026226,2.6072388,-0.77739257,-0.06478272,100.0
949,2.828539,1.7356644,-0.9920616,2.6072388,-0.77739257,-0.06478272,100.0
950,2.828539,1.7356644,-0.9920616,2.2461548,-0.34940186,-0.27399904,100.0
951,3.4896011,2.733078,-0.3673668,2.2461548,-0.34940186,-0.27399904,100.0
952,3.4896011,2.733078,-0.3673668,2.0072021,-0.0637207,-0.31966552,100.0
953,3.8670473,2.404808,-0.029270172,2.0072021,-0.0637207,-0.31966552,100.0
954,3.8670473,2.404808,-0.029270172,1.9466676,0.24213867,-0.10620117,100.0
955,3.9118507,1.3272858,-0.19232559,1.9466676,0.24213867,-0.10620117,100.0
956,3.9118507,1.3272858,-0.19232559,0.9398804,0.65207523,-0.04885254,100.0
957,3.3268561,0.5711403,0.065086365,0.9398804,0.65207523,-0.04885254,100.0
958,3.3268561,0.5711403,0.065086365,-1.3200806,0.6425171,-0.10513916,100.0
959,2.5777447,-0.31027222,0.33644485,-1.3200806,0.6425171,-0.10513916,100.0
960,2.5777447,-0.31027222,0.33644485,-1.2977784,0.26762697,-0.80181885,100.0
961,2.497889,-1.1131821,-0.124507904,-1.2977784,0.26762697,-0.80181885,100.0
962,2.497889,-1.1131821,-0.124507904,-0.8623535,-0.13381349,-0.85598147,100.0
963,2.8486166,-2.1912308,-0.65068054,-0.8623535,-0.13381349,-0.85598147,100.0
964,2.8486166,-2.1912308,-0.65068054,-0.5851685,-0.4619751,-0.4248047,100.0
965,2.9303336,-2.599411,0.4000969,-0.5851685,-0.4619751,-0.4248047,100.0
966,2.9303336,-2.599411,0.4000969,-1.627002,-0.20284425,-0.16779785,100.0
967,2.2975507,-0.62701416,2.6033173,-1.627002,-0.20284425,-0.16779785,100.0
968,2.2975507,-0.62701416,2.6033173,-3.6883667,-0.22939454,0.36320803,100.0
969,0.88116837,1.4349518,3.0632553,-3.6883667,-0.22939454,0.36320803,100.0
970,0.88116837,1.4349518,3.0632553,-3.3102906,-0.124255374,0.14761963,100.0
971,-0.9185028,0.7177353,1.030632,-3.3102906,-0.124255374,0.14761963,100.0
972,-0.9185028,0.7177353,1.030632,-1.1427246,0.0541626,0.15717773,100.0
973,-2.7682374,-1.8696136,-1.8886681,-1.1427246,0.0541626,0.15717773,100.0
974,-2.7682374,-1.8696136,-1.8886681,1.9466676,0.38444826,-0.3525879,100.0
975,-4.176553,-2.6325073,-3.51865,1.9466676,0.38444826,-0.3525879,100.0
976,-4.176553,-2.6325073,-3.51865,3.3325927,0.45347902,-0.5341919,100.0
977,-4.588215,-0.6212082,-3.0618553,3.3325927,0.45347902,-0.5341919,100.0
978,-4.588215,-0.6212082,-3.0618553,2.977881,0.33240968,-0.34090576,100.0
979,-4.1090117,1.52845,-1.7403069,2.977881,0.33240968,-0.34090576,100.0
980,-4.1090117,1.52845,-1.7403069,2.265271,0.5543701,-0.45666504,100.0
981,-3.3857934,2.159027,-0.89422226,2.265271,0.5543701,-0.45666504,100.0
982,-3.3857934,2.159027,-0.89422226,2.0603027,0.5341919,-0.42268068,100.0
983,-2.637187,1.9635849,-0.6042938,2.0603027,0.5341919,-0.42268068,100.0
984,-2.637187,1.9635849,-0.6042938,1.4751343,0.66269535,-0.29417726,100.0
985,-1.9853966,1.5462189,-0.6097412,1.4751343,0.66269535,-0.29417726,100.0
986,-1.9853966,1.5462189,-0.6097412,0.9653687,0.6903076,-0.16567384,100.0
987,-1.5380366,1.0617828,-0.81121826,0.9653687,0.6903076,-0.16567384,100.0
988,-1.5380366,1.0617828,-0.81121826,0.3727661,0.6966797,-0.16142578,100.0
989,-1.1247041,0.7223511,-0.9887924,0.3727661,0.6966797,-0.16142578,100.0
990,-1.1247041,0.7223511,-0.9887924,-0.29948732,0.6403931,-0.18479005,100.0
991,-0.51225114,0.3195572,-1.1560249,-0.29948732,0.6403931,-0.18479005,100.0
992,-0.51225114,0.3195572,-1.1560249,-0.80181885,0.5936646,-0.3090454,100.0
993,0.38297248,-0.11140442,-1.36586,-0.80181885,0.5936646,-0.3090454,100.0
994,0.38297248,-0.11140442,-1.36586,-1.1862671,0.631897,-0.44073486,100.0
995,1.4586363,-0.5279541,-1.4924088,-1.1862671,0.631897,-0.44073486,100.0
996,1.4586363,-0.5279541,-1.4924088,-1.3859253,0.8421753,-0.4895874,100.0
997,2.4232323,-0.9323807,-1.3552551,-1.3859253,0.8421753,-0.4895874,100.0
998,2.4232323,-0.9323807,-1.3552551,-1.3476928,1.1937011,-0.4980835,100.0
999,3.0817988,-1.0205765,-0.9165039,-1.3476928,1.1937011,-0.4980835,100.0
1000,3.0817988,-1.0205765,-0.9165039,-1.4018555,1.5739014,-0.39082032,100.0
1001,3.4489596,-0.586586,-0.30456543,-1.4018555,1.5739014,-0.39082032,100.0
1002,3.4489596,-0.586586,-0.30456543,-1.7448853,1.8362182,-0.30267334,100.0
1003,3.618372,0.10160828,0.19552231,-1.7448853,1.8362182,-0.30267334,100.0
1004,3.618372,0.10160828,0.19552231,-2.2429688,1.9817139,-0.17735596,100.0
1005,3.3707108,0.6175995,0.40888214,-2.2429688,1.9817139,-0.17735596,100.0
1006,3.3707108,0.6175995,0.40888214,-2.5828125,1.9487915,-0.02442627,100.0
1007,2.3240712,0.36976624,0.5495682,-2.5828125,1.9487915,-0.02442627,100.0
1008,2.3240712,0.36976624,0.5495682,-1.7576294,1.2744141,-0.1985962,100.0
1009,1.1992593,-0.16580963,0.8704643,-1.7576294,1.2744141,-0.1985962,100.0
1010,1.1992593,-0.16580963,0.8704643,-0.6244629,0.721106,-0.542688,100.0
1011,0.60164356,-0.023628235,1.3641815,-0.6244629,0.721106,-0.542688,100.0
1012,0.60164356,-0.023628235,1.3641815,0.1359375,0.13381349,-0.65844727,100.0
1013,-0.25329208,0.5694504,1.6280899,0.1359375,0.13381349,-0.65844727,100.0
1014,-0.25329208,0.5694504,1.6280899,0.9696167,-0.60216063,-0.70942384,100.0
1015,-1.5526826,1.0013351,1.4163399,0.9696167,-0.60216063,-0.70942384,100.0
1016,-1.5526826,1.0013351,1.4163399,1.9339234,-1.3307008,-0.7986328,100.0
1017,-2.3631058,1.1534004,1.0281296,1.9339234,-1.3307008,-0.7986328,100.0
1018,-2.3631058,1.1534004,1.0281296,2.5626342,-1.8893188,-0.7880127,100.0
1019,-1.9914978,1.2095108,0.7601738,2.5626342,-1.8893188,-0.7880127,100.0
1020,-1.9914978,1.2095108,0.7601738,2.5785644,-2.176062,-0.63826907,100.0
1021,-0.78482413,1.1673508,0.43548203,2.5785644,-2.176062,-0.63826907,100.0
1022,-0.78482413,1.1673508,0.43548203,2.3279297,-2.3289917,-0.36108398,100.0
1023,0.4495821,0.8065872,-0.36502838,2.3279297,-2.3289917,-0.36108398,100.0
1024,0.4495821,0.8065872,-0.36502838,2.1941164,-2.3863404,-0.19541016,100.0
1025,1.1501808,0.73428345,-1.1922531,2.1941164,-2.3863404,-0.19541016,100.0
1026,1.1501808,0.73428345,-1.1922531,1.6641724,-2.066675,-0.08283692,100.0
1027,0.7938385,1.5032959,-1.1172676,1.6641724,-2.066675,-0.08283692,100.0
1028,0.7938385,1.5032959,-1.1172676,0.70305175,-1.6875366,-0.019116212,100.0
1029,-0.61024165,2.1366081,-0.3779335,0.70305175,-1.6875366,-0.019116212,100.0
1030,-0.61024165,2.1366081,-0.3779335,0.032922365,-1.3965454,-0.0063720704,100.0
1031,-2.2077003,1.9056244,0.2527809,0.032922365,-1.3965454,-0.0063720704,100.0
1032,-2.2077003,1.9056244,0.2527809,-0.4619751,-1.1182984,0.1263794,100.0
1033,-3.327244,1.1545639,0.5904579,-0.4619751,-1.1182984,0.1263794,100.0
1034,-3.327244,1.1545639,0.5904579,-0.8315552,-0.9876709,0.29630128,100.0
1035,-3.749503,0.4180832,0.778347,-0.8315552,-0.9876709,0.29630128,100.0
1036,-3.749503,0.4180832,0.778347,-0.8952759,-0.9897949,0.38232422,100.0
1037,-3.4727468,-0.042388916,1.0137062,-0.8952759,-0.9897949,0.38232422,100.0
1038,-3.4727468,-0.042388916,1.0137062,-0.6881836,-1.0503296,0.44073486,100.0
1039,-3.4727468,-0.042388916,1.0137062,-0.6881836,-1.0503296,0.44073486,101.0
1040,-2.7595575,-0.29457092,1.2862091,-0.6881836,-1.0503296,0.44073486,101.0
1041,-2.7595575,-0.29457092,1.2862091,-0.36002198,-0.9876709,0.45666504,101.0
1042,-2.0329514,-0.3727417,1.3572884,-0.36002198,-0.9876709,0.45666504,101.0
1043,-2.0329514,-0.3727417,1.3572884,0.0361084,-0.91864014,0.31860352,101.0
1044,-1.4915466,-0.32325363,1.0989304,0.0361084,-0.91864014,0.31860352,101.0
1045,-1.4915466,-0.32325363,1.0989304,0.24851075,-0.7986328,0.16885987,101.0
1046,-0.93377686,-0.0692482,0.9328804,0.24851075,-0.7986328,0.16885987,101.0
1047,-0.93377686,-0.0692482,0.9328804,-0.14018555,-0.6701294,-0.08071289,101.0
1048,-0.93377686,-0.0692482,0.9328804,-0.5543701,-0.55968016,-0.13168946,101.0
1049,-0.09719229,-0.03599167,0.9987335,-0.5543701,-0.55968016,-0.13168946,101.0
1050,1.8951955,-2.3323822,-0.023620605,-0.5543701,-0.55968016,-0.13168946,101.0
1051,1.8951955,-2.3323822,-0.023620605,-0.37701416,-0.41099855,-0.28674316,101.0
1052,1.8951955,-2.3323822,-0.023620605,-0.028674318,-0.38975832,-0.47578126,101.0
1053,1.8951955,-2.3323822,-0.023620605,0.3451538,-0.46516114,-0.78376466,101.0
1054,1.6928654,-2.2366943,-0.20145416,0.3451538,-0.46516114,-0.78376466,101.0
1055,1.6928654,-2.2366943,-0.20145416,0.55968016,-0.61065674,-1.1225464,101.0
1056,1.5398514,-1.9174423,0.049690247,0.55968016,-0.61065674,-1.1225464,101.0
1057,1.5398514,-1.9174423,0.049690247,0.5713623,-0.7540283,-1.4082276,101.0
1058,1.4857385,-1.6791687,0.41682816,0.5713623,-0.7540283,-1.4082276,101.0
1059,1.4857385,-1.6791687,0.41682816,0.47896728,-0.8496094,-1.5739014,101.0
1060,1.5176191,-1.7939453,0.5027733,0.47896728,-0.8496094,-1.5739014,101.0
1061,1.5176191,-1.7939453,0.5027733,0.5256958,-1.0280274,-1.7448853,101.0
1062,1.7816979,-2.4632187,0.18901062,0.5256958,-1.0280274,-1.7448853,101.0
1063,1.7816979,-2.4632187,0.18901062,1.1384766,-1.2032593,-1.9785279,101.0
1064,2.2692914,-3.5363846,-0.28808594,1.1384766,-1.2032593,-1.9785279,101.0
1065,2.2692914,-3.5363846,-0.28808594,2.265271,-1.1416626,-2.0741088,101.0
1066,2.4847813,-4.573822,-0.67038727,2.265271,-1.1416626,-2.0741088,101.0
1067,2.4847813,-4.573822,-0.67038727,3.5619874,-0.815625,-1.8808228,101.0
1068,1.9796463,-4.9048233,-1.1245651,3.5619874,-0.815625,-1.8808228,101.0
1069,1.9796463,-4.9048233,-1.1245651,4.6569214,-0.22833252,-1.3848633,101.0
1070,0.9467908,-3.8029099,-1.8859558,4.6569214,-0.22833252,-1.3848633,101.0
1071,0.9467908,-3.8029099,-1.8859558,5.162439,0.3058594,-0.7699585,101.0
1072,0.15699315,-1.5136185,-2.5862427,5.162439,0.3058594,-0.7699585,101.0
1073,0.15699315,-1.5136185,-2.5862427,5.0095096,0.5522461,-0.18903808,101.0
1074,0.14618778,0.7344208,-2.814087,5.0095096,0.5522461,-0.18903808,101.0
1075,0.14618778,0.7344208,-2.814087,4.4593873,0.89102787,0.30267334,101.0
1076,0.43352747,2.0163116,-2.5888557,4.4593873,0.89102787,0.30267334,101.0
1077,0.43352747,2.0163116,-2.5888557,3.63208,1.3328247,0.7678345,101.0
1078,0.23203933,2.211441,-2.130619,3.63208,1.3328247,0.7678345,101.0
1079,0.23203933,2.211441,-2.130619,2.630603,1.7002808,1.1151123,101.0
1080,-0.42508626,1.6709976,-1.6598778,2.630603,1.7002808,1.1151123,101.0
1081,-0.42508626,1.6709976,-1.6598778,1.6790406,2.1452637,1.363623,101.0
1082,-1.1866144,0.98851013,-1.2406235,1.6790406,2.1452637,1.363623,101.0
1083,-1.1866144,0.98851013,-1.2406235,0.6945557,2.5711305,1.6089478,101.0
1084,-1.8197505,0.55067444,-0.82901,0.6945557,2.5711305,1.6089478,101.0
1085,-1.8197505,0.55067444,-0.82901,-0.38551027,2.9035401,1.8956909,101.0
1086,-2.1484518,0.4258423,-0.4878788,-0.38551027,2.9035401,1.8956909,101.0
1087,-2.1484518,0.4258423,-0.4878788,-1.5123047,3.0543458,2.2461548,101.0
1088,-2.0849724,0.46207428,-0.36499786,-1.5123047,3.0543458,2.2461548,101.0
1089,-2.0849724,0.46207428,-0.36499786,-2.52334,3.078772,2.6040528,101.0
1090,-1.683896,0.5049286,-0.4361744,-2.52334,3.078772,2.6040528,101.0
1091,-1.683896,0.5049286,-0.4361744,-3.264624,2.9821289,2.897168,101.0
1092,-1.0973608,0.5093994,-0.56355286,-3.264624,2.9821289,2.897168,101.0
1093,-1.0973608,0.5093994,-0.56355286,-3.6543825,2.7803466,3.1042602,101.0
1094,-0.46055472,0.522522,-0.62197304,-3.6543825,2.7803466,3.1042602,101.0
1095,-0.46055472,0.522522,-0.62197304,-3.7265992,2.4904175,3.1520507,101.0
1096,0.13077497,0.63905334,-0.5494461,-3.7265992,2.4904175,3.1520507,101.0
1097,0.13077497,0.63905334,-0.5494461,-3.541809,2.167566,3.068152,101.0
1098,0.64573324,0.82121277,-0.36004066,-3.541809,2.167566,3.068152,101.0
1099,0.64573324,0.82121277,-0.36004066,-3.1276245,1.803296,2.8408813,101.0
1100,1.1940036,0.9128189,-0.11756134,-3.1276245,1.803296,2.8408813,101.0
1101,1.1940036,0.9128189,-0.11756134,-2.4744873,1.4634522,2.4734254,101.0
1102,1.81022,0.85411835,0.071624756,-2.4744873,1.4634522,2.4734254,101.0
1103,1.81022,0.85411835,0.071624756,-1.6885986,1.3179566,2.0507448,101.0
1104,2.201533,0.71149445,0.17790604,-1.6885986,1.3179566,2.0507448,101.0
1105,2.201533,0.71149445,0.17790604,-0.91120607,1.2096313,1.5484132,101.0
1106,2.368502,0.5593109,0.19076347,-0.91120607,1.2096313,1.5484132,101.0
1107,2.368502,0.5593109,0.19076347,-0.2984253,1.1034302,0.96218264,101.0
1108,2.5798357,0.50068665,0.06373215,-0.2984253,1.1034302,0.96218264,101.0
1109,2.5798357,0.50068665,0.06373215,0.09239502,1.083252,0.3993164,101.0
1110,2.6685927,0.55158997,-0.1283226,0.09239502,1.083252,0.3993164,101.0
1111,2.6685927,0.55158997,-0.1283226,0.27718505,1.0651978,-0.13699952,101.0
1112,2.3724597,0.7057648,-0.23116112,0.27718505,1.0651978,-0.13699952,101.0
1113,2.3724597,0.7057648,-0.23116112,0.17841797,0.96430665,-0.6425171,101.0
1114,1.871979,0.94008636,-0.18290329,0.17841797,0.96430665,-0.6425171,101.0
1115,1.871979,0.94008636,-0.18290329,-0.24532472,0.7604004,-1.1395386,101.0
1116,1.5524783,1.1384125,-0.07131195,-0.24532472,0.7604004,-1.1395386,101.0
1117,1.5524783,1.1384125,-0.07131195,-0.86341554,0.5235718,-1.5930176,101.0
1118,1.4045682,1.125412,0.029485703,-0.86341554,0.5235718,-1.5930176,101.0
1119,1.4045682,1.125412,0.029485703,-1.3253907,0.24744873,-2.0422485,101.0
1120,1.0329809,0.80207825,0.2704277,-1.3253907,0.24744873,-2.0422485,101.0
1121,1.0329809,0.80207825,0.2704277,-1.4241577,-0.06159668,-2.4659913,101.0
1122,0.3292899,0.14478683,0.9155617,-1.4241577,-0.06159668,-2.4659913,101.0
1123,0.3292899,0.14478683,0.9155617,-1.0407715,-0.6053467,-2.9364624,101.0
1124,-0.0034503937,-0.7596817,1.8834743,-1.0407715,-0.6053467,-2.9364624,101.0
1125,-0.0034503937,-0.7596817,1.8834743,-0.1539917,-1.1416626,-3.4961426,101.0
1126,0.40496683,-1.7088547,2.6929474,-0.1539917,-1.1416626,-3.4961426,101.0
1127,0.40496683,-1.7088547,2.6929474,1.1958252,-1.630188,-3.9368775,101.0
1128,0.91574574,-2.3335648,2.6806755,1.1958252,-1.630188,-3.9368775,101.0
1129,0.91574574,-2.3335648,2.6806755,2.7654786,-2.0964112,-4.184326,101.0
1130,0.8557167,-2.1412506,1.5387039,2.7654786,-2.0964112,-4.184326,101.0
1131,0.8557167,-2.1412506,1.5387039,4.003784,-2.439441,-4.1014895,101.0
1132,0.017422676,-1.3041763,-0.12710571,4.003784,-2.439441,-4.1014895,101.0
1133,0.017422676,-1.3041763,-0.12710571,4.890564,-2.532898,-3.625708,101.0
1134,0.017422676,-1.3041763,-0.12710571,4.890564,-2.532898,-3.625708,102.0
1135,-1.3284569,-0.384964,-1.1606674,4.890564,-2.532898,-3.625708,102.0
1136,-1.3284569,-0.384964,-1.1606674,5.081726,-2.0486207,-2.9141603,102.0
1137,-2.9454439,0.75826263,-0.8872986,5.081726,-2.0486207,-2.9141603,102.0
1138,-2.9454439,0.75826263,-0.8872986,3.8752809,-1.4347779,-2.076233,102.0
1139,-4.6208086,2.310295,0.20263672,3.8752809,-1.4347779,-2.076233,102.0
1140,-4.6208086,2.310295,0.20263672,1.3944215,-1.0174073,-1.2595459,102.0
1141,-5.783573,3.6131973,1.0369492,1.3944215,-1.0174073,-1.2595459,102.0
1142,-5.783573,3.6131973,1.0369492,-1.1374146,-0.92076415,-0.68924564,102.0
1143,-5.7965975,3.8645096,1.0427322,-1.1374146,-0.92076415,-0.68924564,102.0
1144,-5.7965975,3.8645096,1.0427322,-2.9704468,-0.81243896,-0.45878908,102.0
1145,-4.7970557,3.1058502,0.56484985,-2.9704468,-0.81243896,-0.45878908,102.0
1146,-4.7970557,3.1058502,0.56484985,-4.168396,-0.5936646,-0.28674316,102.0
1147,-3.528526,1.9792252,0.2686653,-4.168396,-0.5936646,-0.28674316,102.0
1148,-3.528526,1.9792252,0.2686653,-4.9935794,-0.4163086,-0.19647217,102.0
1149,-2.3673398,0.91869736,0.36976624,-4.9935794,-0.4163086,-0.19647217,102.0
1150,-2.3673398,0.91869736,0.36976624,-5.4067016,-0.24001466,-0.12000733,102.0
1151,-1.3143065,-0.057621002,0.5853653,-5.4067016,-0.24001466,-0.12000733,102.0
1152,-1.3143065,-0.057621002,0.5853653,-5.348291,-0.02442627,-0.124255374,102.0
1153,-0.40164042,-1.0116234,0.65364456,-5.348291,-0.02442627,-0.124255374,102.0
1154,-0.40164042,-1.0116234,0.65364456,-4.957471,0.11469727,-0.23789063,102.0
1155,0.35457873,-1.8784866,0.59065247,-4.957471,0.11469727,-0.23789063,102.0
1156,0.35457873,-1.8784866,0.59065247,-4.343628,0.28355715,-0.4439209,102.0
1157,0.9185507,-2.5872154,0.55501556,-4.343628,0.28355715,-0.4439209,102.0
1158,0.9185507,-2.5872154,0.55501556,-3.5651734,0.51826173,-0.6977417,102.0
1159,0.9185507,-2.5872154,0.55501556,-2.613611,0.6860596,-1.0492676,102.0
1160,1.190285,-3.1061249,0.7247505,-2.613611,0.6860596,-1.0492676,102.0
1161,1.6262269,-4.0178604,2.6259918,-2.613611,0.6860596,-1.0492676,102.0
1162,1.6262269,-4.0178604,2.6259918,-1.5271729,0.7168579,-1.454956,102.0
1163,1.6262269,-4.0178604,2.6259918,-0.5150757,0.63826907,-1.8043579,102.0
1164,1.6262269,-4.0178604,2.6259918,0.28674316,0.40144044,-1.9594116,102.0
1165,1.3430347,-3.0964813,2.7563095,0.28674316,0.40144044,-1.9594116,102.0
1166,1.3430347,-3.0964813,2.7563095,0.9632446,0.08814698,-1.9562256,102.0
1167,1.0274551,-2.2209625,2.4480515,0.9632446,0.08814698,-1.9562256,102.0
1168,1.0274551,-2.2209625,2.4480515,1.4315919,-0.3175415,-1.6843506,102.0
1169,0.9202795,-1.5251312,1.790081,1.4315919,-0.3175415,-1.6843506,102.0
1170,0.9202795,-1.5251312,1.790081,2.177124,-0.69986576,-1.3211426,102.0
1171,0.96809626,-0.88687897,1.0371323,2.177124,-0.69986576,-1.3211426,102.0
1172,0.96809626,-0.88687897,1.0371323,3.0235474,-0.93138427,-0.7699585,102.0
1173,0.92707705,-0.19210815,0.30844116,3.0235474,-0.93138427,-0.7699585,102.0
1174,0.92707705,-0.19210815,0.30844116,3.6841187,-0.9685547,-0.17523193,102.0
1175,0.8009878,0.52233887,-0.49811935,3.6841187,-0.9685547,-0.17523193,102.0
1176,0.8009878,0.52233887,-0.49811935,3.7287233,-0.74659425,0.40144044,102.0
1177,0.9964421,1.1311646,-1.3908157,3.7287233,-0.74659425,0.40144044,102.0
1178,0.9964421,1.1311646,-1.3908157,3.0670898,-0.4078125,0.9855469,102.0
1179,1.6873026,1.1446915,-2.236763,3.0670898,-0.4078125,0.9855469,102.0
1180,1.6873026,1.1446915,-2.236763,2.4574952,0.07646485,1.6482422,102.0
1181,2.1547494,0.51343536,-2.8131905,2.4574952,0.07646485,1.6482422,102.0
1182,2.1547494,0.51343536,-2.8131905,2.2376587,0.57242435,2.0709229,102.0
1183,1.8085895,0.05278015,-2.91967,2.2376587,0.57242435,2.0709229,102.0
1184,1.8085895,0.05278015,-2.91967,2.0454347,0.905896,2.2026124,102.0
1185,1.0437466,0.2134018,-2.615303,2.0454347,0.905896,2.2026124,102.0
1186,1.0437466,0.2134018,-2.615303,1.9328613,1.2807862,2.3215578,102.0
1187,0.3005246,0.70803833,-2.1099052,1.9328613,1.2807862,2.3215578,102.0
1188,0.3005246,0.70803833,-2.1099052,1.9456055,1.7788696,2.5042236,102.0
1189,-0.41595238,1.2436066,-1.4602509,1.9456055,1.7788696,2.5042236,102.0
1190,-0.41595238,1.2436066,-1.4602509,1.7491333,2.1314576,2.6720216,102.0
1191,-1.0192,1.6256561,-0.702858,1.7491333,2.1314576,2.6720216,102.0
1192,-1.0192,1.6256561,-0.702858,1.3307008,2.2164185,2.8493774,102.0
1193,-1.2458409,1.6941147,-0.12205124,1.3307008,2.2164185,2.8493774,102.0
1194,-1.2458409,1.6941147,-0.12205124,0.9197022,2.168628,3.0723999,102.0
1195,-0.9611015,1.5128479,0.09598541,0.9197022,2.168628,3.0723999,102.0
1196,-0.9611015,1.5128479,0.09598541,0.5129517,2.0942872,3.3102906,102.0
1197,-0.3572723,1.2080765,0.028839111,0.5129517,2.0942872,3.3102906,102.0
1198,-0.3572723,1.2080765,0.028839111,0.11257324,1.9562256,3.5131347,102.0
1199,0.26777104,0.8650055,-0.18221283,0.11257324,1.9562256,3.5131347,102.0
1200,0.26777104,0.8650055,-0.18221283,-0.2888672,1.7629395,3.62677,102.0
1201,0.7547442,0.4726944,-0.44286346,-0.2888672,1.7629395,3.62677,102.0
1202,0.7547442,0.4726944,-0.44286346,-0.5543701,1.5420411,3.6490724,102.0
1203,0.9970205,0.061286926,-0.7127991,-0.5543701,1.5420411,3.6490724,102.0
1204,0.9970205,0.061286926,-0.7127991,-0.61702883,1.3243287,3.5152588,102.0
1205,1.0046965,-0.26374054,-0.90428543,-0.61702883,1.3243287,3.5152588,102.0
1206,1.0046965,-0.26374054,-0.90428543,-0.5734863,1.0630738,3.2380738,102.0
1207,0.92851305,-0.49437714,-0.9596939,-0.5734863,1.0630738,3.2380738,102.0
1208,0.92851305,-0.49437714,-0.9596939,-0.38657227,0.8219971,2.8313234,102.0
1209,0.9637333,-0.70830536,-0.9087944,-0.38657227,0.8219971,2.8313234,102.0
1210,0.9637333,-0.70830536,-0.9087944,-0.0541626,0.631897,2.3300538,102.0
1211,1.1923002,-0.82206726,-0.84610367,-0.0541626,0.631897,2.3300538,102.0
1212,1.1923002,-0.82206726,-0.84610367,0.27612305,0.53737795,1.7820557,102.0
1213,1.5201731,-0.7424545,-0.79027367,0.27612305,0.53737795,1.7820557,102.0
1214,1.5201731,-0.7424545,-0.79027367,0.48746338,0.4715332,1.2191895,102.0
1215,1.7683358,-0.5022278,-0.71757126,0.48746338,0.4715332,1.2191895,102.0
1216,1.7683358,-0.5022278,-0.71757126,0.51826173,0.44073486,0.6669434,102.0
1217,1.7932086,-0.19389343,-0.6377163,0.51826173,0.44073486,0.6669434,102.0
1218,1.7932086,-0.19389343,-0.6377163,0.40356445,0.36427003,0.13168946,102.0
1219,1.5486174,0.08226013,-0.5282402,0.40356445,0.36427003,0.13168946,102.0
1220,1.5486174,0.08226013,-0.5282402,0.14761963,0.26762697,-0.36745605,102.0
1221,1.2636008,0.2817154,-0.3804283,0.14761963,0.26762697,-0.36745605,102.0
1222,1.2636008,0.2817154,-0.3804283,-0.2793091,0.08496094,-0.8464233,102.0
1223,1.1800089,0.3643875,-0.25712585,-0.2793091,0.08496094,-0.8464233,102.0
1224,1.1800089,0.3643875,-0.25712585,-0.721106,-0.0637207,-1.2722901,102.0
1225,1.1252813,0.34666443,-0.17216873,-0.721106,-0.0637207,-1.2722901,102.0
1226,1.1252813,0.34666443,-0.17216873,-1.0556396,-0.25806886,-1.6599244,102.0
1227,0.83401394,0.17767334,0.056907654,-1.0556396,-0.25806886,-1.6599244,102.0
1228,0.83401394,0.17767334,0.056907654,-1.1066163,-0.5331299,-2.0252564,102.0
1229,0.41229153,-0.2035904,0.65615845,-1.1066163,-0.5331299,-2.0252564,102.0
1230,0.41229153,-0.2035904,0.65615845,-0.76358646,-0.92076415,-2.3852785,102.0
1231,0.34362698,-0.55467224,1.3571529,-0.76358646,-0.92076415,-2.3852785,102.0
1232,0.34362698,-0.55467224,1.3571529,-0.76358646,-0.92076415,-2.3852785,101.0
1233,0.34362698,-0.55467224,1.3571529,-0.26868898,-1.2244996,-2.7644165,101.0
1234,0.6655512,-0.63907623,1.6413383,-0.26868898,-1.2244996,-2.7644165,101.0
1235,0.6655512,-0.63907623,1.6413383,0.33240968,-1.4942505,-3.0522218,101.0
1236,0.95901585,-0.55885315,1.3798561,0.33240968,-1.4942505,-3.0522218,101.0
1237,0.95901585,-0.55885315,1.3798561,1.0492676,-1.7756836,-3.2476318,101.0
1238,0.95398045,-0.38840485,0.8017235,1.0492676,-1.7756836,-3.2476318,101.0
1239,0.95398045,-0.38840485,0.8017235,1.811792,-1.9657837,-3.2805543,101.0
1240,0.36889744,-0.08633423,0.4453087,1.811792,-1.9657837,-3.2805543,101.0
1241,0.36889744,-0.08633423,0.4453087,2.3119996,-1.901001,-3.0947022,101.0
1242,-0.46144962,-0.05393219,0.37394714,2.3119996,-1.901001,-3.0947022,101.0
1243,-0.46144962,-0.05393219,0.37394714,2.3332398,-1.7947998,-2.9555786,101.0
1244,-2.7878366,1.191925,1.1741943,2.3332398,-1.7947998,-2.9555786,101.0
1245,-2.7878366,1.191925,1.1741943,1.354065,-1.2776002,-2.2780151,101.0
1246,-3.4464068,1.338562,1.217102,1.354065,-1.2776002,-2.2780151,101.0
1247,-3.4464068,1.338562,1.217102,0.67437744,-1.1066163,-2.0295045,101.0
1248,-5.5901456,2.467163,1.3010368,0.67437744,-1.1066163,-2.0295045,101.0
1249,-5.5901456,2.467163,1.3010368,-1.7608155,-0.8517334,-1.5515991,101.0
1250,-5.2455173,2.34861,1.1072731,-1.7608155,-0.8517334,-1.5515991,101.0
1251,-5.2455173,2.34861,1.1072731,-2.4118288,-0.81668705,-1.4783204,101.0
1252,-4.5488677,1.7863693,0.4597206,-2.4118288,-0.81668705,-1.4783204,101.0
1253,-4.5488677,1.7863693,0.4597206,-3.7839477,-0.47365722,-1.2892822,101.0
1254,-3.5032053,1.502121,0.5139923,-3.7839477,-0.47365722,-1.2892822,101.0
1255,-3.5032053,1.502121,0.5139923,-4.1078615,-0.33771974,-1.2404298,101.0
1256,-1.9454355,0.40205002,0.2825203,-4.1078615,-0.33771974,-1.2404298,101.0
1257,-1.9454355,0.40205002,0.2825203,-4.616565,-0.007434082,-1.1937011,101.0
1258,-1.3717537,0.2156601,0.5241127,-4.616565,-0.007434082,-1.1937011,101.0
1259,-1.3717537,0.2156601,0.5241127,-4.5942626,0.08920898,-1.2244996,101.0
1260,-0.26235652,-1.0727615,0.3974762,-4.5942626,0.08920898,-1.2244996,101.0
1261,-0.26235652,-1.0727615,0.3974762,-4.164148,0.32391357,-1.4209718,101.0
1262,0.009230852,-1.1450348,0.64188385,-4.164148,0.32391357,-1.4209718,101.0
1263,0.009230852,-1.1450348,0.64188385,-3.9347534,0.4078125,-1.5059327,101.0
1264,0.813244,-2.065895,0.84423065,-3.9347534,0.4078125,-1.5059327,101.0
1265,0.813244,-2.065895,0.84423065,-3.161609,0.727478,-1.7703736,101.0
1266,0.63694775,-1.9356995,1.0456009,-3.161609,0.727478,-1.7703736,101.0
1267,0.63694775,-1.9356995,1.0456009,-2.899292,0.7784546,-1.8776368,101.0
1268,0.3621217,-2.4194107,1.3799248,-2.899292,0.7784546,-1.8776368,101.0
1269,0.3621217,-2.4194107,1.3799248,-2.079419,0.632959,-2.2227905,101.0
1270,0.3621217,-2.4194107,1.3799248,-1.7459472,0.5140137,-2.3024414,101.0
1271,0.075512886,-2.3386688,1.4209213,-1.7459472,0.5140137,-2.3024414,101.0
1272,-0.11659169,-3.6216202,1.73106,-1.7459472,0.5140137,-2.3024414,101.0
1273,-0.11659169,-3.6216202,1.73106,-0.5299439,0.21983643,-2.2896974,101.0
1274,-0.11659169,-3.6216202,1.73106,-0.24320069,0.18585205,-2.073047,101.0
1275,-0.11659169,-3.6216202,1.73106,0.8772217,-0.41737062,-1.4592041,101.0
1276,-0.22018981,-2.7267532,1.219429,0.8772217,-0.41737062,-1.4592041,101.0
1277,-0.22018981,-2.7267532,1.219429,1.269104,-0.49383545,-1.2085694,101.0
1278,0.16995418,-0.4848404,0.77150345,1.269104,-0.49383545,-1.2085694,101.0
1279,0.16995418,-0.4848404,0.77150345,2.5031617,-0.81987303,-0.32922363,101.0
1280,0.19132221,0.06737518,0.4953766,2.5031617,-0.81987303,-0.32922363,101.0
1281,0.19132221,0.06737518,0.4953766,2.7006958,-0.79119873,-0.008496094,101.0
1282,0.036798,1.1717377,0.26735687,2.7006958,-0.79119873,-0.008496094,101.0
1283,0.036798,1.1717377,0.26735687,2.4999757,-0.56392825,0.8591675,101.0
1284,0.040009737,1.0529709,-0.09516144,2.4999757,-0.56392825,0.8591675,101.0
1285,0.040009737,1.0529709,-0.09516144,2.2079225,-0.5522461,1.0609497,101.0
1286,0.5515878,0.70386505,-0.8047676,2.2079225,-0.5522461,1.0609497,101.0
1287,0.5515878,0.70386505,-0.8047676,1.6832886,-0.44604492,1.5048707,101.0
1288,1.7427351,-0.0058517456,-1.5597305,1.6832886,-0.44604492,1.5048707,101.0
1289,1.7427351,-0.0058517456,-1.5597305,1.6057618,-0.046728518,1.897815,101.0
1290,2.5324695,-0.44835663,-2.0417519,1.6057618,-0.046728518,1.897815,101.0
1291,2.5324695,-0.44835663,-2.0417519,1.622754,0.41843262,2.167566,101.0
1292,2.302465,-0.2003479,-2.060051,1.622754,0.41843262,2.167566,101.0
1293,2.302465,-0.2003479,-2.060051,1.628064,0.75509036,2.3226197,101.0
1294,0.855009,0.95713043,-1.4657288,1.628064,0.75509036,2.3226197,101.0
1295,0.855009,0.95713043,-1.4657288,1.6896607,1.3455689,2.6550293,101.0
1296,0.455101,1.2856903,-1.1351318,1.6896607,1.3455689,2.6550293,101.0
1297,0.455101,1.2856903,-1.1351318,1.6185058,1.4825684,2.799463,101.0
1298,-0.57858276,1.8852692,-0.42114258,1.6185058,1.4825684,2.799463,101.0
1299,-0.57858276,1.8852692,-0.42114258,1.4156617,1.5133667,3.0670898,101.0
1300,-1.119043,2.0371094,0.05596924,1.4156617,1.5133667,3.0670898,101.0
1301,-1.119043,2.0371094,0.05596924,1.2924683,1.4252198,3.2826784,101.0
1302,-0.948335,1.8215942,0.20788574,1.2924683,1.4252198,3.2826784,101.0
1303,-0.948335,1.8215942,0.20788574,1.1501588,1.3423828,3.5120728,101.0
1304,-0.25824076,1.4511948,0.09384918,1.1501588,1.3423828,3.5120728,101.0
1305,-0.25824076,1.4511948,0.09384918,0.9696167,1.270166,3.713855,101.0
1306,0.6152214,1.0420837,-0.27902222,0.9696167,1.270166,3.713855,101.0
1307,0.6152214,1.0420837,-0.27902222,0.79332274,1.2361816,3.8667848,101.0
1308,1.3158953,0.66467285,-0.7971306,0.79332274,1.2361816,3.8667848,101.0
1309,1.3158953,0.66467285,-0.7971306,0.6945557,1.2138795,3.9294434,101.0
1310,1.6012515,0.3262558,-1.2962608,0.6945557,1.2138795,3.9294434,101.0
1311,1.6012515,0.3262558,-1.2962608,0.6425171,1.1448487,3.8635986,101.0
1312,1.6012515,0.3262558,-1.2962608,0.64995116,1.0556396,3.6469483,101.0
1313,1.5649978,0.011016846,-1.6097374,0.64995116,1.0556396,3.6469483,101.0
1314,1.9029992,-0.8239479,-1.4928207,0.64995116,1.0556396,3.6469483,101.0
1315,1.9029992,-0.8239479,-1.4928207,0.7720825,0.8973999,3.0893922,101.0
1316,1.9029992,-0.8239479,-1.4928207,0.8527954,0.85385746,2.8536255,101.0
1317,1.9029992,-0.8239479,-1.4928207,0.99722904,0.77314454,2.3364258,101.0
1318,1.8874629,-0.87584686,-1.1189651,0.99722904,0.77314454,2.3364258,101.0
1319,1.8874629,-0.87584686,-1.1189651,0.9674927,0.73597413,1.814978,101.0
1320,1.9816134,-0.770134,-0.97193146,0.9674927,0.73597413,1.814978,101.0
1321,1.9816134,-0.770134,-0.97193146,0.7072998,0.6573853,1.2977784,101.0
1322,2.0335085,-0.52976227,-0.934185,0.7072998,0.6573853,1.2977784,101.0
1323,2.0335085,-0.52976227,-0.934185,0.27612305,0.5586182,0.7827026,101.0
1324,1.887183,-0.251503,-0.92469406,0.27612305,0.5586182,0.7827026,101.0
1325,1.887183,-0.251503,-0.92469406,-0.20496826,0.4725952,0.32072756,101.0
1326,1.3797169,0.022407532,-0.80132675,-0.20496826,0.4725952,0.32072756,101.0
1327,1.3797169,0.022407532,-0.80132675,-0.71367186,0.2516968,-0.15186767,101.0
1328,0.93427896,0.16061401,-0.6186619,-0.71367186,0.2516968,-0.15186767,101.0
1329,0.93427896,0.16061401,-0.6186619,-1.1480347,0.033984374,-0.64570314,101.0
1330,0.7597523,0.18551254,-0.43052673,-1.1480347,0.033984374,-0.64570314,101.0
1331,0.7597523,0.18551254,-0.43052673,-1.4560181,-0.15080567,-1.1214844,101.0
1332,0.51878834,0.15874863,-0.2058487,-1.4560181,-0.15080567,-1.1214844,101.0
1333,0.51878834,0.15874863,-0.2058487,-1.621692,-0.38763428,-1.5770874,101.0
1334,0.030069828,0.002609253,0.17886353,-1.621692,-0.38763428,-1.5770874,101.0
1335,0.030069828,0.002609253,0.17886353,-1.4528321,-0.7391602,-2.0390625,101.0
1336,-0.24256992,-0.32673645,0.7510376,-1.4528321,-0.7391602,-2.0390625,101.0
1337,-0.24256992,-0.32673645,0.7510376,-0.92076415,-1.0959961,-2.536084,101.0
1338,0.068309784,-0.6060028,1.2612915,-0.92076415,-1.0959961,-2.536084,101.0
1339,0.068309784,-0.6060028,1.2612915,-0.24107666,-1.3912354,-3.0288575,101.0
1340,0.6279392,-0.7807617,1.4419174,-0.24107666,-1.3912354,-3.0288575,101.0
1341,0.6279392,-0.7807617,1.4419174,0.6488892,-1.7066529,-3.454724,101.0
1342,0.96546173,-0.83647156,1.1473808,0.6488892,-1.7066529,-3.454724,101.0
1343,0.96546173,-0.83647156,1.1473808,1.5208008,-1.906311,-3.7265992,101.0
1344,0.84714985,-0.5827255,0.5210762,1.5208008,-1.906311,-3.7265992,101.0
1345,0.84714985,-0.5827255,0.5210762,1.5208008,-1.906311,-3.7265992,102.0
1346,0.84714985,-0.5827255,0.5210762,2.1399536,-1.9445435,-3.7414672,102.0
1347,-0.06292963,-0.086380005,-0.02375412,2.1399536,-1.9445435,-3.7414672,102.0
1348,-0.06292963,-0.086380005,-0.02375412,2.3958986,-1.8298463,-3.524817,102.0
1349,-1.7369404,0.49339294,-0.13498306,2.3958986,-1.8298463,-3.524817,102.0
1350,-1.7369404,0.49339294,-0.13498306,2.0072021,-1.6535523,-3.1828492,102.0
1351,-3.4736953,1.0691528,0.15933609,2.0072021,-1.6535523,-3.1828492,102.0
1352,-3.4736953,1.0691528,0.15933609,1.0089111,-1.4199097,-2.6975098,102.0
1353,-4.653602,1.5092888,0.52983475,1.0089111,-1.4199097,-2.6975098,102.0
1354,-4.653602,1.5092888,0.52983475,-0.32391357,-1.2404298,-2.2238526,102.0
1355,-5.0106134,1.7472763,0.68431854,-0.32391357,-1.2404298,-2.2238526,102.0
1356,-5.0106134,1.7472763,0.68431854,-1.6620483,-1.0705079,-1.8765748,102.0
1357,-4.571003,1.5892639,0.548687,-1.6620483,-1.0705079,-1.8765748,102.0
1358,-4.571003,1.5892639,0.548687,-2.7654786,-0.85491943,-1.6004517,102.0
1359,-3.6857088,1.1133766,0.40549088,-2.7654786,-0.85491943,-1.6004517,102.0
1360,-3.6857088,1.1133766,0.40549088,-3.5991578,-0.62977296,-1.3901733,102.0
1361,-2.7122633,0.41308975,0.44668198,-3.5991578,-0.62977296,-1.3901733,102.0
1362,-2.7122633,0.41308975,0.44668198,-4.032459,-0.42374268,-1.26698,102.0
1363,-1.785521,-0.38113785,0.6269493,-4.032459,-0.42374268,-1.26698,102.0
1364,-1.785521,-0.38113785,0.6269493,-4.0250244,-0.21452637,-1.2361816,102.0
1365,-0.98069954,-1.0277367,0.7918434,-4.0250244,-0.21452637,-1.2361816,102.0
1366,-0.98069954,-1.0277367,0.7918434,-3.714917,-0.027612304,-1.2776002,102.0
1367,-0.35644698,-1.3817711,0.8259773,-3.714917,-0.027612304,-1.2776002,102.0
1368,-0.35644698,-1.3817711,0.8259773,-3.2699342,0.08283692,-1.3965454,102.0
1369,0.0790391,-1.4975777,0.7734642,-3.2699342,0.08283692,-1.3965454,102.0
1370,0.0790391,-1.4975777,0.7734642,-2.7304323,0.17523193,-1.5462891,102.0
1371,0.25261116,-1.5265808,0.8275223,-2.7304323,0.17523193,-1.5462891,102.0
1372,0.25261116,-1.5265808,0.8275223,-2.1941164,0.22408448,-1.6949707,102.0
1373,0.15223527,-1.5821915,1.0924492,-2.1941164,0.22408448,-1.6949707,102.0
1374,0.15223527,-1.5821915,1.0924492,-1.719397,0.107263185,-1.8755127,102.0
1375,0.15223527,-1.5821915,1.0924492,-1.2276856,-0.11257324,-2.0093262,102.0
1376,0.021299839,-1.7723694,1.5003853,-1.2276856,-0.11257324,-2.0093262,102.0
1377,0.28968382,-3.4027557,2.241127,-1.2276856,-0.11257324,-2.0093262,102.0
1378,0.28968382,-3.4027557,2.241127,-0.632959,-0.3164795,-2.0645509,102.0
1379,0.28968382,-3.4027557,2.241127,-0.022302246,-0.46622315,-1.8903809,102.0
1380,0.28968382,-3.4027557,2.241127,0.72854006,-0.7657105,-1.5962037,102.0
1381,0.2957729,-3.0704498,1.5626526,0.72854006,-0.7657105,-1.5962037,102.0
1382,0.2957729,-3.0704498,1.5626526,1.6599244,-0.991919,-1.2234375,102.0
1383,0.5113741,-2.1343842,0.91124344,1.6599244,-0.991919,-1.2234375,102.0
1384,0.5113741,-2.1343842,0.91124344,2.4999757,-1.0280274,-0.6966797,102.0
1385,0.71322525,-0.747879,0.5923996,2.4999757,-1.0280274,-0.6966797,102.0
1386,0.71322525,-0.747879,0.5923996,2.9608886,-0.82836914,-0.10407715,102.0
1387,0.6140251,0.5271988,0.52088165,2.9608886,-0.82836914,-0.10407715,102.0
1388,0.6140251,0.5271988,0.52088165,2.897168,-0.45560303,0.5150757,102.0
1389,0.41596365,1.1577377,0.28580856,2.897168,-0.45560303,0.5150757,102.0
1390,0.41596365,1.1577377,0.28580856,2.5137818,-0.25594482,0.99935305,102.0
1391,0.780305,1.0564041,-0.30238342,2.5137818,-0.25594482,0.99935305,102.0
1392,0.780305,1.0564041,-0.30238342,2.1431396,-0.038232423,1.4390259,102.0
1393,1.6401864,0.48758698,-1.0720711,2.1431396,-0.038232423,1.4390259,102.0
1394,1.6401864,0.48758698,-1.0720711,2.078357,0.38338622,1.7852417,102.0
1395,2.168155,0.026618958,-1.7236366,2.078357,0.38338622,1.7852417,102.0
1396,2.168155,0.026618958,-1.7236366,2.1049073,0.86978763,2.0188844,102.0
1397,1.9329982,0.14126587,-2.078434,2.1049073,0.86978763,2.0188844,102.0
1398,1.9329982,0.14126587,-2.078434,2.079419,1.3285767,2.2174804,102.0
1399,1.0509884,0.6876068,-2.1248703,2.079419,1.3285767,2.2174804,102.0
1400,1.0509884,0.6876068,-2.1248703,2.1335816,1.7491333,2.3990846,102.0
1401,-0.018877268,1.3336945,-1.8314629,2.1335816,1.7491333,2.3990846,102.0
1402,-0.018877268,1.3336945,-1.8314629,2.0390625,2.092163,2.5891845,102.0
1403,-0.8379656,1.8434677,-1.2784042,2.0390625,2.092163,2.5891845,102.0
1404,-0.8379656,1.8434677,-1.2784042,1.724707,2.2546508,2.8132691,102.0
1405,-1.2155874,2.015213,-0.7757492,1.724707,2.2546508,2.8132691,102.0
1406,-1.2155874,2.015213,-0.7757492,1.360437,2.262085,3.0331056,102.0
1407,-1.0677335,1.8519669,-0.5233078,1.360437,2.262085,3.0331056,102.0
1408,-1.0677335,1.8519669,-0.5233078,0.9260742,2.2185426,3.2370117,102.0
1409,-0.4921019,1.4987488,-0.51394653,0.9260742,2.2185426,3.2370117,102.0
1410,-0.4921019,1.4987488,-0.51394653,0.45772704,2.1410158,3.443042,102.0
1411,0.25625744,1.0636826,-0.6760254,0.45772704,2.1410158,3.443042,102.0
1412,0.25625744,1.0636826,-0.6760254,0.026550293,2.0390625,3.5980957,102.0
1413,0.89071155,0.6234436,-0.9682007,0.026550293,2.0390625,3.5980957,102.0
1414,0.89071155,0.6234436,-0.9682007,-0.28568116,1.9211792,3.6554444,102.0
1415,1.2108237,0.23710632,-1.2564087,-0.28568116,1.9211792,3.6554444,102.0
1416,1.2108237,0.23710632,-1.2564087,-0.40356445,1.725769,3.5524292,102.0
1417,1.2984929,-0.10432434,-1.3660774,-0.40356445,1.725769,3.5524292,102.0
1418,1.2984929,-0.10432434,-1.3660774,-0.31860352,1.4708862,3.263562,102.0
1419,1.4154301,-0.43700027,-1.2561073,-0.31860352,1.4708862,3.263562,102.0
1420,1.4154301,-0.43700027,-1.2561073,0.010620117,1.2765381,2.8536255,102.0
1421,1.4154301,-0.43700027,-1.2561073,0.4322388,1.177771,2.3895264,102.0
1422,1.548323,-0.7025223,-1.0068512,0.4322388,1.177771,2.3895264,102.0
1423,2.2368395,-1.0904846,-0.79236984,0.4322388,1.177771,2.3895264,102.0
1424,2.2368395,-1.0904846,-0.79236984,0.81668705,1.0365235,1.8255981,102.0
1425,2.2368395,-1.0904846,-0.79236984,1.0460815,0.98236084,1.2468017,102.0
1426,2.2368395,-1.0904846,-0.79236984,1.0567017,1.0099732,0.7306641,102.0
1427,2.6820376,-0.8947754,-0.84503937,1.0567017,1.0099732,0.7306641,102.0
1428,3.066309,0.62244415,-1.7454529,1.0567017,1.0099732,0.7306641,102.0
1429,3.066309,0.62244415,-1.7454529,0.81031495,1.0917481,0.32072756,102.0
1430,3.066309,0.62244415,-1.7454529,0.20709229,1.0917481,0.015930176,102.0
1431,3.066309,0.62244415,-1.7454529,-0.71154785,0.98873293,-0.26656494,102.0
1432,2.2970657,0.9494324,-1.553894,-0.71154785,0.98873293,-0.26656494,102.0
1433,2.2970657,0.9494324,-1.553894,-1.6673584,0.8857178,-0.4800293,102.0
1434,1.6679993,0.9796295,-1.2320671,-1.6673584,0.8857178,-0.4800293,102.0
1435,1.6679993,0.9796295,-1.2320671,-2.442627,0.7104859,-0.6425171,102.0
1436,0.9305544,0.7859154,-0.6365204,-2.442627,0.7104859,-0.6425171,102.0
1437,0.9305544,0.7859154,-0.6365204,-2.895044,0.36320803,-0.815625,102.0
1438,0.9305544,0.7859154,-0.6365204,-2.895044,0.36320803,-0.815625,102.0
1439,0.25959253,0.40047455,0.33460617,-2.895044,0.36320803,-0.815625,102.0
1440,0.25959253,0.40047455,0.33460617,-2.9184082,-0.14655761,-1.085376,102.0
1441,0.30689287,-0.08281708,1.5249348,-2.9184082,-0.14655761,-1.085376,102.0
1442,0.30689287,-0.08281708,1.5249348,-2.521216,-0.5479981,-1.5218629,102.0
1443,0.994782,-0.6221237,2.5705452,-2.521216,-0.5479981,-1.5218629,102.0
1444,0.994782,-0.6221237,2.5705452,-1.5186768,-0.903772,-2.0188844,102.0
1445,1.4599495,-1.0290604,3.044899,-1.5186768,-0.903772,-2.0188844,102.0
1446,1.4599495,-1.0290604,3.044899,-0.18691407,-1.3083985,-2.5201538,102.0
1447,1.1851473,-1.1434021,2.7278404,-0.18691407,-1.3083985,-2.5201538,102.0
1448,1.1851473,-1.1434021,2.7278404,1.3211426,-1.7703736,-2.9577026,102.0
1449,0.12133551,-1.1153717,1.8523293,1.3211426,-1.7703736,-2.9577026,102.0
1450,0.12133551,-1.1153717,1.8523293,2.8557496,-2.162256,-3.2221437,102.0
1451,-1.5083637,-0.93679047,0.9072685,2.8557496,-2.162256,-3.2221437,102.0
1452,-1.5083637,-0.93679047,0.9072685,4.0271487,-2.360852,-3.1955934,102.0
1453,-3.2310686,-0.4226761,0.23767853,4.0271487,-2.360852,-3.1955934,102.0
1454,-3.2310686,-0.4226761,0.23767853,4.448767,-2.2737672,-2.8599975,102.0
1455,-4.6002846,0.41392517,-0.03289032,4.448767,-2.2737672,-2.8599975,102.0
1456,-4.6002846,0.41392517,-0.03289032,3.9177613,-2.1845582,-2.3619142,102.0
1457,-5.34368,1.2434235,0.044231415,3.9177613,-2.1845582,-2.3619142,102.0
1458,-5.34368,1.2434235,0.044231415,2.6465333,-2.1197755,-1.9785279,102.0
1459,-5.264922,1.8546677,0.29657745,2.6465333,-2.1197755,-1.9785279,102.0
1460,-5.264922,1.8546677,0.29657745,0.90270996,-1.9636596,-1.6567383,102.0
1461,-4.440502,2.0852127,0.44738388,0.90270996,-1.9636596,-1.6567383,102.0
1462,-4.440502,2.0852127,0.44738388,-0.83898926,-1.6896607,-1.3731812,102.0
1463,-3.3042817,1.7681351,0.3410492,-0.83898926,-1.6896607,-1.3731812,102.0
1464,-3.3042817,1.7681351,0.3410492,-2.2514648,-1.4337158,-1.2202514,102.0
1465,-2.2051442,1.1105766,0.15234375,-2.2514648,-1.4337158,-1.2202514,102.0
1466,-2.2051442,1.1105766,0.15234375,-3.2996705,-1.2149414,-1.2276856,102.0
1467,-1.2324624,0.37878418,0.03837967,-3.2996705,-1.2149414,-1.2276856,102.0
1468,-1.2324624,0.37878418,0.03837967,-3.815808,-1.0152832,-1.3869873,102.0
1469,-0.41337466,-0.41978836,0.045936584,-3.815808,-1.0152832,-1.3869873,102.0
1470,-0.41337466,-0.41978836,0.045936584,-3.8200562,-0.81987303,-1.6100098,102.0
1471,0.19685149,-1.2935486,0.24501419,-3.8200562,-0.81987303,-1.6100098,102.0
1472,0.19685149,-1.2935486,0.24501419,-3.3931274,-0.635083,-1.8670167,102.0
1473,0.54445624,-2.1086884,0.6253433,-3.3931274,-0.635083,-1.8670167,102.0
1474,0.54445624,-2.1086884,0.6253433,-2.6805177,-0.51082766,-2.1431396,102.0
1475,0.6864195,-2.7043686,1.0957832,-2.6805177,-0.51082766,-2.1431396,102.0
1476,0.6864195,-2.7043686,1.0957832,-1.8617066,-0.54375,-2.4171388,102.0
1477,0.81528544,-3.1073914,1.5478783,-1.8617066,-0.54375,-2.4171388,102.0
1478,0.81528544,-3.1073914,1.5478783,-0.97386473,-0.6435791,-2.614673,102.0
1479,0.96417904,-3.395424,1.8583832,-0.97386473,-0.6435791,-2.614673,102.0
1480,0.96417904,-3.395424,1.8583832,-0.020178223,-0.7497803,-2.6327271,102.0
1481,0.9355278,-3.366928,1.8526726,-0.020178223,-0.7497803,-2.6327271,102.0
1482,0.9355278,-3.366928,1.8526726,0.81881106,-0.72641605,-2.3385499,102.0
1483,0.5286102,-2.7385483,1.396553,0.81881106,-0.72641605,-2.3385499,102.0
1484,0.5286102,-2.7385483,1.396553,1.3806152,-0.67650145,-1.7714356,102.0
1485,0.029040456,-1.5927582,0.70745087,1.3806152,-0.67650145,-1.7714356,102.0
1486,0.029040456,-1.5927582,0.70745087,1.8181641,-0.83049315,-1.2468017,102.0
1487,0.07423341,-0.1348648,0.20597458,1.8181641,-0.83049315,-1.2468017,102.0
1488,0.07423341,-0.1348648,0.20597458,2.0263183,-0.721106,-0.6595093,102.0
1489,0.46225536,1.199501,0.09219742,2.0263183,-0.721106,-0.6595093,102.0
1490,0.46225536,1.199501,0.09219742,1.9381714,-0.39294434,0.004248047,102.0
1491,0.5123214,1.8243103,0.20038223,1.9381714,-0.39294434,0.004248047,102.0
1492,0.5123214,1.8243103,0.20038223,1.5271729,-0.04248047,0.5968506,102.0
1493,0.4271301,1.5245819,0.048381805,1.5271729,-0.04248047,0.5968506,102.0
1494,0.4271301,1.5245819,0.048381805,0.99085695,0.20178223,1.0726318,102.0
1495,0.8793628,0.5604782,-0.62734604,0.99085695,0.20178223,1.0726318,102.0
1496,0.8793628,0.5604782,-0.62734604,0.78376466,0.47578126,1.4730103,102.0
1497,1.7113028,-0.39273834,-1.5242882,0.78376466,0.47578126,1.4730103,102.0
1498,1.7113028,-0.39273834,-1.5242882,0.79013675,0.901648,1.7533814,102.0
1499,2.1787102,-0.70175934,-2.1632156,0.79013675,0.901648,1.7533814,102.0
1500,2.1787102,-0.70175934,-2.1632156,0.88040775,1.354065,1.9477295,102.0
1501,1.9023433,-0.29737854,-2.4004097,0.88040775,1.354065,1.9477295,102.0
1502,1.9023433,-0.29737854,-2.4004097,1.0651978,1.8510865,2.1218994,102.0
1503,0.98596156,0.48789978,-2.2904587,1.0651978,1.8510865,2.1218994,102.0
1504,0.98596156,0.48789978,-2.2904587,1.2510499,2.345984,2.3162477,102.0
1505,-0.15732455,1.3061905,-1.7605286,1.2510499,2.345984,2.3162477,102.0
1506,-0.15732455,1.3061905,-1.7605286,1.1575928,2.6677735,2.5552003,102.0
1507,-1.0821586,1.8622894,-0.98503494,1.1575928,2.6677735,2.5552003,102.0
1508,-1.0821586,1.8622894,-0.98503494,0.90695804,2.6975098,2.819641,102.0
1509,-1.4245524,2.0631866,-0.413002,0.90695804,2.6975098,2.819641,102.0
1510,-1.4245524,2.0631866,-0.413002,0.5129517,2.628479,3.071338,102.0
1511,-1.0895321,2.0094604,-0.24935913,0.5129517,2.628479,3.071338,102.0
1512,-1.0895321,2.0094604,-0.24935913,-0.004248047,2.535022,3.364453,102.0
1513,-0.40983373,1.7942505,-0.3674202,-0.004248047,2.535022,3.364453,102.0
1514,-0.40983373,1.7942505,-0.3674202,-0.5671143,2.3640382,3.6575685,102.0
1515,0.2639665,1.4448242,-0.59586334,-0.5671143,2.3640382,3.6575685,102.0
1516,0.2639665,1.4448242,-0.59586334,-0.99722904,2.1473877,3.8657227,102.0
1517,0.75845104,0.97654724,-0.8036423,-0.99722904,2.1473877,3.8657227,102.0
1518,0.75845104,0.97654724,-0.8036423,-1.1257324,1.8914429,3.9262574,102.0
1519,1.0447736,0.4818344,-0.92152786,-1.1257324,1.8914429,3.9262574,102.0
1520,1.0447736,0.4818344,-0.92152786,-1.0004151,1.6408081,3.802002,102.0
1521,1.1522496,0.08642197,-0.94290924,-1.0004151,1.6408081,3.802002,102.0
1522,1.1522496,0.08642197,-0.94290924,-0.725354,1.3901733,3.524817,102.0
1523,1.1522496,0.08642197,-0.94290924,-0.26656494,1.1650269,3.1095703,102.0
1524,1.1751322,-0.24204254,-0.8526192,-0.26656494,1.1650269,3.1095703,102.0
1525,1.8474666,-0.86815643,-0.7058258,-0.26656494,1.1650269,3.1095703,102.0
1526,1.8474666,-0.86815643,-0.7058258,0.26762697,1.0386475,2.6348512,102.0
1527,1.8474666,-0.86815643,-0.7058258,0.72854006,0.9589966,2.1229615,102.0
1528,1.8474666,-0.86815643,-0.7058258,0.9802368,0.8889038,1.5558472,102.0
1529,1.8474666,-0.86815643,-0.7058258,0.9802368,0.8889038,1.5558472,103.0
1530,2.0836864,-0.64346313,-0.6621208,0.9802368,0.8889038,1.5558472,103.0
1531,2.0836864,-0.64346313,-0.6621208,0.9696167,0.87615967,1.0131592,103.0
1532,2.3208065,-0.2657013,-0.74544334,0.9696167,0.87615967,1.0131592,103.0
1533,2.3208065,-0.2657013,-0.74544334,0.7349121,0.92076415,0.5033936,103.0
1534,2.124199,0.21479797,-0.82816505,0.7349121,0.92076415,0.5033936,103.0
1535,2.124199,0.21479797,-0.82816505,0.23789063,0.90058595,0.032922365,103.0
1536,1.5432191,0.64115906,-0.77352905,0.23789063,0.90058595,0.032922365,103.0
1537,1.5432191,0.64115906,-0.77352905,-0.48427734,0.721106,-0.4619751,103.0
1538,1.040215,0.8069229,-0.5974846,-0.48427734,0.721106,-0.4619751,103.0
1539,1.040215,0.8069229,-0.5974846,-1.1979493,0.54375,-0.9143921,103.0
1540,0.69823647,0.66664505,-0.34529686,-1.1979493,0.54375,-0.9143921,103.0
1541,0.69823647,0.66664505,-0.34529686,-1.720459,0.33878174,-1.3774292,103.0
1542,0.30802774,0.38661194,0.023529053,-1.720459,0.33878174,-1.3774292,103.0
1543,0.30802774,0.38661194,0.023529053,-2.0656128,0.046728518,-1.8213501,103.0
1544,-0.119300365,0.04664612,0.6158066,-2.0656128,0.046728518,-1.8213501,103.0
1545,-0.119300365,0.04664612,0.6158066,-2.0369384,-0.38232422,-2.256775,103.0
1546,-0.24019146,-0.42811203,1.4210873,-2.0369384,-0.38232422,-2.256775,103.0
1547,-0.24019146,-0.42811203,1.4210873,-1.537793,-0.8793457,-2.7591064,103.0
1548,0.31449986,-0.9330902,0.97480774,-1.537793,-0.8793457,-2.7591064,103.0
1549,0.31449986,-0.9330902,0.97480774,-0.65844727,-1.2956543,-3.2996705,103.0
1550,1.1644049,-1.2612915,2.5722313,-0.65844727,-1.2956543,-3.2996705,103.0
1551,1.1644049,-1.2612915,2.5722313,0.41737062,-1.6567383,-3.722351,103.0
1552,1.5644464,-1.2253342,1.9964447,0.41737062,-1.6567383,-3.722351,103.0
1553,1.5644464,-1.2253342,1.9964447,1.4921265,-1.992334,-3.976172,103.0
1554,1.2465644,-0.8120804,0.791893,1.4921265,-1.992334,-3.976172,103.0
1555,1.2465644,-0.8120804,0.791893,2.4160767,-2.2196045,-4.015466,103.0
1556,0.20427036,-0.3137741,-0.41301727,2.4160767,-2.2196045,-4.015466,103.0
1557,0.20427036,-0.3137741,-0.41301727,3.1509888,-2.253589,-3.8179321,103.0
1558,-1.4089103,0.08734894,-0.8799248,3.1509888,-2.253589,-3.8179321,103.0
1559,-1.4089103,0.08734894,-0.8799248,3.4058716,-2.0942872,-3.3856933,103.0
1560,-3.1836958,0.5009308,-0.49058533,3.4058716,-2.0942872,-3.3856933,103.0
1561,-3.1836958,0.5009308,-0.49058533,2.9035401,-1.9137452,-2.7824707,103.0
1562,-4.653768,0.99946594,0.26616287,2.9035401,-1.9137452,-2.7824707,103.0
1563,-4.653768,0.99946594,0.26616287,1.6801026,-1.7820557,-2.1431396,103.0
1564,-5.461137,1.3440323,0.80046463,1.6801026,-1.7820557,-2.1431396,103.0
1565,-5.461137,1.3440323,0.80046463,0.35046387,-1.7544434,-1.6885986,103.0
1566,-5.294349,1.3024101,0.84713364,0.35046387,-1.7544434,-1.6885986,103.0
1567,-5.294349,1.3024101,0.84713364,-0.60959476,-1.6599244,-1.3349488,103.0
1568,-4.348065,1.0359344,0.67245865,-0.60959476,-1.6599244,-1.3349488,103.0
1569,-4.348065,1.0359344,0.67245865,-1.26167,-1.4793824,-1.0386475,103.0
1570,-3.1983373,0.772316,0.6199875,-1.26167,-1.4793824,-1.0386475,103.0
1571,-3.1983373,0.772316,0.6199875,-1.7661256,-1.2956543,-0.7965088,103.0
1572,-2.179544,0.5900192,0.73088837,-1.7661256,-1.2956543,-0.7965088,103.0
1573,-2.179544,0.5900192,0.73088837,-2.2387207,-1.09281,-0.6085327,103.0
1574,-1.4044385,0.37172318,0.8436699,-2.2387207,-1.09281,-0.6085327,103.0
1575,-1.4044385,0.37172318,0.8436699,-2.5626342,-0.9409424,-0.5522461,103.0
1576,-0.8291173,-0.04333496,0.90470886,-2.5626342,-0.9409424,-0.5522461,103.0
1577,-0.8291173,-0.04333496,0.90470886,-2.628479,-0.8071289,-0.6244629,103.0
1578,-0.3515873,-0.5970001,0.97415924,-2.628479,-0.8071289,-0.6244629,103.0
1579,-0.3515873,-0.5970001,0.97415924,-2.53396,-0.6531372,-0.77314454,103.0
1580,-0.030036926,-1.1730804,1.1644478,-2.53396,-0.6531372,-0.77314454,103.0
1581,-0.030036926,-1.1730804,1.1644478,-2.3109376,-0.54587406,-1.0078491,103.0
1582,0.16356802,-1.7158432,1.532547,-2.3109376,-0.54587406,-1.0078491,103.0
1583,0.16356802,-1.7158432,1.532547,-1.9700317,-0.48746338,-1.3402588,103.0
1584,0.37730217,-2.1811676,2.0258675,-1.9700317,-0.48746338,-1.3402588,103.0
1585,0.37730217,-2.1811676,2.0258675,-1.537793,-0.41418457,-1.6801026,103.0
1586,0.37730217,-2.1811676,2.0258675,-1.089624,-0.36320803,-1.9296753,103.0
1587,0.61611176,-2.4471817,2.41885,-1.089624,-0.36320803,-1.9296753,103.0
1588,1.2315369,-3.2360077,2.3286476,-1.089624,-0.36320803,-1.9296753,103.0
