,accx,accy,accz,gyrox,gyroy,gyroz,heart rate
0,walk,walk,walk,walk,walk,walk,walk
1,-0.49327394,-0.75667727,0.036608886,0.0,0.0,0.0,0.0
2,-0.49327394,-0.75667727,0.036608886,1.3806152,-0.07965088,-0.40250245,0.0
3,-0.2811548,-0.5662427,-0.37688965,1.3806152,-0.07965088,-0.40250245,0.0
4,-0.2811548,-0.5662427,-0.37688965,1.1044922,-0.023364259,-0.43754885,0.0
5,-0.2811548,-0.5662427,-0.37688965,0.18054199,0.21134034,-0.35789797,0.0
6,0.027737305,0.16087303,-0.31423146,0.18054199,0.21134034,-0.35789797,0.0
7,0.012924716,0.49562958,0.02858311,0.18054199,0.21134034,-0.35789797,0.0
8,0.012924716,0.49562958,0.02858311,-0.095581055,0.24851075,-0.33878174,0.0
9,-0.14033161,0.34225562,0.25871855,-0.095581055,0.24851075,-0.33878174,0.0
10,-0.14033161,0.34225562,0.25871855,-0.19753419,0.26125488,-0.22302246,0.0
11,-0.15198696,0.13208087,0.17610326,-0.19753419,0.26125488,-0.22302246,0.0
12,-0.15198696,0.13208087,0.17610326,-0.38551027,0.24638672,-0.022302246,0.0
13,-0.09601584,-0.047728863,-0.10317257,-0.38551027,0.24638672,-0.022302246,0.0
14,-0.09601584,-0.047728863,-0.10317257,-0.39400634,0.14655761,0.16567384,0.0
15,-0.089923024,-0.2083247,-0.3582949,-0.39400634,0.14655761,0.16567384,0.0
16,-0.089923024,-0.2083247,-0.3582949,-0.12956543,-0.009558106,0.26656494,0.0
17,-0.08674556,-0.24494345,-0.41334492,-0.12956543,-0.009558106,0.26656494,0.0
18,-0.08674556,-0.24494345,-0.41334492,0.08283692,-0.1444336,0.32816163,0.0
19,-0.016857386,-0.055744797,-0.24266326,0.08283692,-0.1444336,0.32816163,0.0
20,-0.016857386,-0.055744797,-0.24266326,-0.045666505,-0.14761963,0.29417726,0.0
21,0.039761156,0.15917614,0.021933854,-0.045666505,-0.14761963,0.29417726,0.0
22,0.039761156,0.15917614,0.021933854,-0.13699952,-0.13381349,0.16142578,0.0
23,0.020590663,0.14675009,0.20082346,-0.13699952,-0.13381349,0.16142578,0.0
24,0.020590663,0.14675009,0.20082346,-0.045666505,-0.17523193,0.06796875,0.0
25,-0.023712993,0.025578782,0.21450397,-0.045666505,-0.17523193,0.06796875,0.0
26,-0.023712993,0.025578782,0.21450397,-0.060534667,-0.18372802,0.03079834,0.0
27,-0.040064126,-0.016255729,0.13702066,-0.060534667,-0.18372802,0.03079834,0.0
28,-0.040064126,-0.016255729,0.13702066,-0.10513916,-0.18372802,0.022302246,0.0
29,-0.0436846,0.02052813,0.088156566,-0.10513916,-0.18372802,0.022302246,0.0
30,-0.0436846,0.02052813,0.088156566,-0.20921631,-0.16461182,0.045666505,0.0
31,-0.0436846,0.02052813,0.088156566,-0.10407715,-0.19328614,0.047790527,0.0
32,-0.085838795,0.009391256,0.09901647,-0.10407715,-0.19328614,0.047790527,0.0
33,-0.1174137,-0.043439142,0.13718438,-0.10407715,-0.19328614,0.047790527,0.0
34,-0.1174137,-0.043439142,0.13718438,0.020178223,-0.23789063,0.10301514,0.0
35,-0.03318879,0.0065206587,0.17390767,0.020178223,-0.23789063,0.10301514,0.0
36,-0.03318879,0.0065206587,0.17390767,-0.12319336,-0.1985962,0.18691407,0.0
37,0.08853686,0.106461644,0.19953874,-0.12319336,-0.1985962,0.18691407,0.0
38,0.08853686,0.106461644,0.19953874,-0.3334717,-0.11363526,0.2824951,0.0
39,0.08853686,0.106461644,0.19953874,-0.3812622,-0.07646485,0.38551027,0.0
40,0.05685243,0.14395839,0.16114466,-0.3812622,-0.07646485,0.38551027,0.0
41,-0.019471645,0.19563545,0.07096895,-0.3812622,-0.07646485,0.38551027,0.0
42,-0.019471645,0.19563545,0.07096895,-0.21452637,0.033984374,-0.17735596,0.0
43,0.08842659,0.3185323,-0.025939684,-0.21452637,0.033984374,-0.17735596,0.0
44,0.08842659,0.3185323,-0.025939684,-0.25063476,-0.011682129,0.10089111,0.0
45,0.2763443,0.31295574,-0.093249306,-0.25063476,-0.011682129,0.10089111,0.0
46,0.2763443,0.31295574,-0.093249306,-0.26550293,0.03717041,0.03079834,0.0
47,0.33213502,0.11375569,-0.05736312,-0.26550293,0.03717041,0.03079834,0.0
48,0.33213502,0.11375569,-0.05736312,-0.17416993,0.020178223,-0.022302246,0.0
49,0.33213502,0.11375569,-0.05736312,-0.17416993,0.020178223,-0.022302246,89.0
50,0.2745459,-0.074742526,0.07174867,-0.17416993,0.020178223,-0.022302246,89.0
51,0.2745459,-0.074742526,0.07174867,-0.16248779,0.004248047,-0.06690674,89.0
52,0.17373829,-0.13905427,0.22049707,-0.16248779,0.004248047,-0.06690674,89.0
53,0.17373829,-0.13905427,0.22049707,-0.18479005,0.02442627,-0.11363526,89.0
54,0.09265274,-0.15659253,0.29303586,-0.18479005,0.02442627,-0.11363526,89.0
55,0.09265274,-0.15659253,0.29303586,-0.18479005,0.04991455,-0.12956543,89.0
56,0.06357531,-0.13429502,0.22374752,-0.18479005,0.04991455,-0.12956543,89.0
57,0.06357531,-0.13429502,0.22374752,-0.1985962,0.083898924,-0.11257324,89.0
58,0.06357531,-0.13429502,0.22374752,-0.2888672,0.121069334,-0.107263185,89.0
59,0.0077328123,0.02857472,0.010077119,-0.2888672,0.121069334,-0.107263185,89.0
60,-0.13264433,0.25136322,-0.22672835,-0.2888672,0.121069334,-0.107263185,89.0
61,-0.13264433,0.25136322,-0.22672835,-0.38657227,0.13699952,-0.11151123,89.0
62,-0.35123265,0.34336352,-0.3617538,-0.38657227,0.13699952,-0.11151123,89.0
63,-0.35123265,0.34336352,-0.3617538,-0.4322388,0.115759276,-0.087084964,89.0
64,-0.6005662,0.28936368,-0.33488643,-0.4322388,0.115759276,-0.087084964,89.0
65,-0.6005662,0.28936368,-0.33488643,-0.46516114,0.11044922,-0.06478272,89.0
66,-0.7865687,0.15163255,-0.23204489,-0.46516114,0.11044922,-0.06478272,89.0
67,-0.7865687,0.15163255,-0.23204489,-0.38444826,0.093457036,-0.027612304,89.0
68,-0.80385214,0.029167354,-0.16435906,-0.38444826,0.093457036,-0.027612304,89.0
69,-0.80385214,0.029167354,-0.16435906,-0.28674316,0.08071289,-0.0053100586,89.0
70,-0.6470124,0.053692758,-0.2137016,-0.28674316,0.08071289,-0.0053100586,89.0
71,-0.6470124,0.053692758,-0.2137016,-0.32285157,0.10407715,-0.039294433,89.0
72,-0.41563237,0.1646339,-0.33778256,-0.32285157,0.10407715,-0.039294433,89.0
73,-0.41563237,0.1646339,-0.33778256,-0.4428589,0.15186767,-0.098767094,89.0
74,-0.22607279,0.2033624,-0.44081932,-0.4428589,0.15186767,-0.098767094,89.0
75,-0.22607279,0.2033624,-0.44081932,-0.61065674,0.20921631,-0.17523193,89.0
76,-0.105382204,0.13600534,-0.48002362,-0.61065674,0.20921631,-0.17523193,89.0
77,-0.105382204,0.13600534,-0.48002362,-0.77739257,0.25913087,-0.26019287,89.0
78,-0.028592825,0.042752028,-0.48194373,-0.77739257,0.25913087,-0.26019287,89.0
79,-0.028592825,0.042752028,-0.48194373,-0.998291,0.3154175,-0.3695801,89.0
80,-0.024107218,-0.11101323,-0.4831136,-0.998291,0.3154175,-0.3695801,89.0
81,-0.024107218,-0.11101323,-0.4831136,-1.1299804,0.35046387,-0.4439209,89.0
82,-0.08477652,-0.32920367,-0.4795695,-1.1299804,0.35046387,-0.4439209,89.0
83,-0.08477652,-0.32920367,-0.4795695,-1.177771,0.3695801,-0.52675784,89.0
84,-0.08477652,-0.32920367,-0.4795695,-1.26167,0.3706421,-0.6138428,89.0
85,-0.09776509,-0.39184195,-0.47502524,-1.26167,0.3706421,-0.6138428,89.0
86,-0.019227743,-0.11325383,-0.5301423,-1.26167,0.3706421,-0.6138428,89.0
87,-0.019227743,-0.11325383,-0.5301423,-1.5600952,0.39613038,-0.77526855,89.0
88,0.109300375,0.42378902,-0.66141856,-1.5600952,0.39613038,-0.77526855,89.0
89,0.109300375,0.42378902,-0.66141856,-2.0911012,0.44498292,-1.0269654,89.0
90,0.20658088,0.90004194,-0.81657386,-2.0911012,0.44498292,-1.0269654,89.0
91,0.20658088,0.90004194,-0.81657386,-2.732556,0.44923097,-1.3147706,89.0
92,0.2696104,1.0896624,-0.9440305,-2.732556,0.44923097,-1.3147706,89.0
93,0.2696104,1.0896624,-0.9440305,-3.2879884,0.41843262,-1.6832886,89.0
94,0.39699936,1.0416397,-0.98974586,-3.2879884,0.41843262,-1.6832886,89.0
95,0.39699936,1.0416397,-0.98974586,-3.787134,0.43117675,-2.1144655,89.0
96,0.62842715,0.8379016,-0.9684813,-3.787134,0.43117675,-2.1144655,89.0
97,0.62842715,0.8379016,-0.9684813,-4.2076907,0.4725952,-2.5743165,89.0
98,0.8439282,0.46432757,-0.9126146,-4.2076907,0.4725952,-2.5743165,89.0
99,0.8439282,0.46432757,-0.9126146,-4.393543,0.41206056,-2.9577026,89.0
100,0.8560874,0.052296996,-0.8455825,-4.393543,0.41206056,-2.9577026,89.0
101,0.8560874,0.052296996,-0.8455825,-4.268225,0.16673584,-3.2232056,89.0
102,0.6753118,-0.24217117,-0.66648054,-4.268225,0.16673584,-3.2232056,89.0
103,0.6753118,-0.24217117,-0.66648054,-3.805188,-0.22727051,-3.5099487,89.0
104,0.51255167,-0.19273591,-0.22750807,-3.805188,-0.22727051,-3.5099487,89.0
105,0.51255167,-0.19273591,-0.22750807,-3.3793213,-0.6265869,-3.8657227,89.0
106,0.51486313,0.17680502,0.441602,-3.3793213,-0.6265869,-3.8657227,89.0
107,0.51486313,0.17680502,0.441602,-3.1977174,-0.8729736,-4.2554812,89.0
108,0.668226,0.3771863,1.0941262,-3.1977174,-0.8729736,-4.2554812,89.0
109,0.668226,0.3771863,1.0941262,-3.2359498,-1.0333375,-4.6654177,89.0
110,0.8913435,0.11992526,1.5176837,-3.2359498,-1.0333375,-4.6654177,89.0
111,0.8913435,0.11992526,1.5176837,-3.345337,-1.081128,-5.1125245,89.0
112,1.1749889,-0.43433332,1.679418,-3.345337,-1.081128,-5.1125245,89.0
113,1.1749889,-0.43433332,1.679418,-3.3910034,-1.085376,-5.588306,89.0
114,1.5616829,-0.9790096,1.6972452,-3.3910034,-1.085376,-5.588306,89.0
115,1.5616829,-0.9790096,1.6972452,-3.348523,-1.0290893,-6.084265,89.0
116,2.1096249,-1.4506638,1.6648275,-3.348523,-1.0290893,-6.084265,89.0
117,2.1096249,-1.4506638,1.6648275,-3.2040894,-0.9165161,-6.5005736,89.0
118,2.8311203,-2.0217128,1.6084733,-3.2040894,-0.9165161,-6.5005736,89.0
119,2.8311203,-2.0217128,1.6084733,-2.9173462,-0.7742066,-6.7374024,89.0
120,3.5429847,-2.7868648,1.5996938,-2.9173462,-0.7742066,-6.7374024,89.0
121,3.5429847,-2.7868648,1.5996938,-2.4128907,-0.5586182,-6.7501464,89.0
122,3.8637824,-3.5780027,1.5653385,-2.4128907,-0.5586182,-6.7501464,89.0
123,3.8637824,-3.5780027,1.5653385,-1.5059327,-0.37807617,-6.346582,89.0
124,3.1882186,-3.856738,1.3373417,-1.5059327,-0.37807617,-6.346582,89.0
125,3.1882186,-3.856738,1.3373417,-0.45347902,-0.3154175,-5.6477785,89.0
126,1.5057874,-3.2505884,0.958948,-0.45347902,-0.3154175,-5.6477785,89.0
127,1.5057874,-3.2505884,0.958948,0.4078125,-0.40993652,-4.770557,89.0
128,-0.33227205,-2.1022897,0.72615504,0.4078125,-0.40993652,-4.770557,89.0
129,-0.33227205,-2.1022897,0.72615504,0.97492677,-0.5278198,-3.7680175,89.0
130,-1.6644015,-0.97011304,0.7569983,0.97492677,-0.5278198,-3.7680175,89.0
131,-1.6644015,-0.97011304,0.7569983,0.9611206,-0.57561034,-2.8185792,89.0
132,-2.2913356,-0.12926412,0.76457083,0.9611206,-0.57561034,-2.8185792,89.0
133,-2.2913356,-0.12926412,0.76457083,0.21346436,-0.5299439,-2.0539308,89.0
134,-1.9720821,0.08175707,0.44893694,0.21346436,-0.5299439,-2.0539308,89.0
135,-1.9720821,0.08175707,0.44893694,-0.6435791,-0.4163086,-1.5664673,89.0
136,-1.0943894,-0.3153193,-0.0832088,-0.6435791,-0.4163086,-1.5664673,89.0
137,-1.0943894,-0.3153193,-0.0832088,-1.3338867,-0.3695801,-1.173523,89.0
138,-0.6038685,-0.8660736,-0.6099386,-1.3338867,-0.3695801,-1.173523,89.0
139,-0.6038685,-0.8660736,-0.6099386,-1.896753,-0.2888672,-0.8442993,89.0
140,-0.9060073,-1.3086791,-0.8619255,-1.896753,-0.2888672,-0.8442993,89.0
141,-0.9060073,-1.3086791,-0.8619255,-1.9657837,-0.16461182,-0.5278198,89.0
142,-2.0002453,-1.2749462,-0.7924212,-1.9657837,-0.16461182,-0.5278198,89.0
143,-2.0002453,-1.2749462,-0.7924212,-2.247217,0.121069334,-0.26337892,89.0
144,-3.2867687,-0.82742786,-0.66723776,-2.247217,0.121069334,-0.26337892,89.0
145,-3.2867687,-0.82742786,-0.66723776,-2.4681153,0.30054933,-0.06690674,89.0
146,-3.83857,-0.43553877,-0.7144543,-2.4681153,0.30054933,-0.06690674,89.0
147,-3.83857,-0.43553877,-0.7144543,-2.34386,0.34940186,0.15717773,89.0
148,-3.83857,-0.43553877,-0.7144543,-2.34386,0.34940186,0.15717773,88.0
149,-3.34466,-0.14342594,-0.85685396,-2.34386,0.34940186,0.15717773,88.0
150,-3.34466,-0.14342594,-0.85685396,-1.9041871,0.2793091,0.40356445,88.0
151,-2.2867022,0.2971859,-0.9280003,-1.9041871,0.2793091,0.40356445,88.0
152,-2.2867022,0.2971859,-0.9280003,-1.5016845,0.20390625,0.65632325,88.0
153,-1.3080604,0.93800545,-0.94269323,-1.5016845,0.20390625,0.65632325,88.0
154,-1.3080604,0.93800545,-0.94269323,-1.3487549,0.10301514,0.8315552,88.0
155,-0.67487854,1.4147964,-0.8598431,-1.3487549,0.10301514,0.8315552,88.0
156,-0.67487854,1.4147964,-0.8598431,-1.2754761,-0.0053100586,0.99722904,88.0
157,-0.32158005,1.4135633,-0.5332724,-1.2754761,-0.0053100586,0.99722904,88.0
158,-0.32158005,1.4135633,-0.5332724,-0.9876709,-0.13487549,1.1809571,88.0
159,-0.047852397,1.1243076,0.01957348,-0.9876709,-0.13487549,1.1809571,88.0
160,-0.047852397,1.1243076,0.01957348,-0.48533937,-0.23364258,1.4167236,88.0
161,0.1789422,1.1437943,0.50723594,-0.48533937,-0.23364258,1.4167236,88.0
162,0.1789422,1.1437943,0.50723594,-0.014868164,-0.27506104,1.5664673,88.0
163,0.21092725,1.7105799,0.6142483,-0.014868164,-0.27506104,1.5664673,88.0
164,0.21092725,1.7105799,0.6142483,0.13487549,-0.270813,1.621692,88.0
165,-0.0076497793,2.3261788,0.35239714,0.13487549,-0.270813,1.621692,88.0
166,-0.0076497793,2.3261788,0.35239714,0.05522461,-0.25063476,1.5898316,88.0
167,-0.24423015,2.3680234,0.08870482,0.05522461,-0.25063476,1.5898316,88.0
168,-0.24423015,2.3680234,0.08870482,0.016992187,-0.2538208,1.536731,88.0
169,-0.24439538,1.9225681,0.07272167,0.016992187,-0.2538208,1.536731,88.0
170,-0.24439538,1.9225681,0.07272167,0.11151123,-0.29630128,1.5048707,88.0
171,-0.06924677,1.4580984,0.1851793,0.11151123,-0.29630128,1.5048707,88.0
172,-0.06924677,1.4580984,0.1851793,0.32497558,-0.3812622,1.4900025,88.0
173,0.1097393,1.0928338,0.25920302,0.32497558,-0.3812622,1.4900025,88.0
174,0.1097393,1.0928338,0.25920302,0.8262451,-0.4970215,1.4369019,88.0
175,0.26830906,0.80263615,0.26902014,0.8262451,-0.4970215,1.4369019,88.0
176,0.26830906,0.80263615,0.26902014,1.4103516,-0.5713623,1.4018555,88.0
177,0.44247925,0.63622516,0.25967413,1.4103516,-0.5713623,1.4018555,88.0
178,0.44247925,0.63622516,0.25967413,1.8383423,-0.56605226,1.3147706,88.0
179,0.5496133,0.6084186,0.25284427,1.8383423,-0.56605226,1.3147706,88.0
180,0.5496133,0.6084186,0.25284427,2.071985,-0.53950197,1.2807862,88.0
181,0.47583568,0.6538491,0.22539556,2.071985,-0.53950197,1.2807862,88.0
182,0.47583568,0.6538491,0.22539556,2.0518067,-0.4364868,1.1044922,88.0
183,0.36112505,0.6841267,0.121014714,2.0518067,-0.4364868,1.1044922,88.0
184,0.36112505,0.6841267,0.121014714,1.628064,-0.3334717,0.905896,88.0
185,0.4855187,0.05755526,-0.4565818,1.628064,-0.3334717,0.905896,88.0
186,0.4855187,0.05755526,-0.4565818,1.0620117,-0.2538208,0.6775635,88.0
187,0.83876896,-0.16200022,-0.3373724,1.0620117,-0.2538208,0.6775635,88.0
188,0.83876896,-0.16200022,-0.3373724,0.5012695,-0.13699952,0.4078125,88.0
189,1.2491035,-0.59811825,-0.053674772,0.5012695,-0.13699952,0.4078125,88.0
190,1.2491035,-0.59811825,-0.053674772,0.17629395,-0.08496094,0.21558838,88.0
191,1.5330842,-1.0378574,0.16864467,0.17629395,-0.08496094,0.21558838,88.0
192,1.5330842,-1.0378574,0.16864467,0.11682129,-0.019116212,0.040356446,88.0
193,1.5131617,-1.2065189,0.106229216,0.11682129,-0.019116212,0.040356446,88.0
194,1.5131617,-1.2065189,0.106229216,0.07434082,0.020178223,-0.083898924,88.0
195,1.1062691,-0.98105985,-0.12984818,0.07434082,0.020178223,-0.083898924,88.0
196,1.1062691,-0.98105985,-0.12984818,-0.1720459,-0.015930176,-0.1720459,88.0
197,0.50584054,-0.63800955,-0.16382729,-0.1720459,-0.015930176,-0.1720459,88.0
198,0.50584054,-0.63800955,-0.16382729,-0.58198243,0.0180542,-0.31116945,88.0
199,-0.18242466,-0.5214795,0.13251239,-0.58198243,0.0180542,-0.31116945,88.0
200,-0.18242466,-0.5214795,0.13251239,-0.61065674,-0.0541626,-0.23258057,88.0
201,-0.8880174,-0.7081015,0.3113566,-0.61065674,-0.0541626,-0.23258057,88.0
202,-0.8880174,-0.7081015,0.3113566,-0.17629395,-0.16567384,-0.26125488,88.0
203,-1.1881484,-0.94232345,-0.013475746,-0.17629395,-0.16567384,-0.26125488,88.0
204,-1.1881484,-0.94232345,-0.013475746,0.4895874,-0.25913087,-0.18160401,88.0
205,-0.94872427,-1.0191419,-0.5971576,0.4895874,-0.25913087,-0.18160401,88.0
206,-0.94872427,-1.0191419,-0.5971576,1.3328247,-0.34727785,-0.019116212,88.0
207,-0.26801264,-0.9652891,-0.96952295,1.3328247,-0.34727785,-0.019116212,88.0
208,-0.26801264,-0.9652891,-0.96952295,2.1558838,-0.4248047,0.08814698,88.0
209,0.6536685,-0.7870507,-0.9293537,2.1558838,-0.4248047,0.08814698,88.0
210,0.6536685,-0.7870507,-0.9293537,2.70813,-0.4439209,0.24532472,88.0
211,1.3076516,-0.5245259,-0.62733305,2.70813,-0.4439209,0.24532472,88.0
212,1.3076516,-0.5245259,-0.62733305,2.984253,-0.41524658,0.41949463,88.0
213,1.4073884,-0.19604874,-0.31983525,2.984253,-0.41524658,0.41949463,88.0
214,1.4073884,-0.19604874,-0.31983525,2.984253,-0.32178956,0.53737795,88.0
215,0.8921094,0.24401546,-0.1461758,2.984253,-0.32178956,0.53737795,88.0
216,0.8921094,0.24401546,-0.1461758,2.4713013,-0.12531738,0.630835,88.0
217,-0.17420316,0.7551122,-0.15149873,2.4713013,-0.12531738,0.630835,88.0
218,-0.17420316,0.7551122,-0.15149873,1.6960328,0.035046387,0.8485474,88.0
219,-1.4134715,1.2026858,-0.35812527,1.6960328,0.035046387,0.8485474,88.0
220,-1.4134715,1.2026858,-0.35812527,0.8496094,0.1539917,1.0503296,88.0
221,-2.3581088,1.4874904,-0.6589612,0.8496094,0.1539917,1.0503296,88.0
222,-2.3581088,1.4874904,-0.6589612,0.1274414,0.23045655,1.2552979,88.0
223,-2.7426393,1.5806662,-0.86466897,0.1274414,0.23045655,1.2552979,88.0
224,-2.7426393,1.5806662,-0.86466897,-0.36320803,0.22727051,1.44646,88.0
225,-2.564827,1.4947698,-0.8958856,-0.36320803,0.22727051,1.44646,88.0
226,-2.564827,1.4947698,-0.8958856,-0.6924316,0.18479005,1.6089478,88.0
227,-2.0283995,1.2896879,-0.82162786,-0.6924316,0.18479005,1.6089478,88.0
228,-2.0283995,1.2896879,-0.82162786,-0.86553955,0.13487549,1.7236451,88.0
229,-1.3539696,1.036328,-0.7278712,-0.86553955,0.13487549,1.7236451,88.0
230,-1.3539696,1.036328,-0.7278712,-0.8209351,0.057348635,1.7332032,88.0
231,-0.6692841,0.8119115,-0.6444918,-0.8209351,0.057348635,1.7332032,88.0
232,-0.6692841,0.8119115,-0.6444918,-0.6796875,-0.009558106,1.6546143,88.0
233,0.028976917,0.5848564,-0.5169972,-0.6796875,-0.009558106,1.6546143,88.0
234,0.028976917,0.5848564,-0.5169972,-0.4598511,-0.047790527,1.4655762,88.0
235,0.721619,0.31988704,-0.32817292,-0.4598511,-0.047790527,1.4655762,88.0
236,0.721619,0.31988704,-0.32817292,-0.20496826,-0.029736329,1.2117554,88.0
237,1.3003665,0.08252098,-0.111195564,-0.20496826,-0.029736329,1.2117554,88.0
238,1.3003665,0.08252098,-0.111195564,0.009558106,0.004248047,0.9526245,88.0
239,1.7302469,-0.060863107,0.094625235,0.009558106,0.004248047,0.9526245,88.0
240,1.7302469,-0.060863107,0.094625235,0.21452637,0.040356446,0.6701294,88.0
241,2.109869,-0.06957671,0.28492868,0.21452637,0.040356446,0.6701294,88.0
242,2.109869,-0.06957671,0.28492868,0.42799073,0.09239502,0.4056885,88.0
243,2.4989548,0.019912362,0.4327892,0.42799073,0.09239502,0.4056885,88.0
244,2.4989548,0.019912362,0.4327892,0.6531372,0.10938721,0.17629395,88.0
245,2.7009583,0.25766572,0.44698822,0.6531372,0.10938721,0.17629395,88.0
246,2.7009583,0.25766572,0.44698822,0.55755615,0.07115479,0.0010620117,88.0
247,2.389502,0.7008591,0.3689797,0.55755615,0.07115479,0.0010620117,88.0
248,2.389502,0.7008591,0.3689797,0.090270996,0.021240234,-0.23682861,88.0
249,2.389502,0.7008591,0.3689797,0.090270996,0.021240234,-0.23682861,87.0
250,1.6427417,1.1096498,0.41337216,0.090270996,0.021240234,-0.23682861,87.0
251,1.6427417,1.1096498,0.41337216,-0.42055663,-0.058410645,-0.4704712,87.0
252,1.176681,1.0141237,0.660666,-0.42055663,-0.058410645,-0.4704712,87.0
253,1.176681,1.0141237,0.660666,-0.7614624,-0.12000733,-0.7763306,87.0
254,1.1734128,0.41886735,0.95625496,-0.7614624,-0.12000733,-0.7763306,87.0
255,1.1734128,0.41886735,0.95625496,-0.96643066,-0.0637207,-1.0779419,87.0
256,0.6280613,-0.1143446,1.1172501,-0.96643066,-0.0637207,-1.0779419,87.0
257,0.6280613,-0.1143446,1.1172501,-1.1151123,0.0180542,-1.2595459,87.0
258,-0.69801474,-0.32283556,1.0246594,-1.1151123,0.0180542,-1.2595459,87.0
259,-0.69801474,-0.32283556,1.0246594,-0.9685547,0.029736329,-1.3307008,87.0
260,-1.6352427,-0.35028505,0.76551616,-0.9685547,0.029736329,-1.3307008,87.0
261,-1.6352427,-0.35028505,0.76551616,-0.6159668,-0.007434082,-1.3455689,87.0
262,-1.3074007,-0.40627784,0.54699546,-0.6159668,-0.007434082,-1.3455689,87.0
263,-1.3074007,-0.40627784,0.54699546,-0.20178223,-0.026550293,-1.3699951,87.0
264,-0.30210948,-0.46761262,0.40667596,-0.20178223,-0.026550293,-1.3699951,87.0
265,-0.30210948,-0.46761262,0.40667596,0.012744141,0.011682129,-1.3402588,87.0
266,0.26113224,-0.40790358,0.24258931,0.012744141,0.011682129,-1.3402588,87.0
267,0.26113224,-0.40790358,0.24258931,-0.032922365,0.04991455,-1.3179566,87.0
268,0.13429642,-0.23273155,0.06931559,-0.032922365,0.04991455,-1.3179566,87.0
269,0.13429642,-0.23273155,0.06931559,-0.29311523,0.1178833,-1.2807862,87.0
270,-0.5565399,0.0033044815,0.05365804,-0.29311523,0.1178833,-1.2807862,87.0
271,-0.5565399,0.0033044815,0.05365804,-0.74022216,0.22089843,-1.1947632,87.0
272,-1.6280566,0.13725051,0.120624185,-0.74022216,0.22089843,-1.1947632,87.0
273,-1.6280566,0.13725051,0.120624185,-1.2149414,0.30054933,-1.1267945,87.0
274,-2.6395059,0.04650697,-0.015951827,-1.2149414,0.30054933,-1.1267945,87.0
275,-2.6395059,0.04650697,-0.015951827,-1.5558472,0.35471192,-1.0991821,87.0
276,-3.1167684,-0.21225733,-0.38643092,-1.5558472,0.35471192,-1.0991821,87.0
277,-3.1167684,-0.21225733,-0.38643092,-1.6567383,0.36851808,-1.1321045,87.0
278,-2.8965764,-0.53421015,-0.73449874,-1.6567383,0.36851808,-1.1321045,87.0
279,-2.8965764,-0.53421015,-0.73449874,-1.5547851,0.3791382,-1.1894531,87.0
280,-2.2738407,-0.8703003,-0.81632215,-1.5547851,0.3791382,-1.1894531,87.0
281,-2.2738407,-0.8703003,-0.81632215,-1.350879,0.38763428,-1.2160034,87.0
282,-1.5836966,-1.1937134,-0.6276549,-1.350879,0.38763428,-1.2160034,87.0
283,-1.5836966,-1.1937134,-0.6276549,-1.09281,0.36002198,-1.2754761,87.0
284,-0.9198382,-1.4539087,-0.3598144,-1.09281,0.36002198,-1.2754761,87.0
285,-0.9198382,-1.4539087,-0.3598144,-0.77951664,0.32178956,-1.3455689,87.0
286,-0.3503971,-1.6174972,-0.12333739,-0.77951664,0.32178956,-1.3455689,87.0
287,-0.3503971,-1.6174972,-0.12333739,-0.3993164,0.25806886,-1.4061035,87.0
288,0.08740687,-1.6883826,0.08519244,-0.3993164,0.25806886,-1.4061035,87.0
289,0.08740687,-1.6883826,0.08519244,-0.028674318,0.20496826,-1.4963745,87.0
290,0.40715694,-1.6960676,0.26168424,-0.028674318,0.20496826,-1.4963745,87.0
291,0.40715694,-1.6960676,0.26168424,0.2782471,0.16461182,-1.5250489,87.0
292,0.5981499,-1.6921446,0.3804412,0.2782471,0.16461182,-1.5250489,87.0
293,0.5981499,-1.6921446,0.3804412,0.60959476,0.09133301,-1.5027466,87.0
294,0.75369084,-1.6533618,0.46883053,0.60959476,0.09133301,-1.5027466,87.0
295,0.75369084,-1.6533618,0.46883053,0.89102787,0.0063720704,-1.4358399,87.0
296,1.0943589,-1.5587978,0.5722568,0.89102787,0.0063720704,-1.4358399,87.0
297,1.0943589,-1.5587978,0.5722568,1.1650269,-0.0180542,-1.3328247,87.0
298,1.664574,-1.4762008,0.7019461,1.1650269,-0.0180542,-1.3328247,87.0
299,1.664574,-1.4762008,0.7019461,1.3179566,0.016992187,-1.183081,87.0
300,2.2142398,-1.3172522,0.726718,1.3179566,0.016992187,-1.183081,87.0
301,2.2142398,-1.3172522,0.726718,1.1161743,0.06796875,-0.9611206,87.0
302,2.3331962,-0.85342336,0.47408682,1.1161743,0.06796875,-0.9611206,87.0
303,2.3331962,-0.85342336,0.47408682,0.4439209,0.107263185,-0.6488892,87.0
304,2.0016034,-0.15388155,0.026535071,0.4439209,0.107263185,-0.6488892,87.0
305,2.0016034,-0.15388155,0.026535071,-0.47896728,0.08814698,-0.30161133,87.0
306,1.7830087,0.28182626,-0.15017086,-0.47896728,0.08814698,-0.30161133,87.0
307,1.7830087,0.28182626,-0.15017086,-1.1448487,0.07327881,-0.02442627,87.0
308,1.5032258,0.2691865,0.24396244,-1.1448487,0.07327881,-0.02442627,87.0
309,1.5032258,0.2691865,0.24396244,-1.5951416,0.08071289,0.32178956,87.0
310,0.48824954,-0.037409782,0.70664454,-1.5951416,0.08071289,0.32178956,87.0
311,0.48824954,-0.037409782,0.70664454,-1.7427613,0.025488282,0.6531372,87.0
312,-0.7856089,-0.424325,0.54638255,-1.7427613,0.025488282,0.6531372,87.0
313,-0.7856089,-0.424325,0.54638255,-1.26698,-0.15717773,1.0014771,87.0
314,-1.2551717,-0.65691614,-0.17452729,-1.26698,-0.15717773,1.0014771,87.0
315,-1.2551717,-0.65691614,-0.17452729,-0.28780517,-0.37595215,1.3200806,87.0
316,-0.5783073,-0.7120929,-0.80779815,-0.28780517,-0.37595215,1.3200806,87.0
317,-0.5783073,-0.7120929,-0.80779815,0.95368654,-0.53525394,1.5866455,87.0
318,0.6132941,-0.6154995,-0.9315901,0.95368654,-0.53525394,1.5866455,87.0
319,0.6132941,-0.6154995,-0.9315901,2.1208375,-0.58410645,1.8001099,87.0
320,1.4211041,-0.19215536,-0.6624718,2.1208375,-0.58410645,1.8001099,87.0
321,1.4211041,-0.19215536,-0.6624718,2.8345094,-0.544812,1.9466676,87.0
322,1.4378111,0.5141587,-0.32840273,2.8345094,-0.544812,1.9466676,87.0
323,1.4378111,0.5141587,-0.32840273,3.059656,-0.38763428,2.0592408,87.0
324,0.61072254,1.2936511,-0.09402102,3.059656,-0.38763428,2.0592408,87.0
325,0.61072254,1.2936511,-0.09402102,2.8610597,-0.1996582,2.2111084,87.0
326,-0.66696393,2.0085416,-0.051095724,2.8610597,-0.1996582,2.2111084,87.0
327,-0.66696393,2.0085416,-0.051095724,2.3757203,-0.045666505,2.4288208,87.0
328,-1.71747,2.5676122,-0.23551768,2.3757203,-0.045666505,2.4288208,87.0
329,-1.71747,2.5676122,-0.23551768,1.621692,0.121069334,2.6518433,87.0
330,-2.2407486,2.8671513,-0.51534283,1.621692,0.121069334,2.6518433,87.0
331,-2.2407486,2.8671513,-0.51534283,0.7858887,0.24638672,2.8472536,87.0
332,-2.2412806,2.8632889,-0.7634218,0.7858887,0.24638672,2.8472536,87.0
333,-2.2412806,2.8632889,-0.7634218,0.098767094,0.3090454,2.974695,87.0
334,-1.7546089,2.5943298,-0.8836988,0.098767094,0.3090454,2.974695,87.0
335,-1.7546089,2.5943298,-0.8836988,-0.4343628,0.31329346,3.0607178,87.0
336,-0.9857184,2.1901124,-0.85452986,-0.4343628,0.31329346,3.0607178,87.0
337,-0.9857184,2.1901124,-0.85452986,-0.72004396,0.2803711,3.0490358,87.0
338,-0.21842092,1.7912134,-0.7434261,-0.72004396,0.2803711,3.0490358,87.0
339,-0.21842092,1.7912134,-0.7434261,-0.75615233,0.2347046,2.9736328,87.0
340,0.37180868,1.4911983,-0.6372824,-0.75615233,0.2347046,2.9736328,87.0
341,0.37180868,1.4911983,-0.6372824,-0.67331547,0.22196046,2.812207,87.0
342,0.73150456,1.3618551,-0.55943537,-0.67331547,0.22196046,2.812207,87.0
343,0.73150456,1.3618551,-0.55943537,-0.64570314,0.24744873,2.5775025,87.0
344,0.8856797,1.3165106,-0.46115923,-0.64570314,0.24744873,2.5775025,87.0
345,0.8856797,1.3165106,-0.46115923,-0.68499756,0.30161133,2.2769532,87.0
346,0.92545056,1.2255107,-0.25045824,-0.68499756,0.30161133,2.2769532,87.0
347,0.92545056,1.2255107,-0.25045824,-0.7189819,0.32072756,1.9328613,87.0
348,1.0198282,1.0856333,0.08862269,-0.7189819,0.32072756,1.9328613,87.0
349,1.0198282,1.0856333,0.08862269,-0.71367186,0.35152587,1.539917,87.0
350,1.2641536,0.9303963,0.41342747,-0.71367186,0.35152587,1.539917,87.0
351,1.2641536,0.9303963,0.41342747,-0.67225343,0.29099122,1.0864381,87.0
352,1.5400095,0.78275704,0.5377488,-0.67225343,0.29099122,1.0864381,87.0
353,1.5400095,0.78275704,0.5377488,-0.68499756,0.17523193,0.5320679,87.0
354,1.6825447,0.58136916,0.53819466,-0.68499756,0.17523193,0.5320679,87.0
355,1.6825447,0.58136916,0.53819466,-0.6414551,0.015930176,-0.059472658,87.0
356,1.4761262,0.36048102,0.5589371,-0.6414551,0.015930176,-0.059472658,87.0
357,1.4761262,0.36048102,0.5589371,-0.6414551,0.015930176,-0.059472658,85.0
358,1.4761262,0.36048102,0.5589371,-0.5235718,-0.05522461,-0.35577393,85.0
359,1.4479542,-0.33848286,1.1359924,-0.5235718,-0.05522461,-0.35577393,85.0
360,1.4479542,-0.33848286,1.1359924,0.32709962,-0.29099122,-1.075818,85.0
361,1.31371,-0.65812755,1.1699023,0.32709962,-0.29099122,-1.075818,85.0
362,1.31371,-0.65812755,1.1699023,0.70092773,-0.33665773,-1.3614991,85.0
363,2.0407505,-0.86850643,1.3040371,0.70092773,-0.33665773,-1.3614991,85.0
364,2.0407505,-0.86850643,1.3040371,1.3052124,-0.29311523,-1.9201173,85.0
365,1.471492,-0.79937065,0.954863,1.3052124,-0.29311523,-1.9201173,85.0
366,1.471492,-0.79937065,0.954863,1.3030884,-0.2824951,-2.075171,85.0
367,0.08117294,-0.18571234,0.6575184,1.3030884,-0.2824951,-2.075171,85.0
368,0.08117294,-0.18571234,0.6575184,1.0577637,-0.20178223,-2.353418,85.0
369,-0.32685852,-0.27635312,0.5283096,1.0577637,-0.20178223,-2.353418,85.0
370,-0.32685852,-0.27635312,0.5283096,0.9388184,-0.19753419,-2.4012086,85.0
371,0.028027296,-0.10451758,0.5197058,0.9388184,-0.19753419,-2.4012086,85.0
372,0.028027296,-0.10451758,0.5197058,0.45135498,-0.0053100586,-2.4256349,85.0
373,0.10328102,-0.29554033,0.34351122,0.45135498,-0.0053100586,-2.4256349,85.0
374,0.10328102,-0.29554033,0.34351122,0.20178223,0.06690674,-2.3948364,85.0
375,-0.22637177,-0.053753972,-0.30540344,0.20178223,0.06690674,-2.3948364,85.0
376,-0.22637177,-0.053753972,-0.30540344,-0.9260742,0.35577393,-2.2907593,85.0
377,-0.6617372,-0.098911405,-0.47402248,-0.9260742,0.35577393,-2.2907593,85.0
378,-0.6617372,-0.098911405,-0.47402248,-1.4092896,0.48746338,-2.2068603,85.0
379,-2.5961866,0.038741946,-0.8092717,-1.4092896,0.48746338,-2.2068603,85.0
380,-2.5961866,0.038741946,-0.8092717,-2.707068,0.71579593,-1.9339234,85.0
381,-2.9025111,-0.1385132,-0.7266288,-2.707068,0.71579593,-1.9339234,85.0
382,-2.9025111,-0.1385132,-0.7266288,-2.897168,0.724292,-1.8468384,85.0
383,-3.97821,-0.67786384,-1.0822797,-2.897168,0.724292,-1.8468384,85.0
384,-3.97821,-0.67786384,-1.0822797,-3.1223145,0.7890747,-1.7788696,85.0
385,-3.4183836,-0.82621443,-1.0764316,-3.1223145,0.7890747,-1.7788696,85.0
386,-3.4183836,-0.82621443,-1.0764316,-3.1743531,0.83898926,-1.7746216,85.0
387,-2.7365012,-1.5179662,-1.4559939,-3.1743531,0.83898926,-1.7746216,85.0
388,-2.7365012,-1.5179662,-1.4559939,-2.7495484,0.8750977,-1.814978,85.0
389,-2.0655682,-1.634307,-1.2981081,-2.7495484,0.8750977,-1.814978,85.0
390,-2.0655682,-1.634307,-1.2981081,-2.4288208,0.8602295,-1.8309082,85.0
391,-1.2057626,-2.017773,-1.0543067,-2.4288208,0.8602295,-1.8309082,85.0
392,-1.2057626,-2.017773,-1.0543067,-1.6386842,0.81243896,-1.9126831,85.0
393,-0.29931474,-2.2524629,-0.60316217,-1.6386842,0.81243896,-1.9126831,85.0
394,-0.29931474,-2.2524629,-0.60316217,-0.84111327,0.7869507,-2.0475585,85.0
395,0.44610727,-2.4062428,-0.12846482,-0.84111327,0.7869507,-2.0475585,85.0
396,0.44610727,-2.4062428,-0.12846482,-0.09770508,0.7168579,-2.2132325,85.0
397,0.8781382,-2.5109806,0.23742592,-0.09770508,0.7168579,-2.2132325,85.0
398,0.8781382,-2.5109806,0.23742592,0.61915284,0.61702883,-2.3735962,85.0
399,1.0904989,-2.3081741,0.5407709,0.61915284,0.61702883,-2.3735962,85.0
400,1.0904989,-2.3081741,0.5407709,1.357251,0.39506838,-2.3969605,85.0
401,0.9236686,-2.1012392,0.45095158,1.357251,0.39506838,-2.3969605,85.0
402,0.9236686,-2.1012392,0.45095158,1.4347779,0.3440918,-2.3704102,85.0
403,0.85043395,-1.7410254,0.45788038,1.4347779,0.3440918,-2.3704102,85.0
404,0.85043395,-1.7410254,0.45788038,1.4719483,0.22939454,-2.2387207,85.0
405,1.0009892,-1.5417705,0.5745684,1.4719483,0.22939454,-2.2387207,85.0
406,1.0009892,-1.5417705,0.5745684,1.4124756,0.14761963,-1.9742798,85.0
407,1.3832988,-1.3776546,0.7326894,1.4124756,0.14761963,-1.9742798,85.0
408,1.3832988,-1.3776546,0.7326894,1.1034302,0.09451904,-1.635498,85.0
409,1.7251327,-1.0102291,0.6812321,1.1034302,0.09451904,-1.635498,85.0
410,1.7251327,-1.0102291,0.6812321,0.41843262,0.08814698,-1.2298096,85.0
411,1.5886389,-0.4554243,0.35556918,0.41843262,0.08814698,-1.2298096,85.0
412,1.5886389,-0.4554243,0.35556918,-0.52038574,0.078588866,-0.7391602,85.0
413,0.9690312,0.16947412,-0.059282422,-0.52038574,0.078588866,-0.7391602,85.0
414,0.9690312,0.16947412,-0.059282422,-1.4103516,-0.053100586,-0.25913087,85.0
415,0.6227714,0.40734434,-0.14250648,-1.4103516,-0.053100586,-0.25913087,85.0
416,0.6227714,0.40734434,-0.14250648,-1.8181641,-0.19328614,0.09133301,85.0
417,0.43852472,0.14734793,0.33627558,-1.8181641,-0.19328614,0.09133301,85.0
418,0.43852472,0.14734793,0.33627558,-1.9307374,-0.24851075,0.4704712,85.0
419,-0.24798393,-0.5054984,0.8326435,-1.9307374,-0.24851075,0.4704712,85.0
420,-0.24798393,-0.5054984,0.8326435,-1.5101807,-0.32391357,0.7688965,85.0
421,-0.9557724,-1.239665,0.6894913,-1.5101807,-0.32391357,0.7688965,85.0
422,-0.9557724,-1.239665,0.6894913,-0.4609131,-0.4959595,1.0747559,85.0
423,-0.7308777,-1.662374,-0.020123303,-0.4609131,-0.4959595,1.0747559,85.0
424,-0.7308777,-1.662374,-0.020123303,0.98873293,-0.7041138,1.4443359,85.0
425,0.5020654,-1.5872722,-0.58187014,0.98873293,-0.7041138,1.4443359,85.0
426,0.5020654,-1.5872722,-0.58187014,2.5509522,-0.8400513,1.7926759,85.0
427,1.839543,-0.88633394,-0.61539847,2.5509522,-0.8400513,1.7926759,85.0
428,1.839543,-0.88633394,-0.61539847,3.8189943,-0.85704345,2.1027832,85.0
429,2.3636265,0.23348618,-0.26056832,3.8189943,-0.85704345,2.1027832,85.0
430,2.3636265,0.23348618,-0.26056832,4.517798,-0.72004396,2.3990846,85.0
431,1.7323074,1.4233246,0.14823478,4.517798,-0.72004396,2.3990846,85.0
432,1.7323074,1.4233246,0.14823478,4.4774413,-0.46622315,2.6433473,85.0
433,0.22807002,2.4538088,0.37823135,4.4774413,-0.46622315,2.6433473,85.0
434,0.22807002,2.4538088,0.37823135,3.7627075,-0.19116211,2.909912,85.0
435,-1.4012232,3.1764503,0.33473843,3.7627075,-0.19116211,2.909912,85.0
436,-1.4012232,3.1764503,0.33473843,2.6507814,0.07327881,3.178601,85.0
437,-2.5198677,3.4861798,0.035307825,2.6507814,0.07327881,3.178601,85.0
438,-2.5198677,3.4861798,0.035307825,1.4666382,0.23789063,3.4069335,85.0
439,-2.9227545,3.4504795,-0.4050423,1.4666382,0.23789063,3.4069335,85.0
440,-2.9227545,3.4504795,-0.4050423,0.3812622,0.33240968,3.5991578,85.0
441,-2.7269366,3.1736526,-0.7506696,0.3812622,0.33240968,3.5991578,85.0
442,-2.7269366,3.1736526,-0.7506696,-0.5511841,0.37595215,3.6373901,85.0
443,-2.1090028,2.7250304,-0.84827733,-0.5511841,0.37595215,3.6373901,85.0
444,-2.1090028,2.7250304,-0.84827733,-1.1607789,0.35789797,3.5927856,85.0
445,-1.237007,2.1512768,-0.74517465,-1.1607789,0.35789797,3.5927856,85.0
446,-1.237007,2.1512768,-0.74517465,-1.2754761,0.271875,3.4950807,85.0
447,-0.260736,1.5379648,-0.6194918,-1.2754761,0.271875,3.4950807,85.0
448,-0.260736,1.5379648,-0.6194918,-1.0152832,0.21452637,3.274182,85.0
449,0.7380787,1.0596932,-0.5654055,-1.0152832,0.21452637,3.274182,85.0
450,0.7380787,1.0596932,-0.5654055,-0.6085327,0.22833252,2.980005,85.0
451,1.5957242,0.8099982,-0.5581715,-0.6085327,0.22833252,2.980005,85.0
452,1.5957242,0.8099982,-0.5581715,-0.1985962,0.31966552,2.631665,85.0
453,2.1064622,0.80212456,-0.54047036,-0.1985962,0.31966552,2.631665,85.0
454,2.1064622,0.80212456,-0.54047036,0.07965088,0.42905274,2.2259767,85.0
455,2.1064622,0.80212456,-0.54047036,0.07965088,0.42905274,2.2259767,85.0
456,2.2316785,0.97608685,-0.4587313,0.07965088,0.42905274,2.2259767,85.0
457,2.2316785,0.97608685,-0.4587313,0.10301514,0.5129517,1.7873658,85.0
458,2.1411657,1.1792216,-0.31306672,0.10301514,0.5129517,1.7873658,85.0
459,2.1411657,1.1792216,-0.31306672,0.03717041,0.50870365,1.3381348,85.0
460,2.0198174,1.2903867,-0.13976002,0.03717041,0.50870365,1.3381348,85.0
461,2.0198174,1.2903867,-0.13976002,-0.13806152,0.42799073,0.9239502,85.0
462,1.83237,1.3762668,0.031160593,-0.13806152,0.42799073,0.9239502,85.0
463,1.83237,1.3762668,0.031160593,-0.50020754,0.28355715,0.5798584,85.0
464,1.354336,1.3942509,0.27933526,-0.50020754,0.28355715,0.5798584,85.0
465,1.354336,1.3942509,0.27933526,-0.70092773,0.10620117,0.22302246,85.0
466,0.67865944,1.239717,0.6273378,-0.70092773,0.10620117,0.22302246,85.0
467,0.67865944,1.239717,0.6273378,-0.6435791,-0.124255374,-0.13699952,85.0
468,0.60275435,0.7624278,0.8916652,-0.6435791,-0.124255374,-0.13699952,85.0
469,0.60275435,0.7624278,0.8916652,-0.40356445,-0.28355715,-0.6701294,85.0
470,0.97280407,0.047637463,0.96648157,-0.40356445,-0.28355715,-0.6701294,85.0
471,0.97280407,0.047637463,0.96648157,-0.0998291,-0.27718505,-1.1437867,85.0
472,0.63466406,-0.514539,0.9004803,-0.0998291,-0.27718505,-1.1437867,85.0
473,0.63466406,-0.514539,0.9004803,0.16248779,-0.32178956,-1.5515991,85.0
474,-0.19837236,-0.71120405,0.69203955,0.16248779,-0.32178956,-1.5515991,85.0
475,-0.19837236,-0.71120405,0.69203955,0.42055663,-0.37382814,-1.8298463,85.0
476,-0.4298284,-0.7273617,0.50000614,0.42055663,-0.37382814,-1.8298463,85.0
477,-0.4298284,-0.7273617,0.50000614,0.8241211,-0.4322388,-2.0741088,85.0
478,0.032272577,-0.8396163,0.47047615,0.8241211,-0.4322388,-2.0741088,85.0
479,0.032272577,-0.8396163,0.47047615,1.3158325,-0.4354248,-2.2780151,85.0
480,0.2725222,-0.97368276,0.5407608,1.3158325,-0.4354248,-2.2780151,85.0
481,0.2725222,-0.97368276,0.5407608,1.5802735,-0.42799073,-2.34386,85.0
482,-0.13311744,-0.89753747,0.49928346,1.5802735,-0.42799073,-2.34386,85.0
483,-0.13311744,-0.89753747,0.49928346,1.3954834,-0.41843262,-2.3651001,85.0
484,-0.97235084,-0.47077656,0.29187062,1.3954834,-0.41843262,-2.3651001,85.0
485,-0.97235084,-0.47077656,0.29187062,0.6988037,-0.3462158,-2.252527,85.0
486,-2.023059,0.030788422,0.091772854,0.6988037,-0.3462158,-2.252527,85.0
487,-2.023059,0.030788422,0.091772854,-0.25913087,-0.26125488,-2.1250856,85.0
488,-2.989492,0.15751648,-0.06856167,-0.25913087,-0.26125488,-2.1250856,85.0
489,-2.989492,0.15751648,-0.06856167,-1.0099732,-0.17416993,-2.090039,85.0
490,-3.5270674,-0.1496582,-0.235843,-1.0099732,-0.17416993,-2.090039,85.0
491,-3.5270674,-0.1496582,-0.235843,-1.2999023,-0.16885987,-2.0401247,85.0
492,-3.4412951,-0.6476685,-0.37164557,-1.2999023,-0.16885987,-2.0401247,85.0
493,-3.4412951,-0.6476685,-0.37164557,-1.5739014,-0.083898924,-2.1155274,85.0
494,-2.77673,-1.2498609,-0.41291702,-1.5739014,-0.083898924,-2.1155274,85.0
495,-2.77673,-1.2498609,-0.41291702,-1.6673584,0.046728518,-2.1898682,85.0
496,-1.8479342,-1.8671983,-0.34600747,-1.6673584,0.046728518,-2.1898682,85.0
497,-1.8479342,-1.8671983,-0.34600747,-1.4677002,0.107263185,-2.3173096,85.0
498,-0.88591576,-2.3434901,-0.15814143,-1.4677002,0.107263185,-2.3173096,85.0
499,-0.88591576,-2.3434901,-0.15814143,-1.1533448,0.17629395,-2.4808595,85.0
500,-0.031425476,-2.7124996,0.16899467,-1.1533448,0.17629395,-2.4808595,85.0
501,-0.031425476,-2.7124996,0.16899467,-0.6945557,0.24638672,-2.636975,85.0
502,0.54166865,-2.9866745,0.5496489,-0.6945557,0.24638672,-2.636975,85.0
503,0.54166865,-2.9866745,0.5496489,-0.1083252,0.27612305,-2.7548585,85.0
504,0.80904293,-2.9477625,0.82063955,-0.1083252,0.27612305,-2.7548585,85.0
505,0.80904293,-2.9477625,0.82063955,0.36533204,0.2984253,-2.7909667,85.0
506,0.84066695,-2.602839,0.8981743,0.36533204,0.2984253,-2.7909667,85.0
507,0.84066695,-2.602839,0.8981743,0.65419924,0.29417726,-2.6975098,85.0
508,0.6333002,-2.1362753,0.83948666,0.65419924,0.29417726,-2.6975098,85.0
509,0.6333002,-2.1362753,0.83948666,0.67225343,0.27293703,-2.5159059,85.0
510,0.39328566,-1.666076,0.7322949,0.67225343,0.27293703,-2.5159059,85.0
511,0.39328566,-1.666076,0.7322949,0.48109132,0.26125488,-2.2387207,85.0
512,0.4731124,-1.3163934,0.61830664,0.48109132,0.26125488,-2.2387207,85.0
513,0.4731124,-1.3163934,0.61830664,0.20178223,0.28461915,-1.9169312,85.0
514,0.9139392,-1.1010518,0.45574152,0.20178223,0.28461915,-1.9169312,85.0
515,0.9139392,-1.1010518,0.45574152,-0.21346436,0.33984375,-1.5526612,85.0
516,1.3420033,-0.86801195,0.12979096,-0.21346436,0.33984375,-1.5526612,85.0
517,1.3420033,-0.86801195,0.12979096,-0.83898926,0.41312256,-1.1246704,85.0
518,1.3459538,-0.54425097,-0.39317653,-0.83898926,0.41312256,-1.1246704,85.0
519,1.3459538,-0.54425097,-0.39317653,-1.5675293,0.44604492,-0.630835,85.0
520,1.1565483,-0.2571292,-0.9539089,-1.5675293,0.44604492,-0.630835,85.0
521,1.1565483,-0.2571292,-0.9539089,-2.1250856,0.30054933,-0.16036378,85.0
522,1.2798407,-0.21515179,-1.0646286,-2.1250856,0.30054933,-0.16036378,85.0
523,1.2798407,-0.21515179,-1.0646286,-2.347046,0.1529297,0.24001466,85.0
524,1.1912676,-0.39677954,-0.5411194,-2.347046,0.1529297,0.24001466,85.0
525,1.1912676,-0.39677954,-0.5411194,-2.3109376,0.06584473,0.6414551,85.0
526,0.2568593,-0.6894083,-0.025485858,-2.3109376,0.06584473,0.6414551,85.0
527,0.2568593,-0.6894083,-0.025485858,-1.8574585,-0.059472658,0.9547486,85.0
528,-0.66660726,-1.0905647,-0.12145069,-1.8574585,-0.059472658,0.9547486,85.0
529,-0.66660726,-1.0905647,-0.12145069,-0.80606693,-0.28355715,1.2446778,85.0
530,-0.42156708,-1.4611115,-0.57880116,-0.80606693,-0.28355715,1.2446778,85.0
531,-0.42156708,-1.4611115,-0.57880116,0.7327881,-0.53950197,1.5271729,85.0
532,0.81028056,-1.5020432,-0.8625039,0.7327881,-0.53950197,1.5271729,85.0
533,0.81028056,-1.5020432,-0.8625039,2.4033325,-0.6924316,1.81073,85.0
534,1.8751898,-0.94162464,-0.78701234,2.4033325,-0.6924316,1.81073,85.0
535,1.8751898,-0.94162464,-0.78701234,3.7669556,-0.7104859,2.1017213,85.0
536,2.0257378,0.09396601,-0.48073292,3.7669556,-0.7104859,2.1017213,85.0
537,2.0257378,0.09396601,-0.48073292,4.613379,-0.5968506,2.4001465,85.0
538,1.248239,1.2435322,-0.16152722,4.613379,-0.5968506,2.4001465,85.0
539,1.248239,1.2435322,-0.16152722,4.8385253,-0.39506838,2.7283082,85.0
540,-0.065398216,2.3134294,0.012758255,4.8385253,-0.39506838,2.7283082,85.0
541,-0.065398216,2.3134294,0.012758255,4.4179688,-0.13381349,3.075586,85.0
542,-1.3966668,3.1377797,-0.0318588,4.4179688,-0.13381349,3.075586,85.0
543,-1.3966668,3.1377797,-0.0318588,3.5088868,0.14655761,3.4079957,85.0
544,-2.3094597,3.541254,-0.28522825,3.5088868,0.14655761,3.4079957,85.0
545,-2.3094597,3.541254,-0.28522825,2.442627,0.34940186,3.6480103,85.0
546,-2.5339203,3.567598,-0.64543116,2.442627,0.34940186,3.6480103,85.0
547,-2.5339203,3.567598,-0.64543116,1.4029175,0.47684327,3.8200562,85.0
548,-2.1430178,3.3368056,-0.8660519,1.4029175,0.47684327,3.8200562,85.0
549,-2.1430178,3.3368056,-0.8660519,0.43011475,0.5703003,3.8253663,85.0
550,-1.4130349,2.9343615,-0.8096994,0.43011475,0.5703003,3.8253663,85.0
551,-1.4130349,2.9343615,-0.8096994,-0.39400634,0.6117188,3.715979,85.0
552,-0.62376285,2.4066932,-0.6211605,-0.39400634,0.6117188,3.715979,85.0
553,-0.62376285,2.4066932,-0.6211605,-0.39400634,0.6117188,3.715979,85.0
554,-0.62376285,2.4066932,-0.6211605,-0.90908206,0.5979126,3.5874755,85.0
555,0.101685524,1.7410896,-0.5011399,-0.90908206,0.5979126,3.5874755,85.0
556,0.101685524,1.7410896,-0.5011399,-1.0269654,0.5851685,3.3400269,85.0
557,0.70741045,1.1983526,-0.5289514,-1.0269654,0.5851685,3.3400269,85.0
558,0.70741045,1.1983526,-0.5289514,-0.9547486,0.61702883,3.07771,85.0
559,1.1677473,0.9871977,-0.6639693,-0.9547486,0.61702883,3.07771,85.0
560,1.1677473,0.9871977,-0.6639693,-0.81881106,0.65207523,2.7559204,85.0
561,1.4763488,1.0628295,-0.7878649,-0.81881106,0.65207523,2.7559204,85.0
562,1.4763488,1.0628295,-0.7878649,-0.6786255,0.6966797,2.3916504,85.0
563,1.5069091,1.2946484,-0.78743315,-0.6786255,0.6966797,2.3916504,85.0
564,1.5069091,1.2946484,-0.78743315,-0.6180908,0.6860596,2.0199463,85.0
565,1.1996924,1.5043833,-0.6117213,-0.6180908,0.6860596,2.0199463,85.0
566,1.1996924,1.5043833,-0.6117213,-0.60959476,0.6053467,1.6429322,85.0
567,0.8475468,1.5316927,-0.28261423,-0.60959476,0.6053467,1.6429322,85.0
568,0.8475468,1.5316927,-0.28261423,-0.57561034,0.42692873,1.2892822,85.0
569,0.8325174,1.3293337,0.09452629,-0.57561034,0.42692873,1.2892822,85.0
570,0.8325174,1.3293337,0.09452629,-0.43861085,0.23789063,0.94412845,85.0
571,1.0662215,1.079629,0.41683197,-0.43861085,0.23789063,0.94412845,85.0
572,1.0662215,1.079629,0.41683197,-0.39506838,0.052038576,0.63614506,85.0
573,1.1941514,0.86909866,0.6736877,-0.39506838,0.052038576,0.63614506,85.0
574,1.1941514,0.86909866,0.6736877,-0.29630128,-0.11469727,0.3079834,85.0
575,1.1994252,0.51221013,0.9408667,-0.29630128,-0.11469727,0.3079834,85.0
576,1.1994252,0.51221013,0.9408667,0.06159668,-0.32072756,-0.047790527,85.0
577,1.4160709,-0.021811485,1.1748126,0.06159668,-0.32072756,-0.047790527,85.0
578,1.4160709,-0.021811485,1.1748126,0.6042847,-0.47684327,-0.5883545,85.0
579,1.4078202,-0.38660216,1.2684755,0.6042847,-0.47684327,-0.5883545,85.0
580,1.4078202,-0.38660216,1.2684755,0.98236084,-0.46622315,-1.0216553,85.0
581,0.3713367,-0.3796308,1.2279885,0.98236084,-0.46622315,-1.0216553,85.0
582,0.3713367,-0.3796308,1.2279885,1.1363525,-0.5076416,-1.3668091,85.0
583,-1.0718029,-0.16184664,1.0802667,1.1363525,-0.5076416,-1.3668091,85.0
584,-1.0718029,-0.16184664,1.0802667,1.0439576,-0.634021,-1.6673584,85.0
585,-1.5552206,-0.07366681,0.902043,1.0439576,-0.634021,-1.6673584,85.0
586,-1.5552206,-0.07366681,0.902043,1.0577637,-0.7827026,-1.9848999,85.0
587,-0.97116613,-0.26669717,0.81948596,1.0577637,-0.7827026,-1.9848999,85.0
588,-0.97116613,-0.26669717,0.81948596,1.1490967,-0.8708496,-2.2217286,85.0
589,-0.4139204,-0.48080158,0.79704386,1.1490967,-0.8708496,-2.2217286,85.0
590,-0.4139204,-0.48080158,0.79704386,1.0471436,-0.90270996,-2.3863404,85.0
591,-0.34319687,-0.59209967,0.6738045,1.0471436,-0.90270996,-2.3863404,85.0
592,-0.34319687,-0.59209967,0.6738045,0.7497803,-0.8708496,-2.5190918,85.0
593,-0.611496,-0.61023974,0.4700861,0.7497803,-0.8708496,-2.5190918,85.0
594,-0.611496,-0.61023974,0.4700861,0.42799073,-0.7954468,-2.546704,85.0
595,-1.2112794,-0.60503745,0.33419877,0.42799073,-0.7954468,-2.546704,85.0
596,-1.2112794,-0.60503745,0.33419877,0.09239502,-0.7147339,-2.5254638,85.0
597,-1.9826343,-0.72245777,0.26613832,0.09239502,-0.7147339,-2.5254638,85.0
598,-1.9826343,-0.72245777,0.26613832,-0.1720459,-0.6669434,-2.5254638,85.0
599,-2.5531485,-1.0167114,0.123567395,-0.1720459,-0.6669434,-2.5254638,85.0
600,-2.5531485,-1.0167114,0.123567395,-0.24213867,-0.65207523,-2.51803,85.0
601,-2.6329486,-1.3701196,-0.07119003,-0.24213867,-0.65207523,-2.51803,85.0
602,-2.6329486,-1.3701196,-0.07119003,-0.21877442,-0.61702883,-2.5254638,85.0
603,-2.1784048,-1.7417744,-0.11979382,-0.21877442,-0.61702883,-2.5254638,85.0
604,-2.1784048,-1.7417744,-0.11979382,-0.15611573,-0.541626,-2.618921,85.0
605,-1.3822746,-2.1061637,0.05624014,-0.15611573,-0.541626,-2.618921,85.0
606,-1.3822746,-2.1061637,0.05624014,-0.04885254,-0.452417,-2.721936,85.0
607,-0.5900238,-2.397431,0.37129828,-0.04885254,-0.452417,-2.721936,85.0
608,-0.5900238,-2.397431,0.37129828,0.03079834,-0.37595215,-2.8217652,85.0
609,0.0014550686,-2.6276128,0.71410406,0.03079834,-0.37595215,-2.8217652,85.0
610,0.0014550686,-2.6276128,0.71410406,0.21877442,-0.32072756,-2.9109743,85.0
611,0.35836622,-2.7290921,0.93876374,0.21877442,-0.32072756,-2.9109743,85.0
612,0.35836622,-2.7290921,0.93876374,0.39188233,-0.24957275,-2.9162843,85.0
613,0.4738878,-2.6283543,0.99257594,0.39188233,-0.24957275,-2.9162843,85.0
614,0.4738878,-2.6283543,0.99257594,0.49489745,-0.16354981,-2.822827,85.0
615,0.33186904,-2.3811746,0.9842951,0.49489745,-0.16354981,-2.822827,85.0
616,0.33186904,-2.3811746,0.9842951,0.45878908,-0.046728518,-2.623169,85.0
617,-0.051350474,-2.0080771,0.9397433,0.45878908,-0.046728518,-2.623169,85.0
618,-0.051350474,-2.0080771,0.9397433,0.2166504,0.06584473,-2.3204956,85.0
619,-0.51501834,-1.5500164,0.72744167,0.2166504,0.06584473,-2.3204956,85.0
620,-0.51501834,-1.5500164,0.72744167,-0.18479005,0.16992188,-1.9615357,85.0
621,-0.5876617,-1.2146106,0.33737326,-0.18479005,0.16992188,-1.9615357,85.0
622,-0.5876617,-1.2146106,0.33737326,-0.43861085,0.24213867,-1.6089478,85.0
623,0.07888186,-1.1149383,-0.059617996,-0.43861085,0.24213867,-1.6089478,85.0
624,0.07888186,-1.1149383,-0.059617996,-0.54587406,0.30479738,-1.2340577,85.0
625,1.1164746,-1.0999341,-0.38148355,-0.54587406,0.30479738,-1.2340577,85.0
626,1.1164746,-1.0999341,-0.38148355,-0.7657105,0.37701416,-0.814563,85.0
627,1.7412388,-0.9770298,-0.678136,-0.7657105,0.37701416,-0.814563,85.0
628,1.7412388,-0.9770298,-0.678136,-1.1905152,0.42799073,-0.35471192,85.0
629,1.7181498,-0.7251663,-0.99084866,-1.1905152,0.42799073,-0.35471192,85.0
630,1.7181498,-0.7251663,-0.99084866,-1.6864747,0.35046387,0.12319336,85.0
631,1.7179769,-0.5944152,-1.0428743,-1.6864747,0.35046387,0.12319336,85.0
632,1.7179769,-0.5944152,-1.0428743,-1.8245362,0.22408448,0.47684327,85.0
633,1.7494304,-0.62206507,-0.58777845,-1.8245362,0.22408448,0.47684327,85.0
634,1.7494304,-0.62206507,-0.58777845,-1.7788696,0.16992188,0.86553955,85.0
635,0.89673674,-0.6258869,-0.10026428,-1.7788696,0.16992188,0.86553955,85.0
636,0.89673674,-0.6258869,-0.10026428,-1.5675293,0.115759276,1.2032593,85.0
637,-0.46851158,-0.65233326,-0.20346582,-1.5675293,0.115759276,1.2032593,85.0
638,-0.46851158,-0.65233326,-0.20346582,-0.86766356,-0.057348635,1.5208008,85.0
639,-0.85548556,-0.7216711,-0.7799724,-0.86766356,-0.057348635,1.5208008,85.0
640,-0.85548556,-0.7216711,-0.7799724,0.270813,-0.31223145,1.811792,85.0
641,0.24140501,-0.73947096,-1.2102695,0.270813,-0.31223145,1.811792,85.0
642,0.24140501,-0.73947096,-1.2102695,1.6907227,-0.5256958,2.0528686,85.0
643,1.910629,-0.60871553,-1.1360623,1.6907227,-0.5256958,2.0528686,85.0
644,1.910629,-0.60871553,-1.1360623,3.1339967,-0.59047854,2.275891,85.0
645,2.8175778,-0.08829069,-0.74249244,3.1339967,-0.59047854,2.275891,85.0
646,2.8175778,-0.08829069,-0.74249244,4.0462646,-0.49171144,2.4904175,85.0
647,2.2952123,0.81424284,-0.38184798,4.0462646,-0.49171144,2.4904175,85.0
648,2.2952123,0.81424284,-0.38184798,4.398853,-0.2814331,2.7283082,85.0
649,0.717371,1.8056183,-0.21615952,4.398853,-0.2814331,2.7283082,85.0
650,0.717371,1.8056183,-0.21615952,4.3117676,-0.060534667,3.0012453,85.0
651,0.717371,1.8056183,-0.21615952,4.3117676,-0.060534667,3.0012453,84.0
652,-1.0240648,2.6899538,-0.2677518,4.3117676,-0.060534667,3.0012453,84.0
653,-1.0240648,2.6899538,-0.2677518,3.7796998,0.20072022,3.3060424,84.0
654,-2.2484632,3.3020973,-0.48407453,3.7796998,0.20072022,3.3060424,84.0
655,-2.2484632,3.3020973,-0.48407453,2.9279664,0.42905274,3.5715454,84.0
656,-2.671378,3.5210724,-0.77539444,2.9279664,0.42905274,3.5715454,84.0
657,-2.671378,3.5210724,-0.77539444,2.0103881,0.5649902,3.7457154,84.0
658,-2.319158,3.381653,-1.0226837,2.0103881,0.5649902,3.7457154,84.0
659,-2.319158,3.381653,-1.0226837,1.171399,0.6616333,3.7850099,84.0
660,-1.5163007,3.0294924,-1.054524,1.171399,0.6616333,3.7850099,84.0
661,-1.5163007,3.0294924,-1.054524,0.41737062,0.7306641,3.7340333,84.0
662,-0.6379673,2.5416236,-0.88982284,0.41737062,0.7306641,3.7340333,84.0
663,-0.6379673,2.5416236,-0.88982284,-0.07327881,0.72004396,3.611902,84.0
664,0.18817353,1.9408551,-0.7758963,-0.07327881,0.72004396,3.611902,84.0
665,0.18817353,1.9408551,-0.7758963,-0.24957275,0.72004396,3.4026856,84.0
666,0.8428484,1.437523,-0.81153727,-0.24957275,0.72004396,3.4026856,84.0
667,0.8428484,1.437523,-0.81153727,-0.2548828,0.7582764,3.1435547,84.0
668,1.1397694,1.2245424,-0.8966541,-0.2548828,0.7582764,3.1435547,84.0
669,1.1397694,1.2245424,-0.8966541,-0.26444092,0.8336792,2.814331,84.0
670,1.1134148,1.2430251,-0.9470475,-0.26444092,0.8336792,2.814331,84.0
671,1.1134148,1.2430251,-0.9470475,-0.33984375,0.8963379,2.4596193,84.0
672,0.95373225,1.3379502,-0.9685755,-0.33984375,0.8963379,2.4596193,84.0
673,0.95373225,1.3379502,-0.9685755,-0.4343628,0.89846194,2.080481,84.0
674,0.7618995,1.4613758,-0.9073801,-0.4343628,0.89846194,2.080481,84.0
675,0.7618995,1.4613758,-0.9073801,-0.5979126,0.82730716,1.6769165,84.0
676,0.57195854,1.551132,-0.6824715,-0.5979126,0.82730716,1.6769165,84.0
677,0.57195854,1.551132,-0.6824715,-0.86978763,0.7306641,1.2510499,84.0
678,0.4485581,1.4608762,-0.3678279,-0.86978763,0.7306641,1.2510499,84.0
679,0.4485581,1.4608762,-0.3678279,-1.0875,0.5851685,0.89102787,84.0
680,0.3785975,1.2154539,-0.10047579,-1.0875,0.5851685,0.89102787,84.0
681,0.3785975,1.2154539,-0.10047579,-1.1108643,0.32922363,0.634021,84.0
682,0.3852632,1.0624509,0.1356349,-1.1108643,0.32922363,0.634021,84.0
683,0.3852632,1.0624509,0.1356349,-1.0790039,-0.004248047,0.4343628,84.0
684,0.44137716,0.9548557,0.498132,-1.0790039,-0.004248047,0.4343628,84.0
685,0.44137716,0.9548557,0.498132,-0.817749,-0.33771974,0.23045655,84.0
686,0.7786999,0.5164602,1.046284,-0.817749,-0.33771974,0.23045655,84.0
687,0.7786999,0.5164602,1.046284,-0.14655761,-0.6425171,-0.04991455,84.0
688,1.458348,-0.28627038,1.5308626,-0.14655761,-0.6425171,-0.04991455,84.0
689,1.458348,-0.28627038,1.5308626,0.80819094,-0.8209351,-0.3727661,84.0
690,1.5044959,-0.8202517,1.7327347,0.80819094,-0.8209351,-0.3727661,84.0
691,1.5044959,-0.8202517,1.7327347,1.5993897,-0.8336792,-0.5671143,84.0
692,0.25497627,-0.6854861,1.6820252,1.5993897,-0.8336792,-0.5671143,84.0
693,0.25497627,-0.6854861,1.6820252,2.081543,-0.9143921,-0.6680054,84.0
694,-1.3214829,-0.12321806,1.4158595,2.081543,-0.9143921,-0.6680054,84.0
695,-1.3214829,-0.12321806,1.4158595,2.2227905,-1.1267945,-0.74447024,84.0
696,-1.7136805,0.30762672,1.032944,2.2227905,-1.1267945,-0.74447024,84.0
697,-1.7136805,0.30762672,1.032944,2.179248,-1.3455689,-0.99298096,84.0
698,-0.86589074,0.29442906,0.78270286,2.179248,-1.3455689,-0.99298096,84.0
699,-0.86589074,0.29442906,0.78270286,1.9583496,-1.450708,-1.2882203,84.0
700,-0.10355234,0.07932973,0.79281265,1.9583496,-1.450708,-1.2882203,84.0
701,-0.10355234,0.07932973,0.79281265,1.447522,-1.4560181,-1.5292969,84.0
702,-0.044169903,-0.1480596,0.93233365,1.447522,-1.4560181,-1.5292969,84.0
703,-0.044169903,-0.1480596,0.93233365,0.9430664,-1.3997315,-1.7512573,84.0
704,-0.50380516,-0.27722454,1.0313039,0.9430664,-1.3997315,-1.7512573,84.0
705,-0.50380516,-0.27722454,1.0313039,0.50233155,-1.3168945,-1.8712647,84.0
706,-1.2796066,-0.2302146,0.9698552,0.50233155,-1.3168945,-1.8712647,84.0
707,-1.2796066,-0.2302146,0.9698552,0.08283692,-1.2319336,-1.8829468,84.0
708,-2.0551062,-0.22527266,0.75068885,0.08283692,-1.2319336,-1.8829468,84.0
709,-2.0551062,-0.22527266,0.75068885,-0.24638672,-1.1809571,-1.9583496,84.0
710,-2.5148613,-0.4309994,0.48697686,-0.24638672,-1.1809571,-1.9583496,84.0
711,-2.5148613,-0.4309994,0.48697686,-0.4694092,-1.1469727,-2.0464966,84.0
712,-2.5372431,-0.8351315,0.37627584,-0.4694092,-1.1469727,-2.0464966,84.0
713,-2.5372431,-0.8351315,0.37627584,-0.58304447,-1.075818,-2.179248,84.0
714,-2.1477265,-1.4027367,0.46734148,-0.58304447,-1.075818,-2.179248,84.0
715,-2.1477265,-1.4027367,0.46734148,-0.48533937,-1.0142212,-2.350232,84.0
716,-1.4917042,-1.9994965,0.6387658,-0.48533937,-1.0142212,-2.350232,84.0
717,-1.4917042,-1.9994965,0.6387658,-0.24320069,-0.92501223,-2.5594482,84.0
718,-0.79027504,-2.4445314,0.80904734,-0.24320069,-0.92501223,-2.5594482,84.0
719,-0.79027504,-2.4445314,0.80904734,0.03717041,-0.83474123,-2.7676027,84.0
720,-0.1885677,-2.7165627,0.9643277,0.03717041,-0.83474123,-2.7676027,84.0
721,-0.1885677,-2.7165627,0.9643277,0.38763428,-0.7412842,-2.9428346,84.0
722,0.2502445,-2.849837,1.1040794,0.38763428,-0.7412842,-2.9428346,84.0
723,0.2502445,-2.849837,1.1040794,0.84111327,-0.67331547,-3.0670898,84.0
724,0.5057254,-2.8291984,1.2599114,0.84111327,-0.67331547,-3.0670898,84.0
725,0.5057254,-2.8291984,1.2599114,1.2011353,-0.5692383,-3.087268,84.0
726,0.5656643,-2.6434245,1.4008491,1.2011353,-0.5692383,-3.087268,84.0
727,0.5656643,-2.6434245,1.4008491,1.3530029,-0.42692873,-2.9715087,84.0
728,0.409697,-2.2939022,1.3972661,1.3530029,-0.42692873,-2.9715087,84.0
729,0.409697,-2.2939022,1.3972661,1.1979493,-0.26975098,-2.7229981,84.0
730,0.21705201,-1.7606955,1.141458,1.1979493,-0.26975098,-2.7229981,84.0
731,0.21705201,-1.7606955,1.141458,0.72216797,-0.09770508,-2.4012086,84.0
732,0.27510646,-1.2118521,0.67256594,0.72216797,-0.09770508,-2.4012086,84.0
733,0.27510646,-1.2118521,0.67256594,0.08814698,0.0722168,-2.0220704,84.0
734,0.7118088,-0.9043207,0.15046716,0.08814698,0.0722168,-2.0220704,84.0
735,0.7118088,-0.9043207,0.15046716,-0.452417,0.23151855,-1.6153198,84.0
736,1.3668958,-0.8445139,-0.28482628,-0.452417,0.23151855,-1.6153198,84.0
737,1.3668958,-0.8445139,-0.28482628,-1.0269654,0.3791382,-1.170337,84.0
738,1.7279649,-0.8358526,-0.6477952,-1.0269654,0.3791382,-1.170337,84.0
739,1.7279649,-0.8358526,-0.6477952,-1.7661256,0.5140137,-0.62340087,84.0
740,1.3899403,-0.75750065,-1.033324,-1.7661256,0.5140137,-0.62340087,84.0
741,1.3899403,-0.75750065,-1.033324,-2.4585571,0.47896728,-0.057348635,84.0
742,0.47962797,-0.8938546,-1.3260732,-2.4585571,0.47896728,-0.057348635,84.0
743,0.47962797,-0.8938546,-1.3260732,-2.8472536,0.3430298,0.26019287,84.0
744,0.25405145,-0.9102254,-1.112824,-2.8472536,0.3430298,0.26019287,84.0
745,0.25405145,-0.9102254,-1.112824,-2.618921,-0.020178223,0.77951664,84.0
746,0.97936416,-0.7649603,-0.71823776,-2.618921,-0.020178223,0.77951664,84.0
747,0.97936416,-0.7649603,-0.71823776,-2.5817506,0.25913087,0.8666016,84.0
748,0.3615675,-0.9872732,-0.8033011,-2.5817506,0.25913087,0.8666016,84.0
749,0.3615675,-0.9872732,-0.8033011,-1.8054199,0.115759276,1.4570801,84.0
750,-1.1246986,-1.2033682,-1.297011,-1.8054199,0.115759276,1.4570801,84.0
751,-1.1246986,-1.2033682,-1.297011,-0.34090576,-0.08602295,1.7640015,84.0
752,-0.90475154,-1.4465446,-1.724352,-0.34090576,-0.08602295,1.7640015,84.0
753,-0.90475154,-1.4465446,-1.724352,1.4602661,-0.35471192,1.6885986,84.0
754,0.6065943,-1.1511202,-1.7286271,1.4602661,-0.35471192,1.6885986,84.0
755,0.6065943,-1.1511202,-1.7286271,3.0554078,-0.34833986,1.9615357,84.0
756,1.8222262,-0.36760044,-1.2908363,3.0554078,-0.34833986,1.9615357,84.0
757,1.8222262,-0.36760044,-1.2908363,4.439209,-0.33665773,2.0560548,84.0
758,2.079656,0.60128117,-0.77313536,4.439209,-0.33665773,2.0560548,84.0
759,2.079656,0.60128117,-0.77313536,5.0403075,-0.058410645,2.2387207,84.0
760,1.3013835,1.6170111,-0.41953367,5.0403075,-0.058410645,2.2387207,84.0
761,1.3013835,1.6170111,-0.41953367,4.9149904,0.2081543,2.461743,84.0
762,-0.09733319,2.515264,-0.32138133,4.9149904,0.2081543,2.461743,84.0
763,-0.09733319,2.515264,-0.32138133,4.370178,0.43754885,2.7346802,84.0
764,-1.403074,3.208537,-0.45860654,4.370178,0.43754885,2.7346802,84.0
765,-1.403074,3.208537,-0.45860654,4.370178,0.43754885,2.7346802,84.0
766,-1.403074,3.208537,-0.45860654,3.3740113,0.67331547,3.0479736,84.0
767,-2.2722883,3.6262293,-0.74961233,3.3740113,0.67331547,3.0479736,84.0
768,-2.2722883,3.6262293,-0.74961233,2.1102173,0.817749,3.2189577,84.0
769,-2.4843955,3.581208,-1.0320141,2.1102173,0.817749,3.2189577,84.0
770,-2.4843955,3.581208,-1.0320141,1.1076783,0.88040775,3.3920655,84.0
771,-1.9911053,3.1131842,-1.122352,1.1076783,0.88040775,3.3920655,84.0
772,-1.9911053,3.1131842,-1.122352,0.42055663,0.8506714,3.448352,84.0
773,-1.0431285,2.542171,-1.0391536,0.42055663,0.8506714,3.448352,84.0
774,-1.0431285,2.542171,-1.0391536,-0.1083252,0.8294312,3.4695923,84.0
775,-0.05457115,1.9823817,-0.9246701,-0.1083252,0.8294312,3.4695923,84.0
776,-0.05457115,1.9823817,-0.9246701,-0.29523927,0.7349121,3.3888795,84.0
777,0.77073514,1.4967086,-0.875515,-0.29523927,0.7349121,3.3888795,84.0
778,0.77073514,1.4967086,-0.875515,-0.2347046,0.6775635,3.2370117,84.0
779,1.3267078,1.2368078,-0.82612014,-0.2347046,0.6775635,3.2370117,84.0
780,1.3267078,1.2368078,-0.82612014,-0.3175415,0.70305175,2.8568115,84.0
781,1.4627945,1.1825126,-0.7088332,-0.3175415,0.70305175,2.8568115,84.0
782,1.4627945,1.1825126,-0.7088332,-0.5278198,0.73809814,2.5392702,84.0
783,1.1975062,1.2433978,-0.5684459,-0.5278198,0.73809814,2.5392702,84.0
784,1.1975062,1.2433978,-0.5684459,-0.83686525,0.7338501,2.2387207,84.0
785,0.74613976,1.3683634,-0.4749105,-0.83686525,0.7338501,2.2387207,84.0
786,0.74613976,1.3683634,-0.4749105,-0.9451904,0.59472656,1.9519776,84.0
787,0.3655398,1.5600715,-0.3577361,-0.9451904,0.59472656,1.9519776,84.0
788,0.3655398,1.5600715,-0.3577361,-1.0322754,0.4598511,1.6662964,84.0
789,0.14377451,1.6619365,-0.089045286,-1.0322754,0.4598511,1.6662964,84.0
790,0.14377451,1.6619365,-0.089045286,-1.0386475,0.29417726,1.3954834,84.0
791,0.21367693,1.3838096,0.3041544,-1.0386475,0.29417726,1.3954834,84.0
792,0.21367693,1.3838096,0.3041544,-0.7880127,0.09770508,1.0343994,84.0
793,0.6961124,0.8701701,0.717237,-0.7880127,0.09770508,1.0343994,84.0
794,0.6961124,0.8701701,0.717237,-0.4704712,-0.060534667,0.68287355,84.0
795,1.2802787,0.42889977,1.0719221,-0.4704712,-0.060534667,0.68287355,84.0
796,1.2802787,0.42889977,1.0719221,-0.04141846,-0.24213867,0.2803711,84.0
797,1.685893,0.14877176,1.3200988,-0.04141846,-0.24213867,0.2803711,84.0
798,1.685893,0.14877176,1.3200988,0.47365722,-0.42799073,-0.1985962,84.0
799,1.8327842,-0.03305769,1.5112059,0.47365722,-0.42799073,-0.1985962,84.0
800,1.8327842,-0.03305769,1.5112059,1.0354614,-0.60109866,-0.542688,84.0
801,1.290971,-0.09227872,1.7594042,1.0354614,-0.60109866,-0.542688,84.0
802,1.290971,-0.09227872,1.7594042,1.2977784,-0.56605226,-0.87191164,84.0
803,-0.056163788,0.0855155,1.9670448,1.2977784,-0.56605226,-0.87191164,84.0
804,-0.056163788,0.0855155,1.9670448,1.3105224,-0.6074707,-1.0588257,84.0
805,-1.271225,0.4518597,1.843338,1.3105224,-0.6074707,-1.0588257,84.0
806,-1.271225,0.4518597,1.843338,0.8878418,-0.7604004,-1.3381348,84.0
807,-1.132019,0.5463388,1.3395264,0.8878418,-0.7604004,-1.3381348,84.0
808,-1.132019,0.5463388,1.3395264,0.5055176,-0.8623535,-1.6673584,84.0
809,-0.020568848,0.17580414,0.9387598,0.5055176,-0.8623535,-1.6673584,84.0
810,-0.020568848,0.17580414,0.9387598,0.24320069,-0.83898926,-1.9349854,84.0
811,0.5111573,-0.23361206,0.85668415,0.24320069,-0.83898926,-1.9349854,84.0
812,0.5111573,-0.23361206,0.85668415,-0.06478272,-0.7720825,-2.0326905,84.0
813,0.017373085,-0.3447144,0.81874573,-0.06478272,-0.7720825,-2.0326905,84.0
814,0.017373085,-0.3447144,0.81874573,-0.34727785,-0.68287355,-1.9509156,84.0
815,-1.0655813,-0.17199945,0.62274563,-0.34727785,-0.68287355,-1.9509156,84.0
816,-1.0655813,-0.17199945,0.62274563,-0.62127686,-0.62552494,-1.7703736,84.0
817,-2.3499992,0.080112934,0.31059885,-0.62127686,-0.62552494,-1.7703736,84.0
818,-2.3499992,0.080112934,0.31059885,-0.92501223,-0.5979126,-1.5908936,84.0
819,-3.3758855,0.14518166,-0.012641549,-0.92501223,-0.5979126,-1.5908936,84.0
820,-3.3758855,0.14518166,-0.012641549,-1.1267945,-0.5798584,-1.5176147,84.0
821,-3.6936407,-0.029570103,-0.30758643,-1.1267945,-0.5798584,-1.5176147,84.0
822,-3.6936407,-0.029570103,-0.30758643,-1.4358399,-0.5299439,-1.4730103,84.0
823,-3.264605,-0.4207263,-0.53405744,-1.4358399,-0.5299439,-1.4730103,84.0
824,-3.264605,-0.4207263,-0.53405744,-1.8723267,-0.39400634,-1.6758546,84.0
825,-2.3545551,-1.0971402,-0.6397704,-1.8723267,-0.39400634,-1.6758546,84.0
826,-2.3545551,-1.0971402,-0.6397704,-1.178833,-0.41418457,-1.3795532,84.0
827,-1.4633317,-1.8179587,-0.5760253,-1.178833,-0.41418457,-1.3795532,84.0
828,-1.4633317,-1.8179587,-0.5760253,-0.7742066,-0.28355715,-1.6864747,84.0
829,-0.7245228,-2.278354,-0.39313224,-0.7742066,-0.28355715,-1.6864747,84.0
830,-0.7245228,-2.278354,-0.39313224,-0.32178956,-0.2516968,-2.0826051,84.0
831,0.0396322,-2.4158595,-0.0936684,-0.32178956,-0.2516968,-2.0826051,84.0
832,0.0396322,-2.4158595,-0.0936684,-0.06690674,-0.20072022,-2.241907,84.0
833,0.5696696,-2.4884615,0.3669232,-0.06690674,-0.20072022,-2.241907,84.0
834,0.5696696,-2.4884615,0.3669232,0.17947999,-0.14974366,-2.4723632,84.0
835,0.7050277,-2.6131325,0.89834815,0.17947999,-0.14974366,-2.4723632,84.0
836,0.7050277,-2.6131325,0.89834815,0.5129517,-0.16248779,-2.5424562,84.0
837,0.5896325,-2.544986,1.2761127,0.5129517,-0.16248779,-2.5424562,84.0
838,0.5896325,-2.544986,1.2761127,0.8729736,-0.14549561,-2.5424562,84.0
839,0.3815204,-2.277737,1.3606119,0.8729736,-0.14549561,-2.5424562,84.0
840,0.3815204,-2.277737,1.3606119,0.9483765,-0.11257324,-2.5201538,84.0
841,0.36582422,-1.92894,1.1044564,0.9483765,-0.11257324,-2.5201538,84.0
842,0.36582422,-1.92894,1.1044564,0.83474123,-0.10301514,-2.3810303,84.0
843,0.8699177,-1.6839113,0.69222,0.83474123,-0.10301514,-2.3810303,84.0
844,0.8699177,-1.6839113,0.69222,0.62764895,-0.023364259,-2.252527,84.0
845,1.8373282,-1.6060038,0.4131143,0.62764895,-0.023364259,-2.252527,84.0
846,1.8373282,-1.6060038,0.4131143,0.3462158,0.09239502,-2.061365,84.0
847,2.6349382,-1.5263069,0.24339426,0.3462158,0.09239502,-2.061365,84.0
848,2.6349382,-1.5263069,0.24339426,-0.10938721,0.16673584,-1.7618774,84.0
849,2.6724772,-1.1576543,-0.047655225,-0.10938721,0.16673584,-1.7618774,84.0
850,2.6724772,-1.1576543,-0.047655225,-1.0004151,0.18266602,-1.2807862,84.0
851,2.3217096,-0.75303984,-0.31157386,-1.0004151,0.18266602,-1.2807862,84.0
852,2.3217096,-0.75303984,-0.31157386,-1.6185058,0.16248779,-0.7720825,84.0
853,1.8677316,-0.65879154,-0.083792806,-1.6185058,0.16248779,-0.7720825,84.0
854,1.8677316,-0.65879154,-0.083792806,-1.8638306,0.14974366,-0.27718505,84.0
855,0.5508015,-0.75155735,0.39437938,-1.8638306,0.14974366,-0.27718505,84.0
856,0.5508015,-0.75155735,0.39437938,-1.8287842,0.13381349,0.16248779,84.0
857,-1.3926351,-0.9231577,0.3495977,-1.8287842,0.13381349,0.16248779,84.0
858,-1.3926351,-0.9231577,0.3495977,-1.3455689,0.0180542,0.61065674,84.0
859,-2.2672453,-1.1705451,-0.32167685,-1.3455689,0.0180542,0.61065674,84.0
860,-2.2672453,-1.1705451,-0.32167685,-0.2782471,-0.19541016,1.0259033,84.0
861,-1.7403222,-1.0961037,-0.58355,-0.2782471,-0.19541016,1.0259033,84.0
862,-1.7403222,-1.0961037,-0.58355,0.43754885,-0.3058594,1.2414917,84.0
863,0.7403594,-1.292654,-1.054401,0.43754885,-0.3058594,1.2414917,84.0
864,0.7403594,-1.292654,-1.054401,2.4957275,-0.4258667,1.8404664,84.0
865,1.1746118,-0.7172289,-0.7919096,2.4957275,-0.4258667,1.8404664,84.0
866,1.1746118,-0.7172289,-0.7919096,2.9269044,-0.39506838,1.993396,84.0
867,0.957939,0.8021202,-0.5196848,2.9269044,-0.39506838,1.993396,84.0
868,0.957939,0.8021202,-0.5196848,3.4717164,-0.22196046,2.3863404,84.0
869,0.30897808,1.3857026,-0.33474195,3.4717164,-0.22196046,2.3863404,84.0
870,0.30897808,1.3857026,-0.33474195,3.4897707,-0.15717773,2.5031617,84.0
871,-1.3644997,2.592937,-0.24274468,3.4897707,-0.15717773,2.5031617,84.0
872,-1.3644997,2.592937,-0.24274468,3.2773683,0.07434082,2.9906251,84.0
873,-1.54669,2.7704191,-0.29306042,3.2773683,0.07434082,2.9906251,84.0
874,-1.54669,2.7704191,-0.29306042,3.0639038,0.14124756,3.1085083,84.0
875,-2.1735826,3.3755271,-0.7315431,3.0639038,0.14124756,3.1085083,84.0
876,-2.1735826,3.3755271,-0.7315431,1.8054199,0.5256958,3.4037476,84.0
877,-1.83839,3.3140814,-0.8822316,1.8054199,0.5256958,3.4037476,84.0
878,-1.83839,3.3140814,-0.8822316,1.3997315,0.58410645,3.4759643,84.0
879,-1.83839,3.3140814,-0.8822316,1.3997315,0.58410645,3.4759643,84.0
880,-1.7399259,3.1974444,-1.2553092,1.3997315,0.58410645,3.4759643,84.0
881,-1.7399259,3.1974444,-1.2553092,0.29205322,0.6796875,3.530127,84.0
882,-1.2491184,2.9836514,-1.1859125,0.29205322,0.6796875,3.530127,84.0
883,-1.2491184,2.9836514,-1.1859125,0.011682129,0.68499756,3.4887085,84.0
884,-0.48352325,2.2818065,-1.1622676,0.011682129,0.68499756,3.4887085,84.0
885,-0.48352325,2.2818065,-1.1622676,-0.18372802,0.5161377,3.349585,84.0
886,0.08042991,1.9947933,-1.0343552,-0.18372802,0.5161377,3.349585,84.0
887,0.08042991,1.9947933,-1.0343552,-0.17735596,0.5033936,3.2051513,84.0
888,1.246656,1.242441,-1.066217,-0.17735596,0.5033936,3.2051513,84.0
889,1.246656,1.242441,-1.066217,-0.04991455,0.5171997,2.71875,84.0
890,1.5031109,1.1296217,-0.9806714,-0.04991455,0.5171997,2.71875,84.0
891,1.5031109,1.1296217,-0.9806714,0.014868164,0.5299439,2.5169678,84.0
892,1.7738999,0.8726306,-0.83468366,0.014868164,0.5299439,2.5169678,84.0
893,1.7738999,0.8726306,-0.83468366,-0.05628662,0.5979126,1.8468384,84.0
894,1.5762122,0.9138515,-0.67325234,-0.05628662,0.5979126,1.8468384,84.0
895,1.5762122,0.9138515,-0.67325234,-0.16779785,0.6085327,1.62594,84.0
896,1.1781939,1.003237,-0.4463656,-0.16779785,0.6085327,1.62594,84.0
897,1.1781939,1.003237,-0.4463656,-0.3462158,0.5607422,1.2298096,84.0
898,0.778749,1.0925798,-0.23039567,-0.3462158,0.5607422,1.2298096,84.0
899,0.778749,1.0925798,-0.23039567,-0.48321533,0.43011475,0.85385746,84.0
900,1.084547,1.100846,0.19421124,-0.48321533,0.43011475,0.85385746,84.0
901,1.084547,1.100846,0.19421124,-0.57561034,0.20072022,0.3695801,84.0
902,1.2782578,0.8973639,0.40336704,-0.57561034,0.20072022,0.3695801,84.0
903,1.2782578,0.8973639,0.40336704,-0.47896728,0.18797608,0.2516968,84.0
904,2.1030507,0.61667037,1.2677865,-0.47896728,0.18797608,0.2516968,84.0
905,2.1030507,0.61667037,1.2677865,-0.16779785,0.17523193,-0.14124756,84.0
906,1.9837222,0.50853395,1.2345173,-0.16779785,0.17523193,-0.14124756,84.0
907,1.9837222,0.50853395,1.2345173,-0.23364258,0.11363526,-0.3440918,84.0
908,2.3530054,0.40581393,1.0531412,-0.23364258,0.11363526,-0.3440918,84.0
909,2.3530054,0.40581393,1.0531412,-0.42374268,-0.021240234,-0.83474123,84.0
910,2.2851264,0.13613796,0.69295245,-0.42374268,-0.021240234,-0.83474123,84.0
911,2.2851264,0.13613796,0.69295245,-0.68499756,-0.02442627,-1.2468017,84.0
912,0.94792557,-0.009815216,0.7521647,-0.68499756,-0.02442627,-1.2468017,84.0
913,0.94792557,-0.009815216,0.7521647,-0.9239502,-0.013806152,-1.4369019,84.0
914,-0.5674286,-0.035550117,1.2568344,-0.9239502,-0.013806152,-1.4369019,84.0
915,-0.5674286,-0.035550117,1.2568344,-0.83049315,-0.16461182,-1.5101807,84.0
916,-0.6889527,-0.22547388,1.7155261,-0.83049315,-0.16461182,-1.5101807,84.0
917,-0.6889527,-0.22547388,1.7155261,-0.29948732,-0.22833252,-1.621692,84.0
918,-0.15458012,-0.47632647,1.8315029,-0.29948732,-0.22833252,-1.621692,84.0
919,-0.15458012,-0.47632647,1.8315029,0.21240234,-0.17841797,-1.6514282,84.0
920,-0.33493137,-0.39740634,1.5374436,0.21240234,-0.17841797,-1.6514282,84.0
921,-0.33493137,-0.39740634,1.5374436,0.20921631,-0.11363526,-1.5823975,84.0
922,-1.2047861,0.043207645,0.86411023,0.20921631,-0.11363526,-1.5823975,84.0
923,-1.2047861,0.043207645,0.86411023,-0.25913087,-0.04460449,-1.5038086,84.0
924,-2.2603133,0.48271084,0.051053762,-0.25913087,-0.04460449,-1.5038086,84.0
925,-2.2603133,0.48271084,0.051053762,-0.81881106,0.019116212,-1.4868164,84.0
926,-3.1809678,0.63710856,-0.5383928,-0.81881106,0.019116212,-1.4868164,84.0
927,-3.1809678,0.63710856,-0.5383928,-1.4284058,0.0637207,-1.4761963,84.0
928,-3.7328358,0.34417152,-0.7783339,-1.4284058,0.0637207,-1.4761963,84.0
929,-3.7328358,0.34417152,-0.7783339,-1.893567,0.10195313,-1.6896607,84.0
930,-3.6673844,-0.3144822,-0.8844224,-1.893567,0.10195313,-1.6896607,84.0
931,-3.6673844,-0.3144822,-0.8844224,-1.6163819,0.032922365,-1.448584,84.0
932,-3.1537075,-1.1058338,-0.985431,-1.6163819,0.032922365,-1.448584,84.0
933,-3.1537075,-1.1058338,-0.985431,-1.2850342,0.10407715,-1.7310791,84.0
934,-2.407878,-1.6725211,-0.9413112,-1.2850342,0.10407715,-1.7310791,84.0
935,-2.407878,-1.6725211,-0.9413112,-0.9451904,0.121069334,-1.9073731,84.0
936,-1.4973108,-2.0112348,-0.69262415,-0.9451904,0.121069334,-1.9073731,84.0
937,-1.4973108,-2.0112348,-0.69262415,-0.4991455,0.17523193,-2.1059692,84.0
938,-0.6284883,-2.2766025,-0.3186135,-0.4991455,0.17523193,-2.1059692,84.0
939,-0.6284883,-2.2766025,-0.3186135,-0.083898924,0.1996582,-2.3247437,84.0
940,0.030302525,-2.365276,0.044095993,-0.083898924,0.1996582,-2.3247437,84.0
941,0.030302525,-2.365276,0.044095993,0.08496094,0.25063476,-2.540332,84.0
942,0.4330554,-2.3272552,0.2933334,0.08496094,0.25063476,-2.540332,84.0
943,0.4330554,-2.3272552,0.2933334,0.19434814,0.2548828,-2.7484863,84.0
944,0.70481837,-2.295813,0.43530148,0.19434814,0.2548828,-2.7484863,84.0
945,0.70481837,-2.295813,0.43530148,0.25594482,0.21452637,-2.9109743,84.0
946,0.81652796,-2.248296,0.55967915,0.25594482,0.21452637,-2.9109743,84.0
947,0.81652796,-2.248296,0.55967915,0.20390625,0.19647217,-2.904602,84.0
948,0.72468233,-2.1760294,0.67699134,0.20390625,0.19647217,-2.904602,84.0
949,0.72468233,-2.1760294,0.67699134,0.121069334,0.16036378,-2.7676027,84.0
950,0.78713113,-2.1150546,0.7111732,0.121069334,0.16036378,-2.7676027,84.0
951,0.78713113,-2.1150546,0.7111732,0.118945315,0.107263185,-2.5658205,84.0
952,1.4778616,-2.086636,0.66926813,0.118945315,0.107263185,-2.5658205,84.0
953,1.4778616,-2.086636,0.66926813,0.21027832,0.078588866,-2.3321779,84.0
954,2.4318743,-2.001267,0.5806538,0.21027832,0.078588866,-2.3321779,84.0
955,2.4318743,-2.001267,0.5806538,0.10089111,0.0722168,-2.0146363,84.0
956,2.7144082,-1.6679935,0.37337315,0.10089111,0.0722168,-2.0146363,84.0
957,2.7144082,-1.6679935,0.37337315,-0.40993652,0.07434082,-1.5792115,84.0
958,2.0916195,-1.1242509,0.027055502,-0.40993652,0.07434082,-1.5792115,84.0
959,2.0916195,-1.1242509,0.027055502,-1.0683838,0.0063720704,-1.0556396,84.0
960,1.3930953,-0.6849842,-0.1556505,-1.0683838,0.0063720704,-1.0556396,84.0
961,1.3930953,-0.6849842,-0.1556505,-1.4878784,-0.06796875,-0.544812,84.0
962,0.81107044,-0.55036783,0.1216954,-1.4878784,-0.06796875,-0.544812,84.0
963,0.81107044,-0.55036783,0.1216954,-1.6333741,-0.090270996,-0.10089111,84.0
964,-0.23515248,-0.6883898,0.5123099,-1.6333741,-0.090270996,-0.10089111,84.0
965,-0.23515248,-0.6883898,0.5123099,-1.5069946,-0.1274414,0.2984253,84.0
966,-1.4523555,-0.9802284,0.42820728,-1.5069946,-0.1274414,0.2984253,84.0
967,-1.4523555,-0.9802284,0.42820728,-0.9228882,-0.23151855,0.6425171,84.0
968,-1.8102486,-1.255362,-0.15090334,-0.9228882,-0.23151855,0.6425171,84.0
969,-1.8102486,-1.255362,-0.15090334,0.07540283,-0.38551027,0.99935305,84.0
970,-0.8083063,-1.3868942,-0.6363965,0.07540283,-0.38551027,0.99935305,84.0
971,-0.8083063,-1.3868942,-0.6363965,1.3997315,-0.51932377,1.3965454,84.0
972,-0.8083063,-1.3868942,-0.6363965,1.3997315,-0.51932377,1.3965454,85.0
973,0.65174365,-1.065155,-0.65292823,1.3997315,-0.51932377,1.3965454,85.0
974,0.65174365,-1.065155,-0.65292823,2.5552003,-0.56605226,1.7990478,85.0
975,1.257015,-0.06552744,-0.37569952,2.5552003,-0.56605226,1.7990478,85.0
976,1.257015,-0.06552744,-0.37569952,3.1148803,-0.5097656,2.170752,85.0
977,0.75986004,1.1461253,-0.1221416,3.1148803,-0.5097656,2.170752,85.0
978,0.75986004,1.1461253,-0.1221416,3.3368409,-0.4439209,2.4606812,85.0
979,-0.2377907,2.0779352,0.020731568,3.3368409,-0.4439209,2.4606812,85.0
980,-0.2377907,2.0779352,0.020731568,3.3230348,-0.3462158,2.7484863,85.0
981,-1.1766218,2.7148995,0.053450465,3.3230348,-0.3462158,2.7484863,85.0
982,-1.1766218,2.7148995,0.053450465,2.9672608,-0.20709229,3.0203614,85.0
983,-1.7722423,3.121517,-0.0568856,2.9672608,-0.20709229,3.0203614,85.0
984,-1.7722423,3.121517,-0.0568856,2.3215578,0.008496094,3.3113525,85.0
985,-1.997933,3.2605314,-0.32058167,2.3215578,0.008496094,3.3113525,85.0
986,-1.997933,3.2605314,-0.32058167,1.6588624,0.17947999,3.511011,85.0
987,-1.8851995,3.1633568,-0.7028887,1.6588624,0.17947999,3.511011,85.0
988,-1.8851995,3.1633568,-0.7028887,1.0917481,0.27612305,3.6819947,85.0
989,-1.4523857,2.9382172,-1.0336001,1.0917481,0.27612305,3.6819947,85.0
990,-1.4523857,2.9382172,-1.0336001,0.6796875,0.28568116,3.6055298,85.0
991,-0.7977972,2.7190433,-1.104944,0.6796875,0.28568116,3.6055298,85.0
992,-0.7977972,2.7190433,-1.104944,-0.0541626,0.38869628,3.4876466,85.0
993,-0.1867485,2.3298488,-0.9093458,-0.0541626,0.38869628,3.4876466,85.0
994,-0.1867485,2.3298488,-0.9093458,-0.26656494,0.31860352,3.3251588,85.0
995,0.3275299,1.6814206,-0.671422,-0.26656494,0.31860352,3.3251588,85.0
996,0.3275299,1.6814206,-0.671422,-0.047790527,0.27612305,3.0575318,85.0
997,0.8953613,1.1292673,-0.5533729,-0.047790527,0.27612305,3.0575318,85.0
998,0.8953613,1.1292673,-0.5533729,0.09451904,0.31860352,2.529712,85.0
999,1.5019946,0.9161824,-0.57004213,0.09451904,0.31860352,2.529712,85.0
1000,1.5019946,0.9161824,-0.57004213,0.23364258,0.40356445,2.3109376,85.0
1001,1.8092984,0.87993073,-0.6750522,0.23364258,0.40356445,2.3109376,85.0
1002,1.8092984,0.87993073,-0.6750522,0.49064943,0.47471926,1.7342652,85.0
1003,1.7281638,1.0402361,-0.6611477,0.49064943,0.47471926,1.7342652,85.0
1004,1.7281638,1.0402361,-0.6611477,0.21134034,0.51082766,1.363623,85.0
1005,1.61831,1.2013295,-0.43715793,0.21134034,0.51082766,1.363623,85.0
1006,1.61831,1.2013295,-0.43715793,0.008496094,0.4630371,0.91757816,85.0
1007,1.7038399,1.1031535,-0.09013158,0.008496094,0.4630371,0.91757816,85.0
1008,1.7038399,1.1031535,-0.09013158,0.11257324,0.2803711,0.5734863,85.0
1009,1.9685041,1.0446932,0.22058272,0.11257324,0.2803711,0.5734863,85.0
1010,1.9685041,1.0446932,0.22058272,0.20709229,0.093457036,0.16992188,85.0
1011,2.0354111,1.2934451,0.32585585,0.20709229,0.093457036,0.16992188,85.0
1012,2.0354111,1.2934451,0.32585585,-0.0637207,-0.033984374,-0.20496826,85.0
1013,1.8647671,1.4798002,0.34888047,-0.0637207,-0.033984374,-0.20496826,85.0
1014,1.8647671,1.4798002,0.34888047,-0.3971924,-0.20178223,-0.540564,85.0
1015,1.9804368,1.1035423,0.533743,-0.3971924,-0.20178223,-0.540564,85.0
1016,1.9804368,1.1035423,0.533743,-0.5564942,-0.28780517,-0.95581055,85.0
1017,2.1037345,0.3972504,0.81465316,-0.5564942,-0.28780517,-0.95581055,85.0
1018,2.1037345,0.3972504,0.81465316,-0.7306641,-0.24744873,-1.3009644,85.0
1019,1.1954265,-0.0675025,0.9978285,-0.7306641,-0.24744873,-1.3009644,85.0
1020,1.1954265,-0.0675025,0.9978285,-0.8464233,-0.18691407,-1.4846925,85.0
1021,-0.18818998,-0.19106245,1.0204308,-0.8464233,-0.18691407,-1.4846925,85.0
1022,-0.18818998,-0.19106245,1.0204308,-0.7869507,-0.22302246,-1.5770874,85.0
1023,-0.505435,-0.24865079,0.88586366,-0.7869507,-0.22302246,-1.5770874,85.0
1024,-0.505435,-0.24865079,0.88586366,-0.61065674,-0.21240234,-1.6949707,85.0
1025,-0.12533188,-0.3641796,0.65997267,-0.61065674,-0.21240234,-1.6949707,85.0
1026,-0.12533188,-0.3641796,0.65997267,-0.5214478,-0.1178833,-1.8202881,85.0
1027,-0.3228364,-0.46764994,0.44870567,-0.5214478,-0.1178833,-1.8202881,85.0
1028,-0.3228364,-0.46764994,0.44870567,-0.63720703,-0.04991455,-1.8956909,85.0
1029,-1.1504934,-0.49073386,0.2580979,-0.63720703,-0.04991455,-1.8956909,85.0
1030,-1.1504934,-0.49073386,0.2580979,-1.1034302,0.09770508,-2.061365,85.0
1031,-2.1366055,-0.46205735,0.1343348,-1.1034302,0.09770508,-2.061365,85.0
1032,-2.1366055,-0.46205735,0.1343348,-1.5239868,0.19222413,-2.0241945,85.0
1033,-3.0720162,-0.5229173,0.1347872,-1.5239868,0.19222413,-2.0241945,85.0
1034,-3.0720162,-0.5229173,0.1347872,-1.8871949,0.25594482,-2.0326905,85.0
1035,-3.6802692,-0.90268445,0.025505543,-1.8871949,0.25594482,-2.0326905,85.0
1036,-3.6802692,-0.90268445,0.025505543,-1.2149414,0.31966552,-1.3869873,85.0
1037,-4.0170183,-1.4285805,-0.19867516,-1.2149414,0.31966552,-1.3869873,85.0
1038,-4.0170183,-1.4285805,-0.19867516,-1.179895,0.38444826,-2.3066895,85.0
1039,-3.7847817,-1.5523982,-0.43257296,-1.179895,0.38444826,-2.3066895,85.0
1040,-3.7847817,-1.5523982,-0.43257296,-0.80394286,0.33240968,-2.0443726,85.0
1041,-2.8317194,-1.6113522,-0.6141614,-0.80394286,0.33240968,-2.0443726,85.0
1042,-2.8317194,-1.6113522,-0.6141614,-0.68499756,0.35789797,-2.356604,85.0
1043,-1.6850411,-1.7613475,-0.5164512,-0.68499756,0.35789797,-2.356604,85.0
1044,-1.6850411,-1.7613475,-0.5164512,-0.6711914,0.35789797,-2.4543092,85.0
1045,-0.7229109,-2.0142903,-0.11107355,-0.6711914,0.35789797,-2.4543092,85.0
1046,-0.7229109,-2.0142903,-0.11107355,-0.62127686,0.38232422,-2.616797,85.0
1047,0.010892391,-2.3589544,0.36543804,-0.62127686,0.38232422,-2.616797,85.0
1048,0.010892391,-2.3589544,0.36543804,-0.4609131,0.37807617,-2.714502,85.0
1049,0.56847954,-2.610772,0.6436322,-0.4609131,0.37807617,-2.714502,85.0
1050,0.56847954,-2.610772,0.6436322,-0.29523927,0.34833986,-2.8132691,85.0
1051,0.56847954,-2.610772,0.6436322,-0.16354981,0.32816163,-2.8217652,85.0
1052,0.9190781,-2.6766424,0.6747446,-0.16354981,0.32816163,-2.8217652,85.0
1053,1.4108485,-3.1675713,0.9386116,-0.16354981,0.32816163,-2.8217652,85.0
1054,1.4108485,-3.1675713,0.9386116,-0.09133301,0.2984253,-2.707068,85.0
1055,1.4108485,-3.1675713,0.9386116,-0.083898924,0.24957275,-2.5095336,85.0
1056,1.4108485,-3.1675713,0.9386116,-0.020178223,0.19116211,-2.252527,85.0
1057,1.9360518,-2.8442621,0.93826723,-0.020178223,0.19116211,-2.252527,85.0
1058,1.9360518,-2.8442621,0.93826723,0.053100586,0.18585205,-1.9636596,85.0
1059,1.9360518,-2.8442621,0.93826723,0.053100586,0.18585205,-1.9636596,85.0
1060,2.4264295,-2.4538279,0.8175082,0.053100586,0.18585205,-1.9636596,85.0
1061,2.4264295,-2.4538279,0.8175082,-0.21134034,0.19753419,-1.6004517,85.0
1062,2.2334533,-1.8846078,0.44061542,-0.21134034,0.19753419,-1.6004517,85.0
1063,2.2334533,-1.8846078,0.44061542,-0.7848267,0.19328614,-1.1629028,85.0
1064,1.6213572,-1.3124228,-0.034360647,-0.7848267,0.19328614,-1.1629028,85.0
1065,1.6213572,-1.3124228,-0.034360647,-1.3052124,0.12000733,-0.6690674,85.0
1066,1.2236483,-0.9597769,-0.17359447,-1.3052124,0.12000733,-0.6690674,85.0
1067,1.2236483,-0.9597769,-0.17359447,-1.5590333,0.10407715,-0.16992188,85.0
1068,0.5715945,-0.8025751,0.08326793,-1.5590333,0.10407715,-0.16992188,85.0
1069,0.5715945,-0.8025751,0.08326793,-1.6185058,0.07434082,0.33771974,85.0
1070,-0.6389036,-0.7437568,0.15567684,-1.6185058,0.07434082,0.33771974,85.0
1071,-0.6389036,-0.7437568,0.15567684,-1.3402588,0.0010620117,0.81668705,85.0
1072,-1.4019921,-0.7449932,-0.24306107,-1.3402588,0.0010620117,0.81668705,85.0
1073,-1.4019921,-0.7449932,-0.24306107,-0.7062378,-0.15080567,1.2860962,85.0
1074,-0.7346308,-0.7737775,-0.7430694,-0.7062378,-0.15080567,1.2860962,85.0
1075,-0.7346308,-0.7737775,-0.7430694,0.2623169,-0.3175415,1.7480713,85.0
1076,0.955789,-0.71216154,-0.89234376,0.2623169,-0.3175415,1.7480713,85.0
1077,0.955789,-0.71216154,-0.89234376,1.3232666,-0.40462646,2.162256,85.0
1078,2.107539,-0.16850853,-0.6665728,1.3232666,-0.40462646,2.162256,85.0
1079,2.107539,-0.16850853,-0.6665728,1.9572877,-0.40144044,2.5541382,85.0
1080,1.9138143,0.78495646,-0.34734517,1.9572877,-0.40144044,2.5541382,85.0
1081,1.9138143,0.78495646,-0.34734517,2.2748291,-0.39188233,2.8610597,85.0
1082,0.82012606,1.7214103,-0.072395205,2.2748291,-0.39188233,2.8610597,85.0
1083,0.82012606,1.7214103,-0.072395205,2.3990846,-0.3355957,3.153113,85.0
1084,-0.4908595,2.4892254,0.13101208,2.3990846,-0.3355957,3.153113,85.0
1085,-0.4908595,2.4892254,0.13101208,2.270581,-0.24957275,3.445166,85.0
1086,-1.5796628,3.0590928,0.20739758,2.270581,-0.24957275,3.445166,85.0
1087,-1.5796628,3.0590928,0.20739758,1.8022339,-0.13168946,3.709607,85.0
1088,-2.1756444,3.3470178,0.048278928,1.8022339,-0.13168946,3.709607,85.0
1089,-2.1756444,3.3470178,0.048278928,1.2266235,-0.004248047,3.9347534,85.0
1090,-2.2200809,3.302065,-0.32432854,1.2266235,-0.004248047,3.9347534,85.0
1091,-2.2200809,3.302065,-0.32432854,0.8315552,0.07752686,4.076001,85.0
1092,-1.8237333,3.1171403,-0.7376855,0.8315552,0.07752686,4.076001,85.0
1093,-1.8237333,3.1171403,-0.7376855,0.53525394,0.13806152,4.1121097,85.0
1094,-1.178762,2.881896,-1.0067012,0.53525394,0.13806152,4.1121097,85.0
1095,-1.178762,2.881896,-1.0067012,0.50020754,0.11151123,4.190698,85.0
1096,-0.46266294,2.5192986,-1.1360006,0.50020754,0.11151123,4.190698,85.0
1097,-0.46266294,2.5192986,-1.1360006,0.542688,0.12531738,3.7308471,85.0
1098,0.2983511,2.1934052,-1.1667595,0.542688,0.12531738,3.7308471,85.0
1099,0.2983511,2.1934052,-1.1667595,0.544812,0.19116211,3.4143677,85.0
1100,0.89800704,1.9618163,-1.0888519,0.544812,0.19116211,3.4143677,85.0
1101,0.89800704,1.9618163,-1.0888519,0.6531372,0.18372802,3.1924074,85.0
1102,0.89800704,1.9618163,-1.0888519,0.4694092,0.25913087,2.626355,85.0
1103,1.2032323,1.7913281,-0.90177006,0.4694092,0.25913087,2.626355,85.0
1104,1.6183232,1.8260069,-0.3897022,0.4694092,0.25913087,2.626355,85.0
1105,1.6183232,1.8260069,-0.3897022,0.23364258,0.3334717,2.1261475,85.0
1106,1.6183232,1.8260069,-0.3897022,0.03717041,0.34727785,1.6386842,85.0
1107,1.6183232,1.8260069,-0.3897022,-0.2814331,0.31966552,1.1437867,85.0
1108,1.613494,1.5615134,-0.094928265,-0.2814331,0.31966552,1.1437867,85.0
1109,1.613494,1.5615134,-0.094928265,-0.49171144,0.21240234,0.5787964,85.0
1110,1.9027215,1.205131,0.098190725,-0.49171144,0.21240234,0.5787964,85.0
1111,1.9027215,1.205131,0.098190725,-0.47896728,0.009558106,0.06159668,85.0
1112,2.0928192,0.92423654,0.10404086,-0.47896728,0.009558106,0.06159668,85.0
1113,2.0928192,0.92423654,0.10404086,-0.4970215,-0.1720459,-0.46622315,85.0
1114,1.9337525,0.66761184,0.12195337,-0.4970215,-0.1720459,-0.46622315,85.0
1115,1.9337525,0.66761184,0.12195337,-0.44816896,-0.36851808,-0.996167,85.0
1116,1.9331713,0.14938474,0.3606364,-0.44816896,-0.36851808,-0.996167,85.0
1117,1.9331713,0.14938474,0.3606364,-0.1996582,-0.50445557,-1.6376221,85.0
1118,2.0788612,-0.5123038,0.7490194,-0.1996582,-0.50445557,-1.6376221,85.0
1119,2.0788612,-0.5123038,0.7490194,0.032922365,-0.47790527,-2.1176515,85.0
1120,1.2443633,-0.8111491,1.0534757,0.032922365,-0.47790527,-2.1176515,85.0
1121,1.2443633,-0.8111491,1.0534757,0.0722168,-0.38338622,-2.2939453,85.0
1122,-0.2952199,-0.6578181,1.0970043,0.0722168,-0.38338622,-2.2939453,85.0
1123,-0.2952199,-0.6578181,1.0970043,0.02442627,-0.37701416,-2.261023,85.0
1124,-0.78364897,-0.37670612,0.82836026,0.02442627,-0.37701416,-2.261023,85.0
1125,-0.78364897,-0.37670612,0.82836026,0.08814698,-0.4609131,-2.264209,85.0
1126,0.051938295,-0.20265889,0.4120046,0.08814698,-0.4609131,-2.264209,85.0
1127,0.051938295,-0.20265889,0.4120046,0.028674318,-0.44073486,-2.3321779,85.0
1128,0.62663364,-0.25833082,0.13663495,0.028674318,-0.44073486,-2.3321779,85.0
1129,0.62663364,-0.25833082,0.13663495,-0.26762697,-0.36745605,-2.3619142,85.0
1130,0.037317514,-0.5005491,0.0765931,-0.26762697,-0.36745605,-2.3619142,85.0
1131,0.037317514,-0.5005491,0.0765931,-0.62977296,-0.34090576,-2.34386,85.0
1132,-1.1262739,-0.6604979,0.17077154,-0.62977296,-0.34090576,-2.34386,85.0
1133,-1.1262739,-0.6604979,0.17077154,-1.4666382,-0.11044922,-2.440503,85.0
1134,-2.400897,-0.64552486,0.3915977,-1.4666382,-0.11044922,-2.440503,85.0
1135,-2.400897,-0.64552486,0.3915977,-2.2365968,0.059472658,-2.1643798,85.0
1136,-3.6426415,-0.73299706,0.51501155,-2.2365968,0.059472658,-2.1643798,85.0
1137,-3.6426415,-0.73299706,0.51501155,-2.5201538,0.0722168,-1.8627685,85.0
1138,-4.3981466,-1.001693,0.34233153,-2.5201538,0.0722168,-1.8627685,85.0
1139,-4.3981466,-1.001693,0.34233153,-2.5456421,0.23789063,-1.7916138,85.0
1140,-4.324645,-1.1990961,0.09072316,-2.5456421,0.23789063,-1.7916138,85.0
1141,-4.324645,-1.1990961,0.09072316,-3.068152,0.5703003,-1.989148,85.0
1142,-3.420373,-1.5902584,-0.28889608,-3.068152,0.5703003,-1.989148,85.0
1143,-3.420373,-1.5902584,-0.28889608,-1.3083985,0.27399904,-1.2754761,85.0
1144,-2.4726143,-2.095107,-0.77381706,-1.3083985,0.27399904,-1.2754761,85.0
1145,-2.4726143,-2.095107,-0.77381706,-0.078588866,0.1359375,-2.1505737,85.0
1146,-1.4613311,-2.0426629,-0.77097017,-0.078588866,0.1359375,-2.1505737,85.0
1147,-1.4613311,-2.0426629,-0.77097017,0.081774905,0.14018555,-2.177124,85.0
1148,-0.12664557,-2.1069696,-0.20290896,0.081774905,0.14018555,-2.177124,85.0
1149,-0.12664557,-2.1069696,-0.20290896,0.3355957,0.18372802,-2.3651001,85.0
1150,0.8076434,-2.524626,0.5759663,0.3355957,0.18372802,-2.3651001,85.0
1151,0.8076434,-2.524626,0.5759663,0.7678345,0.15930176,-2.5127199,85.0
1152,1.1374234,-2.7015123,1.2483463,0.7678345,0.15930176,-2.5127199,85.0
1153,1.1374234,-2.7015123,1.2483463,1.0609497,0.15611573,-2.6847656,85.0
1154,1.0560936,-2.4617105,1.6059158,1.0609497,0.15611573,-2.6847656,85.0
1155,1.0560936,-2.4617105,1.6059158,1.088562,0.13699952,-2.712378,85.0
1156,1.0560936,-2.4617105,1.6059158,0.87403566,0.11151123,-2.541394,85.0
1157,0.7720599,-1.9659505,1.5439246,0.87403566,0.11151123,-2.541394,85.0
1158,2.6750088,-1.9001651,1.1166704,0.87403566,0.11151123,-2.541394,85.0
1159,2.6750088,-1.9001651,1.1166704,0.5501221,0.0998291,-2.3119996,85.0
1160,2.6750088,-1.9001651,1.1166704,0.26337892,0.1539917,-2.0443726,85.0
1161,2.6750088,-1.9001651,1.1166704,-0.083898924,0.23258057,-1.6684204,85.0
1162,2.6750088,-1.9001651,1.1166704,-0.083898924,0.23258057,-1.6684204,86.0
1163,2.779033,-1.5636134,0.668385,-0.083898924,0.23258057,-1.6684204,86.0
1164,2.779033,-1.5636134,0.668385,-0.67225343,0.29948732,-1.2064453,86.0
1165,2.0822353,-1.0428462,0.032901287,-0.67225343,0.29948732,-1.2064453,86.0
1166,2.0822353,-1.0428462,0.032901287,-1.363623,0.30161133,-0.6680054,86.0
1167,1.3953292,-0.6127806,-0.39367414,-1.363623,0.30161133,-0.6680054,86.0
1168,1.3953292,-0.6127806,-0.39367414,-1.8287842,0.28461915,-0.13062744,86.0
1169,0.8187659,-0.4534812,-0.24955845,-1.8287842,0.28461915,-0.13062744,86.0
1170,0.8187659,-0.4534812,-0.24955845,-2.0284424,0.26337892,0.4248047,86.0
1171,-0.14206982,-0.52302647,0.09824133,-2.0284424,0.26337892,0.4248047,86.0
1172,-0.14206982,-0.52302647,0.09824133,-1.7916138,0.19647217,0.93138427,86.0
1173,-1.0351158,-0.6675668,0.020841599,-1.7916138,0.19647217,0.93138427,86.0
1174,-1.0351158,-0.6675668,0.020841599,-1.2276856,0.06478272,1.4039795,86.0
1175,-0.9756268,-0.75526905,-0.5213883,-1.2276856,0.06478272,1.4039795,86.0
1176,-0.9756268,-0.75526905,-0.5213883,-0.3791382,-0.0998291,1.7916138,86.0
1177,0.15975738,-0.79816055,-1.0035243,-0.3791382,-0.0998291,1.7916138,86.0
1178,0.15975738,-0.79816055,-1.0035243,0.73703617,-0.23258057,2.0911012,86.0
1179,1.4278548,-0.5497465,-1.0737667,0.73703617,-0.23258057,2.0911012,86.0
1180,1.4278548,-0.5497465,-1.0737667,1.7119629,-0.28780517,2.3194337,86.0
1181,1.8849597,0.17244625,-0.8477951,1.7119629,-0.28780517,2.3194337,86.0
1182,1.8849597,0.17244625,-0.8477951,2.2833252,-0.2782471,2.4776733,86.0
1183,1.3493009,1.097784,-0.5495374,2.2833252,-0.2782471,2.4776733,86.0
1184,1.3493009,1.097784,-0.5495374,2.5020998,-0.19541016,2.5849366,86.0
1185,0.08072257,1.9493332,-0.3141905,2.5020998,-0.19541016,2.5849366,86.0
1186,0.08072257,1.9493332,-0.3141905,2.4086425,-0.07752686,2.7410524,86.0
1187,-1.3446382,2.6338074,-0.22276354,2.4086425,-0.07752686,2.7410524,86.0
1188,-1.3446382,2.6338074,-0.22276354,1.9944581,0.050976563,2.9247804,86.0
1189,-2.4068751,3.0985987,-0.33631635,1.9944581,0.050976563,2.9247804,86.0
1190,-2.4068751,3.0985987,-0.33631635,1.4061035,0.15930176,3.1435547,86.0
1191,-2.9208982,3.312253,-0.65490514,1.4061035,0.15930176,3.1435547,86.0
1192,-2.9208982,3.312253,-0.65490514,0.7349121,0.21452637,3.348523,86.0
1193,-2.898413,3.2347512,-1.0059066,0.7349121,0.21452637,3.348523,86.0
1194,-2.898413,3.2347512,-1.0059066,0.31329346,0.1731079,3.4908326,86.0
1195,-2.2948413,2.8846028,-1.2016369,0.31329346,0.1731079,3.4908326,86.0
1196,-2.2948413,2.8846028,-1.2016369,0.31966552,0.06159668,3.6087158,86.0
1197,-1.1960658,2.4403605,-1.2769345,0.31966552,0.06159668,3.6087158,86.0
1198,-1.1960658,2.4403605,-1.2769345,0.41099855,0.0180542,3.4419801,86.0
1199,-0.07458949,1.990411,-1.2726219,0.41099855,0.0180542,3.4419801,86.0
1200,-0.07458949,1.990411,-1.2726219,0.7593384,-0.058410645,3.3049805,86.0
1201,0.8275721,1.6451242,-1.1618963,0.7593384,-0.058410645,3.3049805,86.0
1202,0.8275721,1.6451242,-1.1618963,0.9494385,-0.025488282,2.9449584,86.0
1203,0.8275721,1.6451242,-1.1618963,0.727478,0.04248047,2.4967897,86.0
1204,1.5254855,1.5050032,-0.8946049,0.727478,0.04248047,2.4967897,86.0
1205,2.7315211,1.3162584,0.048439622,0.727478,0.04248047,2.4967897,86.0
1206,2.7315211,1.3162584,0.048439622,0.28355715,0.18479005,1.9615357,86.0
1207,2.7315211,1.3162584,0.048439622,-0.107263185,0.28461915,1.4761963,86.0
1208,2.7315211,1.3162584,0.048439622,-0.41206056,0.32816163,0.9759888,86.0
1209,2.3936155,1.1485512,0.124261975,-0.41206056,0.32816163,0.9759888,86.0
1210,2.3936155,1.1485512,0.124261975,-0.4694092,0.28568116,0.5076416,86.0
1211,2.1259153,1.1978204,0.14374554,-0.4694092,0.28568116,0.5076416,86.0
1212,2.1259153,1.1978204,0.14374554,-0.4704712,0.20072022,0.06265869,86.0
1213,1.8437133,1.370976,0.19966441,-0.4704712,0.20072022,0.06265869,86.0
1214,1.8437133,1.370976,0.19966441,-0.48427734,0.04885254,-0.31010744,86.0
1215,1.5682567,1.436893,0.44438732,-0.48427734,0.04885254,-0.31010744,86.0
1216,1.5682567,1.436893,0.44438732,-0.38444826,-0.121069334,-0.65207523,86.0
1217,1.9371371,1.0776393,0.8956466,-0.38444826,-0.121069334,-0.65207523,86.0
1218,1.9371371,1.0776393,0.8956466,-0.15823975,-0.2899292,-1.1459106,86.0
1219,2.9709134,0.27375698,1.2211559,-0.15823975,-0.2899292,-1.1459106,86.0
1220,2.9709134,0.27375698,1.2211559,-0.059472658,-0.33771974,-1.6248779,86.0
1221,2.9582858,-0.4826424,1.2884116,-0.059472658,-0.33771974,-1.6248779,86.0
1222,2.9582858,-0.4826424,1.2884116,-0.20390625,-0.20603028,-1.9434814,86.0
1223,1.3231106,-0.8316705,1.34987,-0.20390625,-0.20603028,-1.9434814,86.0
1224,1.3231106,-0.8316705,1.34987,-0.19753419,-0.16992188,-2.0549927,86.0
1225,0.04703808,-0.8085005,1.3918955,-0.19753419,-0.16992188,-2.0549927,86.0
1226,0.04703808,-0.8085005,1.3918955,0.03186035,-0.2166504,-1.993396,86.0
1227,0.0053429604,-0.5464709,1.2073762,0.03186035,-0.2166504,-1.993396,86.0
1228,0.0053429604,-0.5464709,1.2073762,0.19328614,-0.16885987,-1.9583496,86.0
1229,-0.028342724,-0.19088769,0.8202834,0.19328614,-0.16885987,-1.9583496,86.0
1230,-0.028342724,-0.19088769,0.8202834,0.027612304,-0.17841797,-1.906311,86.0
1231,-0.7303891,0.11951876,0.27826047,0.027612304,-0.17841797,-1.906311,86.0
1232,-0.7303891,0.11951876,0.27826047,-0.6680054,-0.081774905,-1.9392334,86.0
1233,-1.8941867,0.24992418,-0.20432043,-0.6680054,-0.081774905,-1.9392334,86.0
1234,-1.8941867,0.24992418,-0.20432043,-1.634436,0.08496094,-1.9137452,86.0
1235,-3.2512014,0.045386076,-0.33684504,-1.634436,0.08496094,-1.9137452,86.0
1236,-3.2512014,0.045386076,-0.33684504,-2.4574952,0.17629395,-1.9264892,86.0
1237,-4.272995,-0.49932337,-0.26552093,-2.4574952,0.17629395,-1.9264892,86.0
1238,-4.272995,-0.49932337,-0.26552093,-2.4851074,0.22302246,-1.719397,86.0
1239,-4.5491457,-1.1608355,-0.38081276,-2.4851074,0.22302246,-1.719397,86.0
1240,-4.5491457,-1.1608355,-0.38081276,-2.0974731,0.31966552,-1.7300171,86.0
1241,-4.1660132,-1.647516,-0.7423089,-2.0974731,0.31966552,-1.7300171,86.0
1242,-4.1660132,-1.647516,-0.7423089,-1.5823975,0.4258667,-1.9137452,86.0
1243,-3.3552108,-1.9018996,-1.0655756,-1.5823975,0.4258667,-1.9137452,86.0
1244,-3.3552108,-1.9018996,-1.0655756,-0.98448485,0.32603762,-2.0486207,86.0
1245,-2.3041515,-2.048253,-1.1173165,-0.98448485,0.32603762,-2.0486207,86.0
1246,-2.3041515,-2.048253,-1.1173165,-0.32391357,0.2516968,-2.1505737,86.0
1247,-1.1748154,-2.1439004,-0.75728095,-0.32391357,0.2516968,-2.1505737,86.0
1248,-1.1748154,-2.1439004,-0.75728095,-0.16567384,0.20921631,-2.4022706,86.0
1249,-0.11690307,-2.3396442,-0.0696065,-0.16567384,0.20921631,-2.4022706,86.0
1250,-0.11690307,-2.3396442,-0.0696065,0.043542482,0.1996582,-2.5913086,86.0
1251,0.6470902,-2.7414908,0.6270052,0.043542482,0.1996582,-2.5913086,86.0
1252,0.6470902,-2.7414908,0.6270052,0.4630371,0.1720459,-2.7633545,86.0
1253,1.0098718,-2.9609783,1.1089406,0.4630371,0.1720459,-2.7633545,86.0
1254,1.0098718,-2.9609783,1.1089406,0.8007569,0.18372802,-2.8270752,86.0
1255,1.0886714,-2.8595052,1.2971013,0.8007569,0.18372802,-2.8270752,86.0
1256,1.0886714,-2.8595052,1.2971013,1.0046631,0.18797608,-2.7877808,86.0
1257,1.0886714,-2.8595052,1.2971013,1.0482056,0.17841797,-2.5721924,86.0
1258,1.0597922,-2.560834,1.2512308,1.0482056,0.17841797,-2.5721924,86.0
1259,1.0597922,-2.560834,1.2512308,1.0482056,0.17841797,-2.5721924,85.0
1260,2.4713566,-1.9168801,1.2120198,1.0482056,0.17841797,-2.5721924,85.0
1261,2.4713566,-1.9168801,1.2120198,0.9451904,0.15186767,-2.250403,85.0
1262,2.4713566,-1.9168801,1.2120198,0.71367186,0.17735596,-1.8489624,85.0
1263,2.4713566,-1.9168801,1.2120198,0.22196046,0.15505372,-1.358313,85.0
1264,2.502415,-1.124825,0.77040935,0.22196046,0.15505372,-1.358313,85.0
1265,2.502415,-1.124825,0.77040935,-0.63826907,0.15823975,-0.8251831,85.0
1266,2.1817293,-0.48463774,0.15733099,-0.63826907,0.15823975,-0.8251831,85.0
1267,2.1817293,-0.48463774,0.15733099,-1.4942505,0.11257324,-0.27612305,85.0
1268,1.9782083,-0.32218266,-0.15586126,-1.4942505,0.11257324,-0.27612305,85.0
1269,1.9782083,-0.32218266,-0.15586126,-1.9360474,0.052038576,0.18266602,85.0
1270,1.5797956,-0.5963206,0.11025977,-1.9360474,0.052038576,0.18266602,85.0
1271,1.5797956,-0.5963206,0.11025977,-2.1155274,0.040356446,0.6637573,85.0
1272,0.3557067,-0.98667574,0.42629373,-2.1155274,0.040356446,0.6637573,85.0
1273,0.3557067,-0.98667574,0.42629373,-1.814978,-0.022302246,1.0821899,85.0
1274,-0.994231,-1.2832861,0.19383049,-1.814978,-0.022302246,1.0821899,85.0
1275,-0.994231,-1.2832861,0.19383049,-1.0269654,-0.17947999,1.4677002,85.0
1276,-1.1421133,-1.4425712,-0.41909337,-1.0269654,-0.17947999,1.4677002,85.0
1277,-1.1421133,-1.4425712,-0.41909337,0.24107666,-0.3727661,1.7937378,85.0
1278,0.07614088,-1.3478923,-0.8118129,0.24107666,-0.3727661,1.7937378,85.0
1279,0.07614088,-1.3478923,-0.8118129,1.6917847,-0.5012695,2.086853,85.0
1280,1.3960568,-0.6783991,-0.7477535,1.6917847,-0.5012695,2.086853,85.0
1281,1.3960568,-0.6783991,-0.7477535,2.7399902,-0.5033936,2.3353639,85.0
1282,1.7205198,0.48024225,-0.43394494,2.7399902,-0.5033936,2.3353639,85.0
1283,1.7205198,0.48024225,-0.43394494,3.164795,-0.38763428,2.5254638,85.0
1284,0.95437,1.5950704,-0.112561226,3.164795,-0.38763428,2.5254638,85.0
1285,0.95437,1.5950704,-0.112561226,3.2922363,-0.2442627,2.716626,85.0
1286,-0.3845997,2.467536,0.041689277,3.2922363,-0.2442627,2.716626,85.0
1287,-0.3845997,2.467536,0.041689277,2.992749,-0.07965088,2.9587648,85.0
1288,-1.6000749,3.1156304,-0.055674434,2.992749,-0.07965088,2.9587648,85.0
1289,-1.6000749,3.1156304,-0.055674434,2.2896974,0.12213135,3.1913452,85.0
1290,-2.3337831,3.4314692,-0.38158786,2.2896974,0.12213135,3.1913452,85.0
1291,-2.3337831,3.4314692,-0.38158786,1.5080566,0.29205322,3.448352,85.0
1292,-2.519663,3.3761692,-0.804489,1.5080566,0.29205322,3.448352,85.0
1293,-2.519663,3.3761692,-0.804489,0.97280276,0.3812622,3.6427002,85.0
1294,-2.103548,3.0955276,-1.1837769,0.97280276,0.3812622,3.6427002,85.0
1295,-2.103548,3.0955276,-1.1837769,0.6669434,0.36427003,3.7510254,85.0
1296,-1.194313,2.705182,-1.4029052,0.6669434,0.36427003,3.7510254,85.0
1297,-1.194313,2.705182,-1.4029052,0.9122681,0.26656494,3.9581177,85.0
1298,-0.11101681,2.3157814,-1.4560522,0.9122681,0.26656494,3.9581177,85.0
1299,-0.11101681,2.3157814,-1.4560522,0.9366943,0.31223145,3.4812744,85.0
1300,0.8711353,2.146302,-1.3279155,0.9366943,0.31223145,3.4812744,85.0
1301,0.8711353,2.146302,-1.3279155,0.8750977,0.4258667,3.5588014,85.0
1302,1.4659146,2.0300786,-1.0048007,0.8750977,0.4258667,3.5588014,85.0
1303,1.4659146,2.0300786,-1.0048007,0.48109132,0.4959595,3.1106324,85.0
1304,1.4659146,2.0300786,-1.0048007,-0.015930176,0.62340087,2.806897,85.0
1305,1.6428488,1.808438,-0.60292506,-0.015930176,0.62340087,2.806897,85.0
1306,1.7656463,1.8713477,-0.27239132,-0.015930176,0.62340087,2.806897,85.0
1307,1.7656463,1.8713477,-0.27239132,-0.52250975,0.724292,2.3863404,85.0
1308,1.7656463,1.8713477,-0.27239132,-0.92926025,0.7848267,1.9572877,85.0
1309,1.7656463,1.8713477,-0.27239132,-0.991919,0.7104859,1.5006226,85.0
1310,1.5401905,1.815999,-0.2964409,-0.991919,0.7104859,1.5006226,85.0
1311,1.5401905,1.815999,-0.2964409,-1.0503296,0.60959476,0.90802,85.0
1312,-0.9759897,-1.5414025,0.6605157,-1.0503296,0.60959476,0.90802,85.0
1313,-0.9759897,-1.5414025,0.6605157,-1.0343994,0.42374268,0.3164795,85.0
1314,-0.49880934,-1.0535566,0.55495065,-1.0343994,0.42374268,0.3164795,85.0
1315,-0.49880934,-1.0535566,0.55495065,-0.8793457,0.17416993,-0.20178223,85.0
1316,0.047668815,-0.8906969,0.7732941,-0.8793457,0.17416993,-0.20178223,85.0
1317,0.047668815,-0.8906969,0.7732941,-0.68924564,-0.10089111,-0.632959,85.0
1318,1.0271732,-1.0298183,1.1410352,-0.68924564,-0.10089111,-0.632959,85.0
1319,1.0271732,-1.0298183,1.1410352,-0.46516114,-0.34727785,-1.2064453,85.0
1320,1.9593728,-1.3689474,1.4375962,-0.46516114,-0.34727785,-1.2064453,85.0
1321,1.9593728,-1.3689474,1.4375962,-0.18160401,-0.46516114,-1.6885986,85.0
1322,1.5766656,-1.6430095,1.6807654,-0.18160401,-0.46516114,-1.6885986,85.0
1323,1.5766656,-1.6430095,1.6807654,0.13062744,-0.5214478,-2.0486207,85.0
1324,0.41028285,-1.6775546,1.821651,0.13062744,-0.5214478,-2.0486207,85.0
1325,0.41028285,-1.6775546,1.821651,0.42905274,-0.5692383,-2.253589,85.0
1326,0.21350455,-1.5985867,1.744125,0.42905274,-0.5692383,-2.253589,85.0
1327,0.21350455,-1.5985867,1.744125,0.6860596,-0.540564,-2.4723632,85.0
1328,0.7647612,-1.5015867,1.4691527,0.6860596,-0.540564,-2.4723632,85.0
1329,0.7647612,-1.5015867,1.4691527,0.6775635,-0.40250245,-2.636975,85.0
1330,0.6774461,-1.342993,1.070476,0.6775635,-0.40250245,-2.636975,85.0
1331,0.6774461,-1.342993,1.070476,0.28461915,-0.3058594,-2.7314942,85.0
1332,-0.19905853,-1.1254687,0.6136198,0.28461915,-0.3058594,-2.7314942,85.0
1333,-0.19905853,-1.1254687,0.6136198,-0.29311523,-0.2177124,-2.7389283,85.0
1334,-1.3425965,-0.8914517,0.20938945,-0.29311523,-0.2177124,-2.7389283,85.0
1335,-1.3425965,-0.8914517,0.20938945,-1.0715698,-0.0031860352,-2.6996338,85.0
1336,-2.5553029,-0.7777488,-0.009221792,-1.0715698,-0.0031860352,-2.6996338,85.0
1337,-2.5553029,-0.7777488,-0.009221792,-1.989148,0.19647217,-2.6911378,85.0
1338,-3.5095866,-1.1064641,-0.20276332,-1.989148,0.19647217,-2.6911378,85.0
1339,-3.5095866,-1.1064641,-0.20276332,-2.3778443,0.19541016,-2.5966187,85.0
1340,-3.6098666,-1.7853055,-0.64652467,-2.3778443,0.19541016,-2.5966187,85.0
1341,-3.6098666,-1.7853055,-0.64652467,-1.9625977,0.15823975,-2.3958986,85.0
1342,-2.964126,-2.3760595,-1.1478838,-1.9625977,0.15823975,-2.3958986,85.0
1343,-2.964126,-2.3760595,-1.1478838,-1.3030884,0.18797608,-2.5456421,85.0
1344,-1.9069332,-2.7326345,-1.3119106,-1.3030884,0.18797608,-2.5456421,85.0
1345,-1.9069332,-2.7326345,-1.3119106,-0.7763306,0.12850343,-2.5095336,85.0
1346,-0.5180392,-2.982421,-0.9825486,-0.7763306,0.12850343,-2.5095336,85.0
1347,-0.5180392,-2.982421,-0.9825486,-0.16142578,0.13381349,-2.6475952,85.0
1348,0.8198093,-3.1518426,-0.27649295,-0.16142578,0.13381349,-2.6475952,85.0
1349,0.8198093,-3.1518426,-0.27649295,-0.007434082,0.16992188,-2.7559204,85.0
1350,1.2866702,-3.0326557,0.1176728,-0.007434082,0.16992188,-2.7559204,85.0
1351,1.2866702,-3.0326557,0.1176728,0.027612304,0.22514649,-2.7803466,85.0
1352,1.7021267,-2.9224992,1.0814064,0.027612304,0.22514649,-2.7803466,85.0
1353,1.7021267,-2.9224992,1.0814064,0.21877442,0.27399904,-2.7697265,85.0
1354,1.5486276,-2.600121,1.02815,0.21877442,0.27399904,-2.7697265,85.0
1355,1.5486276,-2.600121,1.02815,0.19434814,0.26444092,-2.7346802,85.0
1356,1.388304,-1.9140568,0.8326397,0.19434814,0.26444092,-2.7346802,85.0
1357,1.388304,-1.9140568,0.8326397,-0.124255374,0.24213867,-2.541394,85.0
1358,1.388304,-1.9140568,0.8326397,-0.24744873,0.22833252,-2.433069,85.0
1359,1.4669908,-1.6895094,0.5651231,-0.24744873,0.22833252,-2.433069,85.0
1360,3.591134,-1.9343958,0.058214188,-0.24744873,0.22833252,-2.433069,85.0
1361,3.591134,-1.9343958,0.058214188,-0.24744873,0.22833252,-2.433069,86.0
1362,3.591134,-1.9343958,0.058214188,-0.52250975,0.2888672,-2.095349,86.0
1363,3.591134,-1.9343958,0.058214188,-0.6637573,0.32497558,-1.9562256,86.0
1364,3.591134,-1.9343958,0.058214188,-1.1522827,0.3355957,-1.4953126,86.0
1365,2.8729074,-1.5475168,0.046571255,-1.1522827,0.3355957,-1.4953126,86.0
1366,2.7204938,-1.2902966,-1.1272815,-1.1522827,0.3355957,-1.4953126,86.0
1367,2.7204938,-1.2902966,-1.1272815,-1.2988404,0.30054933,-1.2977784,86.0
1368,2.7204938,-1.2902966,-1.1272815,-1.6737305,0.13912354,-0.55755615,86.0
1369,2.7204938,-1.2902966,-1.1272815,-1.6652344,0.093457036,-0.32709962,86.0
1370,1.5418859,-1.3224106,-0.46503317,-1.6652344,0.093457036,-0.32709962,86.0
1371,1.5418859,-1.3224106,-0.46503317,-1.1820191,0.0180542,0.28568116,86.0
1372,0.6359134,-1.1637392,-0.34443867,-1.1820191,0.0180542,0.28568116,86.0
1373,0.6359134,-1.1637392,-0.34443867,-0.89208984,-0.010620117,0.46728516,86.0
1374,-0.74297833,-1.4327621,-0.72716236,-0.89208984,-0.010620117,0.46728516,86.0
1375,-0.74297833,-1.4327621,-0.72716236,0.32285157,-0.24001466,0.98873293,86.0
1376,-0.5369487,-1.234149,-0.77849495,0.32285157,-0.24001466,0.98873293,86.0
1377,-0.5369487,-1.234149,-0.77849495,0.8241211,-0.29736328,1.1692749,86.0
1378,1.2876408,-0.96693325,-0.7336725,0.8241211,-0.29736328,1.1692749,86.0
1379,1.2876408,-0.96693325,-0.7336725,2.0231323,-0.3345337,1.7852417,86.0
1380,1.3889017,-0.4434204,-0.22928423,2.0231323,-0.3345337,1.7852417,86.0
1381,1.3889017,-0.4434204,-0.22928423,2.2312868,-0.32497558,2.0167603,86.0
1382,1.2787728,0.83365536,0.34042513,2.2312868,-0.32497558,2.0167603,86.0
1383,1.2787728,0.83365536,0.34042513,2.442627,-0.29205322,2.7283082,86.0
1384,0.49593067,1.3478327,0.5396497,2.442627,-0.29205322,2.7283082,86.0
1385,0.49593067,1.3478327,0.5396497,2.342798,-0.23151855,2.9661987,86.0
1386,-0.76689076,2.2477856,0.6682799,2.342798,-0.23151855,2.9661987,86.0
1387,-0.76689076,2.2477856,0.6682799,1.9201173,-0.0722168,3.43667,86.0
1388,-2.1050653,2.9134512,0.7351122,1.9201173,-0.0722168,3.43667,86.0
1389,-2.1050653,2.9134512,0.7351122,1.3391968,0.04141846,3.889087,86.0
1390,-3.3877268,3.2085562,0.34795308,1.3391968,0.04141846,3.889087,86.0
1391,-3.3877268,3.2085562,0.34795308,0.66588134,0.15186767,4.427527,86.0
1392,-3.1615365,3.1651602,0.057036757,0.66588134,0.15186767,4.427527,86.0
1393,-3.1615365,3.1651602,0.057036757,0.5564942,0.12850343,4.5719604,86.0
1394,-2.7427425,2.9865837,-0.45806932,0.5564942,0.12850343,4.5719604,86.0
1395,-2.7427425,2.9865837,-0.45806932,0.5076416,0.09664307,4.6898437,86.0
1396,-2.0429854,2.7956142,-0.75526166,0.5076416,0.09664307,4.6898437,86.0
1397,-2.0429854,2.7956142,-0.75526166,0.69986576,0.11363526,4.6781616,86.0
1398,-1.3276867,2.6739302,-0.8447124,0.69986576,0.11363526,4.6781616,86.0
1399,-1.3276867,2.6739302,-0.8447124,1.085376,0.1083252,4.5581546,86.0
1400,-0.63837004,2.5916953,-0.84932953,1.085376,0.1083252,4.5581546,86.0
1401,-0.63837004,2.5916953,-0.84932953,1.2138795,0.20390625,4.2002563,86.0
1402,0.01420629,2.4996138,-0.7500203,1.2138795,0.20390625,4.2002563,86.0
1403,0.01420629,2.4996138,-0.7500203,0.7508423,0.44073486,3.5025146,86.0
1404,0.01420629,2.4996138,-0.7500203,0.42905274,0.5076416,3.259314,86.0
1405,0.1706912,2.4880943,-0.59647626,0.42905274,0.5076416,3.259314,86.0
1406,0.22762963,2.6374605,-0.06625575,0.42905274,0.5076416,3.259314,86.0
1407,0.22762963,2.6374605,-0.06625575,-0.23151855,0.66588134,2.7548585,86.0
1408,0.22762963,2.6374605,-0.06625575,-0.80606693,0.66269535,2.3130615,86.0
1409,0.22762963,2.6374605,-0.06625575,-0.89208984,0.4800293,1.7746216,86.0
1410,0.09717938,2.3297925,0.024412394,-0.89208984,0.4800293,1.7746216,86.0
1411,0.41161802,2.7390416,-0.01665175,-0.89208984,0.4800293,1.7746216,86.0
1412,0.41161802,2.7390416,-0.01665175,-0.5872925,0.33240968,1.176709,86.0
1413,0.41161802,2.7390416,-0.01665175,-0.39400634,0.15823975,0.62127686,86.0
1414,0.41161802,2.7390416,-0.01665175,-0.29311523,-0.033984374,0.040356446,86.0
1415,0.4214819,2.3655374,0.059224963,-0.29311523,-0.033984374,0.040356446,86.0
1416,0.4214819,2.3655374,0.059224963,-0.1709839,-0.27718505,-0.44073486,86.0
1417,1.058621,1.57993,0.39475548,-0.1709839,-0.27718505,-0.44073486,86.0
1418,1.058621,1.57993,0.39475548,0.11363526,-0.4694092,-1.0120972,86.0
1419,2.3474462,0.70211536,1.028756,0.11363526,-0.4694092,-1.0120972,86.0
1420,2.3474462,0.70211536,1.028756,0.16567384,-0.48746338,-1.6333741,86.0
1421,1.6722808,0.4135478,0.9989326,0.16567384,-0.48746338,-1.6333741,86.0
1422,1.6722808,0.4135478,0.9989326,0.022302246,-0.4980835,-1.7714356,86.0
1423,0.2128613,0.42993495,0.8328619,0.022302246,-0.4980835,-1.7714356,86.0
1424,0.2128613,0.42993495,0.8328619,-0.18585205,-0.5607422,-1.9509156,86.0
1425,-0.3679068,0.18700218,0.51874304,-0.18585205,-0.5607422,-1.9509156,86.0
1426,-0.3679068,0.18700218,0.51874304,-0.20390625,-0.6042847,-2.18562,86.0
1427,0.3554914,-0.3933304,0.27405202,-0.20390625,-0.6042847,-2.18562,86.0
1428,0.3554914,-0.3933304,0.27405202,-0.23045655,-0.54587406,-2.4861696,86.0
1429,0.79332864,-1.0067909,0.17450285,-0.23045655,-0.54587406,-2.4861696,86.0
1430,0.79332864,-1.0067909,0.17450285,-0.38763428,-0.43754885,-2.72937,86.0
1431,0.24263406,-1.4139409,0.116396785,-0.38763428,-0.43754885,-2.72937,86.0
1432,0.24263406,-1.4139409,0.116396785,-0.61702883,-0.36002198,-2.907788,86.0
1433,-0.6644132,-1.5291753,0.021413326,-0.61702883,-0.36002198,-2.907788,86.0
1434,-0.6644132,-1.5291753,0.021413326,-1.0216553,-0.16461182,-2.9290283,86.0
1435,-1.6763304,-1.474976,-0.040877223,-1.0216553,-0.16461182,-2.9290283,86.0
1436,-1.6763304,-1.474976,-0.040877223,-1.5027466,-0.040356446,-2.9279664,86.0
1437,-2.7106078,-1.5333133,-0.049010396,-1.5027466,-0.040356446,-2.9279664,86.0
1438,-2.7106078,-1.5333133,-0.049010396,-1.716211,0.058410645,-2.985315,86.0
1439,-3.3152514,-1.867007,-0.13376403,-1.716211,0.058410645,-2.985315,86.0
1440,-3.3152514,-1.867007,-0.13376403,-1.002539,0.057348635,-2.611487,86.0
1441,-3.2546792,-2.1693625,-0.29355907,-1.002539,0.057348635,-2.611487,86.0
1442,-3.2546792,-2.1693625,-0.29355907,-0.5543701,0.004248047,-2.9938111,86.0
1443,-2.461495,-2.2115643,-0.42011333,-0.5543701,0.004248047,-2.9938111,86.0
1444,-2.461495,-2.2115643,-0.42011333,-0.37701416,0.004248047,-2.986377,86.0
1445,-1.1134098,-2.371705,-0.3339423,-0.37701416,0.004248047,-2.986377,86.0
1446,-1.1134098,-2.371705,-0.3339423,-0.3451538,-0.011682129,-3.1520507,86.0
1447,-1.1134098,-2.371705,-0.3339423,-0.3451538,-0.011682129,-3.1520507,86.0
1448,0.32520247,-2.6926641,0.067355394,-0.3451538,-0.011682129,-3.1520507,86.0
1449,0.32520247,-2.6926641,0.067355394,-0.21134034,-0.014868164,-3.342151,86.0
1450,1.6372006,-3.1488943,0.70934093,-0.21134034,-0.014868164,-3.342151,86.0
1451,1.6372006,-3.1488943,0.70934093,0.16779785,0.012744141,-3.5375612,86.0
1452,2.6867259,-3.499682,1.3840866,0.16779785,0.012744141,-3.5375612,86.0
1453,2.6867259,-3.499682,1.3840866,0.5140137,0.08283692,-3.6437624,86.0
1454,3.1768098,-3.443056,1.7526307,0.5140137,0.08283692,-3.6437624,86.0
1455,3.1768098,-3.443056,1.7526307,0.57454836,0.18054199,-3.624646,86.0
1456,2.9226735,-2.8659801,1.6214161,0.57454836,0.18054199,-3.624646,86.0
1457,2.9226735,-2.8659801,1.6214161,0.16036378,0.24638672,-3.445166,86.0
1458,2.9226735,-2.8659801,1.6214161,-0.5671143,0.28568116,-3.1329346,86.0
1459,2.3388958,-2.036131,1.0992692,-0.5671143,0.28568116,-3.1329346,86.0
1460,2.9953718,-1.3847399,0.17104125,-0.5671143,0.28568116,-3.1329346,86.0
1461,2.9953718,-1.3847399,0.17104125,-1.2722901,0.30161133,-2.6794555,86.0
1462,2.9953718,-1.3847399,0.17104125,-1.8914429,0.33878174,-2.1155274,86.0
1463,2.9799035,-1.2440834,-0.31626773,-1.8914429,0.33878174,-2.1155274,86.0
1464,2.9799035,-1.2440834,-0.31626773,-2.4553711,0.36533204,-1.4570801,86.0
1465,2.1949823,-1.1211824,-0.89462805,-2.4553711,0.36533204,-1.4570801,86.0
1466,2.1949823,-1.1211824,-0.89462805,-2.72406,0.2803711,-0.7476563,86.0
1467,1.345268,-0.98720455,-1.3758588,-2.72406,0.2803711,-0.7476563,86.0
1468,1.345268,-0.98720455,-1.3758588,-2.6964478,0.10620117,-0.08283692,86.0
1469,1.1904969,-0.96044254,-1.4099033,-2.6964478,0.10620117,-0.08283692,86.0
1470,1.1904969,-0.96044254,-1.4099033,-2.3757203,0.010620117,0.50870365,86.0
1471,0.855474,-1.0316715,-1.1490653,-2.3757203,0.010620117,0.50870365,86.0
1472,0.855474,-1.0316715,-1.1490653,-1.8797607,0.0,1.0184692,86.0
1473,-0.23605537,-1.0542183,-1.2169695,-1.8797607,0.0,1.0184692,86.0
1474,-0.23605537,-1.0542183,-1.2169695,-1.1469727,-0.12531738,1.4369019,86.0
1475,-0.9706559,-0.9831085,-1.6634682,-1.1469727,-0.12531738,1.4369019,86.0
1476,-0.9706559,-0.9831085,-1.6634682,-0.18266602,-0.31223145,1.8595825,86.0
1477,-0.4414661,-0.7880373,-1.828443,-0.18266602,-0.31223145,1.8595825,86.0
1478,-0.4414661,-0.7880373,-1.828443,0.9696167,-0.46516114,2.3013794,86.0
1479,0.66630936,-0.27822018,-1.3518902,0.9696167,-0.46516114,2.3013794,86.0
1480,0.66630936,-0.27822018,-1.3518902,1.9402955,-0.53737795,2.707068,86.0
1481,1.2272978,0.54457474,-0.61466646,1.9402955,-0.53737795,2.707068,86.0
1482,1.2272978,0.54457474,-0.61466646,2.53396,-0.5798584,3.0479736,86.0
1483,1.022048,1.3392982,-0.0315037,2.53396,-0.5798584,3.0479736,86.0
1484,1.022048,1.3392982,-0.0315037,2.8727417,-0.5543701,3.3251588,86.0
1485,0.17486477,2.0428123,0.29593962,2.8727417,-0.5543701,3.3251588,86.0
1486,0.17486477,2.0428123,0.29593962,2.7718506,-0.41099855,3.5842896,86.0
1487,-1.1937995,2.7243261,0.45247436,2.7718506,-0.41099855,3.5842896,86.0
1488,-1.1937995,2.7243261,0.45247436,2.2865112,-0.22089843,3.8232422,86.0
1489,-2.6523175,3.265191,0.5095137,2.2865112,-0.22089843,3.8232422,86.0
1490,-2.6523175,3.265191,0.5095137,1.5229248,-0.03186035,4.0473266,86.0
1491,-3.679105,3.4992008,0.42189318,1.5229248,-0.03186035,4.0473266,86.0
1492,-3.679105,3.4992008,0.42189318,0.84323734,0.06265869,4.242737,86.0
1493,-3.967991,3.458406,0.11424792,0.84323734,0.06265869,4.242737,86.0
1494,-3.967991,3.458406,0.11424792,0.27506104,0.06584473,4.37655,86.0
1495,-3.5505526,3.25381,-0.28567687,0.27506104,0.06584473,4.37655,86.0
1496,-3.5505526,3.25381,-0.28567687,0.0361084,-0.026550293,4.3871703,86.0
1497,-2.7447755,2.9013758,-0.5759658,0.0361084,-0.026550293,4.3871703,86.0
1498,-2.7447755,2.9013758,-0.5759658,0.24851075,-0.107263185,4.2852173,86.0
1499,-1.8871657,2.522553,-0.6959655,0.24851075,-0.107263185,4.2852173,86.0
1500,-1.8871657,2.522553,-0.6959655,0.62127686,-0.13912354,4.050513,86.0
1501,-1.161112,2.364612,-0.65782225,0.62127686,-0.13912354,4.050513,86.0
1502,-1.161112,2.364612,-0.65782225,0.7593384,-0.06265869,3.6809328,86.0
1503,-0.57433635,2.3501859,-0.4738286,0.7593384,-0.06265869,3.6809328,86.0
1504,-0.57433635,2.3501859,-0.4738286,0.38338622,0.0722168,3.1074464,86.0
1505,-0.120052576,2.0568821,-0.19815469,0.38338622,0.0722168,3.1074464,86.0
1506,-0.120052576,2.0568821,-0.19815469,0.46409914,0.08920898,2.5944946,86.0
1507,0.20628947,1.6253643,0.060568035,0.46409914,0.08920898,2.5944946,86.0
1508,0.20628947,1.6253643,0.060568035,0.55543214,0.18054199,2.0592408,86.0
1509,0.48704088,1.5545883,0.26016098,0.55543214,0.18054199,2.0592408,86.0
1510,0.48704088,1.5545883,0.26016098,0.44923097,0.2538208,1.5229248,86.0
1511,0.8594081,1.7739075,0.36783338,0.44923097,0.2538208,1.5229248,86.0
1512,0.8594081,1.7739075,0.36783338,0.39506838,0.2623169,0.8878418,86.0
1513,1.1998068,2.0795386,0.38307285,0.39506838,0.2623169,0.8878418,86.0
1514,1.1998068,2.0795386,0.38307285,0.3069214,0.19541016,0.24744873,86.0
1515,1.1981877,2.2524247,0.29456866,0.3069214,0.19541016,0.24744873,86.0
1516,1.1981877,2.2524247,0.29456866,-0.0021240234,0.06584473,-0.2527588,86.0
1517,1.0066947,2.0608633,0.2380597,-0.0021240234,0.06584473,-0.2527588,86.0
1518,1.0066947,2.0608633,0.2380597,-0.36108398,-0.07115479,-0.6988037,86.0
1519,1.3451263,1.4446379,0.3948667,-0.36108398,-0.07115479,-0.6988037,86.0
1520,1.3451263,1.4446379,0.3948667,-0.55543214,-0.23045655,-1.2499878,86.0
1521,2.2708275,0.48882797,0.6746458,-0.55543214,-0.23045655,-1.2499878,86.0
1522,2.2708275,0.48882797,0.6746458,-0.5936646,-0.23258057,-1.8606446,86.0
1523,2.1458368,-0.32966518,0.88905746,-0.5936646,-0.23258057,-1.8606446,86.0
1524,2.1458368,-0.32966518,0.88905746,-0.725354,-0.20709229,-2.2132325,86.0
1525,0.7782662,-0.7662346,0.90732753,-0.725354,-0.20709229,-2.2132325,86.0
1526,0.7782662,-0.7662346,0.90732753,-0.73703617,-0.28568116,-2.461743,86.0
1527,0.35861158,-1.123034,0.76317894,-0.73703617,-0.28568116,-2.461743,86.0
1528,0.35861158,-1.123034,0.76317894,-0.5235718,-0.3791382,-2.6656494,86.0
1529,1.1870725,-1.5608907,0.6636071,-0.5235718,-0.3791382,-2.6656494,86.0
1530,1.1870725,-1.5608907,0.6636071,-0.26444092,-0.35046387,-2.8578737,86.0
1531,1.4500484,-1.9038273,0.6779072,-0.26444092,-0.35046387,-2.8578737,86.0
1532,1.4500484,-1.9038273,0.6779072,-0.18266602,-0.32072756,-2.9502685,86.0
1533,0.5500536,-1.9302275,0.57838535,-0.18266602,-0.32072756,-2.9502685,86.0
1534,0.5500536,-1.9302275,0.57838535,-0.3440918,-0.27506104,-2.896106,86.0
1535,-0.89229345,-1.6618943,0.26627278,-0.3440918,-0.27506104,-2.896106,86.0
1536,-0.89229345,-1.6618943,0.26627278,-0.53100586,-0.21027832,-2.72406,86.0
1537,-2.437309,-1.2849722,-0.029755235,-0.53100586,-0.21027832,-2.72406,86.0
1538,-2.437309,-1.2849722,-0.029755235,-0.99510497,-0.050976563,-2.622107,86.0
1539,-3.7598326,-1.1338859,-0.18536425,-0.99510497,-0.050976563,-2.622107,86.0
1540,-3.7598326,-1.1338859,-0.18536425,-1.4347779,0.004248047,-2.5955567,86.0
1541,-4.3302903,-1.5052288,-0.35532272,-1.4347779,0.004248047,-2.5955567,86.0
1542,-4.3302903,-1.5052288,-0.35532272,-1.1204224,-0.021240234,-2.552014,86.0
1543,-3.852245,-2.0158162,-0.63671184,-1.1204224,-0.021240234,-2.552014,86.0
1544,-3.852245,-2.0158162,-0.63671184,-0.6435791,-0.047790527,-2.552014,86.0
1545,-2.6024992,-2.2679873,-0.87365174,-0.6435791,-0.047790527,-2.552014,86.0
1546,-2.6024992,-2.2679873,-0.87365174,-0.28780517,-0.06690674,-2.6295412,86.0
1547,-1.0687182,-2.3515606,-0.8475786,-0.28780517,-0.06690674,-2.6295412,86.0
1548,-1.0687182,-2.3515606,-0.8475786,-0.14868164,-0.06265869,-2.716626,86.0
1549,0.31647325,-2.4165878,-0.48577774,-0.14868164,-0.06265869,-2.716626,86.0
1550,0.31647325,-2.4165878,-0.48577774,-0.29736328,-0.009558106,-2.8759277,86.0
1551,1.3810107,-2.6116881,0.07933438,-0.29736328,-0.009558106,-2.8759277,86.0
1552,1.3810107,-2.6116881,0.07933438,-0.26656494,0.021240234,-3.0692139,86.0
1553,2.15526,-2.888887,0.66487134,-0.26656494,0.021240234,-3.0692139,86.0
1554,2.15526,-2.888887,0.66487134,-0.1731079,0.07434082,-3.180725,86.0
1555,2.15526,-2.888887,0.66487134,-0.1731079,0.07434082,-3.180725,87.0
1556,2.6945453,-3.0104136,1.1131349,-0.1731079,0.07434082,-3.180725,87.0
1557,2.6945453,-3.0104136,1.1131349,-0.15823975,0.16673584,-3.1966553,87.0
1558,2.8950772,-2.822857,1.3027027,-0.15823975,0.16673584,-3.1966553,87.0
1559,2.8950772,-2.822857,1.3027027,-0.25700685,0.27718505,-3.059656,87.0
1560,2.593369,-2.3676968,1.2376211,-0.25700685,0.27718505,-3.059656,87.0
1561,2.593369,-2.3676968,1.2376211,-0.45454103,0.35152587,-2.7814088,87.0
1562,2.0582645,-1.7685347,1.0054288,-0.45454103,0.35152587,-2.7814088,87.0
1563,2.0582645,-1.7685347,1.0054288,-0.75615233,0.33878174,-2.4107666,87.0
1564,1.80761,-1.1676846,0.65254855,-0.75615233,0.33878174,-2.4107666,87.0
1565,1.80761,-1.1676846,0.65254855,-1.2499878,0.34833986,-1.9700317,87.0
1566,1.7414494,-0.7568159,0.19059372,-1.2499878,0.34833986,-1.9700317,87.0
1567,1.7414494,-0.7568159,0.19059372,-1.7905518,0.36639404,-1.4730103,87.0
1568,1.5495439,-0.66453457,-0.4594636,-1.7905518,0.36639404,-1.4730103,87.0
1569,1.5495439,-0.66453457,-0.4594636,-2.1038454,0.31329346,-0.99722904,87.0
1570,1.5495439,-0.66453457,-0.4594636,-2.2493408,0.21877442,-0.5033936,87.0
1571,1.5843251,-0.7877312,-1.1142018,-2.2493408,0.21877442,-0.5033936,87.0
1572,1.9747963,-1.0137424,-1.2668376,-2.2493408,0.21877442,-0.5033936,87.0
1573,1.9747963,-1.0137424,-1.2668376,-2.1229615,0.16248779,0.053100586,87.0
1574,1.783011,-1.2201862,-0.9503964,-2.1229615,0.16248779,0.053100586,87.0
1575,1.783011,-1.2201862,-0.9503964,-1.6811646,0.1083252,0.6202149,87.0
1576,0.63799334,-1.2057762,-0.8297508,-1.6811646,0.1083252,0.6202149,87.0
1577,0.63799334,-1.2057762,-0.8297508,-0.8995239,-0.06796875,1.1650269,87.0
1578,-0.2669978,-0.96993065,-1.0574652,-0.8995239,-0.06796875,1.1650269,87.0
1579,-0.2669978,-0.96993065,-1.0574652,0.19434814,-0.28780517,1.722583,87.0
1580,-0.035424232,-0.60356903,-1.0989752,0.19434814,-0.28780517,1.722583,87.0
1581,-0.035424232,-0.60356903,-1.0989752,1.3859253,-0.4715332,2.3024414,87.0
1582,0.7270193,-0.052093506,-0.7340751,1.3859253,-0.4715332,2.3024414,87.0
1583,0.7270193,-0.052093506,-0.7340751,2.3013794,-0.5809204,2.8483155,87.0
1584,1.099731,0.6404295,-0.2876141,2.3013794,-0.5809204,2.8483155,87.0
1585,1.099731,0.6404295,-0.2876141,2.901416,-0.6414551,3.2773683,87.0
1586,0.59481144,1.3927879,-0.013562977,2.901416,-0.6414551,3.2773683,87.0
1587,0.59481144,1.3927879,-0.013562977,3.1318727,-0.5766724,3.611902,87.0
1588,-0.7631402,2.1792202,0.13519454,3.1318727,-0.5766724,3.611902,87.0
