,accx,accy,accz,gyrox,gyroy,gyroz,heart rate
0,walk,walk,walk,walk,walk,walk,walk
1,0.104895025,-0.030883789,0.38405764,0.0,0.0,0.0,0.0
2,0.104895025,-0.030883789,0.38405764,-0.17416993,0.08920898,0.020178223,0.0
3,0.11121094,0.023791503,0.062177747,-0.17416993,0.08920898,0.020178223,0.0
4,0.11121094,0.023791503,0.062177747,-0.18479005,0.107263185,-0.012744141,0.0
5,0.011527348,-0.04185547,0.019920424,-0.18479005,0.107263185,-0.012744141,0.0
6,0.011527348,-0.04185547,0.019920424,-0.16248779,0.11044922,-0.04885254,0.0
7,0.011527348,-0.04185547,0.019920424,-0.1083252,0.115759276,-0.059472658,0.0
8,-0.06376396,-0.14488575,0.08897102,-0.1083252,0.115759276,-0.059472658,0.0
9,-0.058298767,-0.12774941,0.048496157,-0.1083252,0.115759276,-0.059472658,0.0
10,-0.058298767,-0.12774941,0.048496157,-0.09770508,0.0998291,-0.081774905,0.0
11,0.01614175,-0.07505109,-0.12411811,-0.09770508,0.0998291,-0.081774905,0.0
12,0.01614175,-0.07505109,-0.12411811,-0.07540283,0.081774905,-0.08920898,0.0
13,0.079466134,-0.07672789,-0.28657478,-0.07540283,0.081774905,-0.08920898,0.0
14,0.079466134,-0.07672789,-0.28657478,-0.046728518,0.059472658,-0.060534667,0.0
15,0.09581168,-0.09149706,-0.31975055,-0.046728518,0.059472658,-0.060534667,0.0
16,0.09581168,-0.09149706,-0.31975055,-0.039294433,0.04141846,-0.040356446,0.0
17,0.050831474,-0.11924258,-0.23939419,-0.039294433,0.04141846,-0.040356446,0.0
18,0.050831474,-0.11924258,-0.23939419,0.046728518,0.022302246,0.004248047,0.0
19,-0.022774763,-0.118965834,-0.13287278,0.046728518,0.022302246,0.004248047,0.0
20,-0.022774763,-0.118965834,-0.13287278,0.083898924,-0.053100586,-0.033984374,0.0
21,-0.064008385,-0.08279474,-0.04776551,0.083898924,-0.053100586,-0.033984374,0.0
22,-0.064008385,-0.08279474,-0.04776551,0.081774905,-0.07327881,0.0031860352,0.0
23,-0.080149576,-0.023108363,0.015242189,0.081774905,-0.07327881,0.0031860352,0.0
24,-0.080149576,-0.023108363,0.015242189,0.035046387,-0.08814698,0.014868164,0.0
25,-0.06830668,0.046991825,0.06556289,0.035046387,-0.08814698,0.014868164,0.0
26,-0.06830668,0.046991825,0.06556289,-0.04141846,-0.10301514,0.019116212,0.0
27,-0.018451493,0.07084541,0.11518224,-0.04141846,-0.10301514,0.019116212,0.0
28,-0.018451493,0.07084541,0.11518224,-0.07540283,-0.11469727,0.014868164,0.0
29,0.03257767,0.05237946,0.17769267,-0.07540283,-0.11469727,0.014868164,0.0
30,0.03257767,0.05237946,0.17769267,-0.07327881,-0.10301514,0.032922365,0.0
31,0.05372327,0.02809742,0.20626546,-0.07327881,-0.10301514,0.032922365,0.0
32,0.05372327,0.02809742,0.20626546,-0.09133301,-0.06903076,0.050976563,0.0
33,0.05372327,0.02809742,0.20626546,-0.1083252,-0.029736329,0.05522461,0.0
34,0.029489845,0.077177644,0.24025652,-0.1083252,-0.029736329,0.05522461,0.0
35,0.009419512,0.11605121,0.20427798,-0.1083252,-0.029736329,0.05522461,0.0
36,0.009419512,0.11605121,0.20427798,-0.13699952,0.015930176,0.053100586,0.0
37,0.009419512,0.11605121,0.20427798,-0.13699952,0.015930176,0.053100586,93.0
38,-0.0010459349,0.10137369,0.17497024,-0.13699952,0.015930176,0.053100586,93.0
39,-0.0010459349,0.10137369,0.17497024,-0.1263794,0.05628662,0.06478272,93.0
40,0.010711104,0.054219067,0.21277893,-0.1263794,0.05628662,0.06478272,93.0
41,0.010711104,0.054219067,0.21277893,-0.12000733,0.11469727,0.13487549,93.0
42,0.019579627,-0.017318107,0.28709328,-0.12000733,0.11469727,0.13487549,93.0
43,0.019579627,-0.017318107,0.28709328,-0.008496094,0.17416993,0.14974366,93.0
44,0.0734762,-0.048229486,0.36718684,-0.008496094,0.17416993,0.14974366,93.0
45,0.0734762,-0.048229486,0.36718684,0.19328614,0.18797608,-0.07646485,93.0
46,0.047721386,0.16539592,0.35222113,0.19328614,0.18797608,-0.07646485,93.0
47,0.047721386,0.16539592,0.35222113,-0.04460449,0.29736328,-0.11151123,93.0
48,-0.09086342,0.32661605,0.14524126,-0.04460449,0.29736328,-0.11151123,93.0
49,-0.09086342,0.32661605,0.14524126,-0.052038576,0.3334717,-0.13699952,93.0
50,-0.10916535,0.25007457,-0.1101864,-0.052038576,0.3334717,-0.13699952,93.0
51,-0.10916535,0.25007457,-0.1101864,-0.012744141,0.3525879,-0.1274414,93.0
52,-0.018545657,0.07466903,-0.2311911,-0.012744141,0.3525879,-0.1274414,93.0
53,-0.018545657,0.07466903,-0.2311911,0.032922365,0.362146,-0.16142578,93.0
54,0.06492422,-0.061797976,-0.30308032,0.032922365,0.362146,-0.16142578,93.0
55,0.06492422,-0.061797976,-0.30308032,0.060534667,0.34727785,-0.16461182,93.0
56,0.12292326,-0.1008666,-0.4010214,0.060534667,0.34727785,-0.16461182,93.0
57,0.12292326,-0.1008666,-0.4010214,0.07540283,0.31010744,-0.16248779,93.0
58,0.16370726,-0.07906975,-0.45555833,0.07540283,0.31010744,-0.16248779,93.0
59,0.16370726,-0.07906975,-0.45555833,0.07646485,0.270813,-0.16036378,93.0
60,0.16370726,-0.07906975,-0.45555833,0.078588866,0.22196046,-0.13806152,93.0
61,0.20773584,-0.08030902,-0.4145077,0.078588866,0.22196046,-0.13806152,93.0
62,0.23554903,-0.06226968,-0.33761203,0.078588866,0.22196046,-0.13806152,93.0
63,0.23554903,-0.06226968,-0.33761203,0.10407715,0.18585205,-0.115759276,93.0
64,0.2048699,0.064832695,-0.29670095,0.10407715,0.18585205,-0.115759276,93.0
65,0.2048699,0.064832695,-0.29670095,0.028674318,0.14761963,-0.1720459,93.0
66,0.17854434,0.20709077,-0.3084545,0.028674318,0.14761963,-0.1720459,93.0
67,0.17854434,0.20709077,-0.3084545,-0.020178223,0.124255374,-0.22727051,93.0
68,0.1863169,0.32187378,-0.32789153,-0.020178223,0.124255374,-0.22727051,93.0
69,0.1863169,0.32187378,-0.32789153,-0.10513916,0.11044922,-0.30267334,93.0
70,0.15186113,0.37090236,-0.37271363,-0.10513916,0.11044922,-0.30267334,93.0
71,0.15186113,0.37090236,-0.37271363,-0.14018555,0.08602295,-0.38338622,93.0
72,0.07267299,0.34735665,-0.4054097,-0.14018555,0.08602295,-0.38338622,93.0
73,0.07267299,0.34735665,-0.4054097,-0.1539917,0.05522461,-0.51082766,93.0
74,-0.0038122833,0.27767777,-0.3448844,-0.1539917,0.05522461,-0.51082766,93.0
75,-0.0038122833,0.27767777,-0.3448844,-0.1985962,0.043542482,-0.6531372,93.0
76,-0.042661637,0.15756702,-0.19282645,-0.1985962,0.043542482,-0.6531372,93.0
77,-0.042661637,0.15756702,-0.19282645,-0.24320069,0.058410645,-0.7476563,93.0
78,-0.10494229,0.03231582,-0.028418899,-0.24320069,0.058410645,-0.7476563,93.0
79,-0.10494229,0.03231582,-0.028418899,-0.2166504,0.060534667,-0.8092529,93.0
80,-0.14945674,-0.0013446212,0.0705632,-0.2166504,0.060534667,-0.8092529,93.0
81,-0.14945674,-0.0013446212,0.0705632,-0.18585205,0.078588866,-0.8963379,93.0
82,-0.14573726,0.058128387,0.097026706,-0.18585205,0.078588866,-0.8963379,93.0
83,-0.14573726,0.058128387,0.097026706,-0.20072022,0.08496094,-0.9483765,93.0
84,-0.12995651,0.26395875,0.08111256,-0.20072022,0.08496094,-0.9483765,93.0
85,-0.12995651,0.26395875,0.08111256,-0.35152587,0.10620117,-1.0046631,93.0
86,-0.12995651,0.26395875,0.08111256,-0.4895874,0.14655761,-1.0407715,93.0
87,-0.11379185,0.5227393,0.0392797,-0.4895874,0.14655761,-1.0407715,93.0
88,-0.18951982,0.5865142,-0.04069537,-0.4895874,0.14655761,-1.0407715,93.0
89,-0.18951982,0.5865142,-0.04069537,-0.5607422,0.1720459,-1.0567017,93.0
90,-0.39167935,0.39284414,-0.064331174,-0.5607422,0.1720459,-1.0567017,93.0
91,-0.39167935,0.39284414,-0.064331174,-0.53525394,0.20496826,-1.0938721,93.0
92,-0.5253308,0.25338668,0.030786037,-0.53525394,0.20496826,-1.0938721,93.0
93,-0.5253308,0.25338668,0.030786037,-0.63720703,0.28461915,-1.1076783,93.0
94,-0.5208628,0.28758478,0.10075188,-0.63720703,0.28461915,-1.1076783,93.0
95,-0.5208628,0.28758478,0.10075188,-0.8793457,0.3982544,-1.1427246,93.0
96,-0.50710773,0.43523145,-0.038026392,-0.8793457,0.3982544,-1.1427246,93.0
97,-0.50710773,0.43523145,-0.038026392,-1.1841431,0.50020754,-1.1968873,93.0
98,-0.38226086,0.7291056,-0.2302258,-1.1841431,0.50020754,-1.1968873,93.0
99,-0.38226086,0.7291056,-0.2302258,-1.7140869,0.67331547,-1.3190186,93.0
100,0.016701102,0.84114575,-0.2276743,-1.7140869,0.67331547,-1.3190186,93.0
101,0.016701102,0.84114575,-0.2276743,-2.2206666,0.905896,-1.4560181,93.0
102,0.55198395,0.5610026,-0.117149234,-2.2206666,0.905896,-1.4560181,93.0
103,0.55198395,0.5610026,-0.117149234,-2.5859985,1.1544068,-1.7002808,93.0
104,0.9905984,0.27837968,-0.13740838,-2.5859985,1.1544068,-1.7002808,93.0
105,0.9905984,0.27837968,-0.13740838,-3.2285156,1.4708862,-1.7608155,93.0
106,1.1179793,5.480051E-4,-0.2673608,-3.2285156,1.4708862,-1.7608155,93.0
107,1.1179793,5.480051E-4,-0.2673608,-3.5046387,1.6471802,-1.7597535,93.0
108,0.9311632,-0.3492564,-0.29943556,-3.5046387,1.6471802,-1.7597535,93.0
109,0.9311632,-0.3492564,-0.29943556,-3.2816162,1.7618774,-1.6503662,93.0
110,0.66956437,-0.53290856,-0.16084969,-3.2816162,1.7618774,-1.6503662,93.0
111,0.66956437,-0.53290856,-0.16084969,-2.992749,1.812854,-1.5218629,93.0
112,0.42737508,-0.5468347,0.059394002,-2.992749,1.812854,-1.5218629,93.0
113,0.42737508,-0.5468347,0.059394002,-2.8302612,1.7863038,-1.3838013,93.0
114,0.16394597,-0.5204146,0.2802422,-2.8302612,1.7863038,-1.3838013,93.0
115,0.16394597,-0.5204146,0.2802422,-2.6805177,1.6896607,-1.1947632,93.0
116,-0.18376017,-0.65474725,0.47227728,-2.6805177,1.6896607,-1.1947632,93.0
117,-0.18376017,-0.65474725,0.47227728,-2.264209,1.447522,-0.90802,93.0
118,-0.5372181,-0.8483096,0.7053853,-2.264209,1.447522,-0.90802,93.0
119,-0.5372181,-0.8483096,0.7053853,-1.6493043,1.1565307,-0.6977417,93.0
120,-0.7388687,-0.77669454,0.9525407,-1.6493043,1.1565307,-0.6977417,93.0
121,-0.7388687,-0.77669454,0.9525407,-1.175647,0.91014403,-0.48533937,93.0
122,-0.8273865,-0.51956123,1.0900233,-1.175647,0.91014403,-0.48533937,93.0
123,-0.8273865,-0.51956123,1.0900233,-0.95793456,0.68712157,-0.23789063,93.0
124,-0.93784916,-0.40828815,1.0724581,-0.95793456,0.68712157,-0.23789063,93.0
125,-0.93784916,-0.40828815,1.0724581,-0.6467652,0.4725952,0.0010620117,93.0
126,-0.94498146,-0.35441375,0.94438004,-0.6467652,0.4725952,0.0010620117,93.0
127,-0.94498146,-0.35441375,0.94438004,-0.40144044,0.31435546,0.17416993,93.0
128,-0.7704872,-0.095323,0.76470816,-0.40144044,0.31435546,0.17416993,93.0
129,-0.7704872,-0.095323,0.76470816,-0.48640138,0.17523193,0.31010744,93.0
130,-0.51400936,0.14424944,0.5781728,-0.48640138,0.17523193,0.31010744,93.0
131,-0.51400936,0.14424944,0.5781728,-0.6775635,0.013806152,0.15505372,93.0
132,-0.29268944,0.09889567,0.6001847,-0.6775635,0.013806152,0.15505372,93.0
133,-0.29268944,0.09889567,0.6001847,-0.47365722,-0.10620117,-0.09451904,93.0
134,0.06997442,-0.2087985,0.81140995,-0.47365722,-0.10620117,-0.09451904,93.0
135,0.06997442,-0.2087985,0.81140995,-0.41737062,-0.16779785,-0.1529297,93.0
136,0.54689753,-0.6831155,0.8417183,-0.41737062,-0.16779785,-0.1529297,93.0
137,0.54689753,-0.6831155,0.8417183,-0.3525879,-0.0998291,-0.0998291,93.0
138,0.54689753,-0.6831155,0.8417183,-0.3525879,-0.0998291,-0.0998291,94.0
139,0.7408139,-0.9267414,0.38650942,-0.3525879,-0.0998291,-0.0998291,94.0
140,0.7408139,-0.9267414,0.38650942,0.009558106,-0.07327881,-0.012744141,94.0
141,0.60202616,-0.5292105,-0.47495997,0.009558106,-0.07327881,-0.012744141,94.0
142,0.60202616,-0.5292105,-0.47495997,0.18160401,-0.10620117,0.023364259,94.0
143,0.30769515,0.07942699,-1.3059446,0.18160401,-0.10620117,0.023364259,94.0
144,0.30769515,0.07942699,-1.3059446,0.13381349,-0.17629395,0.0053100586,94.0
145,0.12011851,0.27458894,-1.7100999,0.13381349,-0.17629395,0.0053100586,94.0
146,0.12011851,0.27458894,-1.7100999,-0.009558106,-0.24851075,-0.043542482,94.0
147,0.109534755,0.07510329,-1.6624647,-0.009558106,-0.24851075,-0.043542482,94.0
148,0.109534755,0.07510329,-1.6624647,-0.18691407,-0.270813,-0.06478272,94.0
149,0.0461239,-0.2292118,-1.3860631,-0.18691407,-0.270813,-0.06478272,94.0
150,0.0461239,-0.2292118,-1.3860631,-0.22408448,-0.29523927,-0.04141846,94.0
151,-0.14974639,-0.36486357,-1.0280521,-0.22408448,-0.29523927,-0.04141846,94.0
152,-0.14974639,-0.36486357,-1.0280521,-0.2442627,-0.33240968,-0.021240234,94.0
153,-0.3027317,-0.25733277,-0.598638,-0.2442627,-0.33240968,-0.021240234,94.0
154,-0.3027317,-0.25733277,-0.598638,-0.24957275,-0.31966552,-0.029736329,94.0
155,-0.2952005,0.01480028,-0.07035327,-0.24957275,-0.31966552,-0.029736329,94.0
156,-0.2952005,0.01480028,-0.07035327,-0.41843262,-0.23789063,-0.029736329,94.0
157,-0.1863313,0.4084833,0.3664103,-0.41843262,-0.23789063,-0.029736329,94.0
158,-0.1863313,0.4084833,0.3664103,-0.77526855,-0.08283692,-0.0180542,94.0
159,-0.09232676,0.61500686,0.43272784,-0.77526855,-0.08283692,-0.0180542,94.0
160,-0.09232676,0.61500686,0.43272784,-0.91014403,0.03717041,0.0063720704,94.0
161,-0.11383945,0.48676866,0.20248112,-0.91014403,0.03717041,0.0063720704,94.0
162,-0.11383945,0.48676866,0.20248112,-0.84111327,0.1083252,0.0180542,94.0
163,-0.21926981,0.37440032,0.16047123,-0.84111327,0.1083252,0.0180542,94.0
164,-0.21926981,0.37440032,0.16047123,-0.80819094,0.18266602,-0.0637207,94.0
165,-0.23988119,0.5487756,0.5187701,-0.80819094,0.18266602,-0.0637207,94.0
166,-0.23988119,0.5487756,0.5187701,-1.0280274,0.30373535,-0.095581055,94.0
167,-0.19919255,0.6087593,0.74581444,-1.0280274,0.30373535,-0.095581055,94.0
168,-0.19919255,0.6087593,0.74581444,-0.9505005,0.36427003,-0.083898924,94.0
169,-0.23338968,0.18073297,0.37008902,-0.9505005,0.36427003,-0.083898924,94.0
170,-0.23338968,0.18073297,0.37008902,-0.49489745,0.3430298,-0.1444336,94.0
171,-0.36410433,-0.2484312,-0.22923395,-0.49489745,0.3430298,-0.1444336,94.0
172,-0.36410433,-0.2484312,-0.22923395,-0.0637207,0.30054933,-0.10513916,94.0
173,-0.55859303,-0.16097641,-0.4429575,-0.0637207,0.30054933,-0.10513916,94.0
174,-0.55859303,-0.16097641,-0.4429575,0.21240234,0.22302246,-0.03717041,94.0
175,-0.6725092,0.3554352,-0.21222731,0.21240234,0.22302246,-0.03717041,94.0
176,-0.6725092,0.3554352,-0.21222731,0.30479738,0.16992188,-0.02442627,94.0
177,-0.55469435,0.7530005,0.046722054,0.30479738,0.16992188,-0.02442627,94.0
178,-0.55469435,0.7530005,0.046722054,0.33134767,0.124255374,-0.032922365,94.0
179,-0.2793634,0.610396,0.012182333,0.33134767,0.124255374,-0.032922365,94.0
180,-0.2793634,0.610396,0.012182333,0.35577393,0.08496094,-0.060534667,94.0
181,0.03703177,0.06534314,-0.19693139,0.35577393,0.08496094,-0.060534667,94.0
182,0.03703177,0.06534314,-0.19693139,0.42055663,0.08071289,-0.13806152,94.0
183,0.35367328,-0.5906699,-0.21865351,0.42055663,0.08071289,-0.13806152,94.0
184,0.35367328,-0.5906699,-0.21865351,0.4980835,0.13062744,-0.25806886,94.0
185,0.7174479,-1.1961809,0.09540188,0.4980835,0.13062744,-0.25806886,94.0
186,0.7174479,-1.1961809,0.09540188,0.6244629,0.19434814,-0.3462158,94.0
187,1.0679524,-1.5045034,0.42928782,0.6244629,0.19434814,-0.3462158,94.0
188,1.0679524,-1.5045034,0.42928782,0.69136965,0.26337892,-0.35577393,94.0
189,1.1367106,-1.1309464,0.4172462,0.69136965,0.26337892,-0.35577393,94.0
190,1.1367106,-1.1309464,0.4172462,0.63933104,0.28568116,-0.33028564,94.0
191,0.8903377,-0.069674134,0.20381647,0.63933104,0.28568116,-0.33028564,94.0
192,0.8903377,-0.069674134,0.20381647,0.24320069,0.3058594,-0.4322388,94.0
193,0.60255337,0.8595317,0.19839254,0.24320069,0.3058594,-0.4322388,94.0
194,0.60255337,0.8595317,0.19839254,-0.31860352,0.33240968,-0.724292,94.0
195,0.45063403,0.74028647,0.58410466,-0.31860352,0.33240968,-0.724292,94.0
196,0.45063403,0.74028647,0.58410466,-0.7349121,0.36320803,-0.8889038,94.0
197,0.48370057,-0.47400618,1.0199571,-0.7349121,0.36320803,-0.8889038,94.0
198,0.48370057,-0.47400618,1.0199571,-0.49383545,0.38975832,-0.7943848,94.0
199,0.73406744,-1.6827694,1.0139759,-0.49383545,0.38975832,-0.7943848,94.0
200,0.73406744,-1.6827694,1.0139759,0.13699952,0.30161133,-0.4991455,94.0
201,1.0865338,-1.7640623,0.60978913,0.13699952,0.30161133,-0.4991455,94.0
202,1.0865338,-1.7640623,0.60978913,0.70198977,0.21027832,-0.35895997,94.0
203,1.2775034,-0.7831981,0.13778251,0.70198977,0.21027832,-0.35895997,94.0
204,1.2775034,-0.7831981,0.13778251,0.90802,0.1731079,-0.35895997,94.0
205,1.2673519,0.40785313,-0.2064122,0.90802,0.1731079,-0.35895997,94.0
206,1.2673519,0.40785313,-0.2064122,0.7784546,0.19647217,-0.41206056,94.0
207,1.146877,1.19347,-0.410015,0.7784546,0.19647217,-0.41206056,94.0
208,1.146877,1.19347,-0.410015,0.51082766,0.26762697,-0.48109132,94.0
209,0.8643888,1.5775056,-0.5667083,0.51082766,0.26762697,-0.48109132,94.0
210,0.8643888,1.5775056,-0.5667083,0.22302246,0.3536499,-0.5851685,94.0
211,0.38692117,1.7478688,-0.6925146,0.22302246,0.3536499,-0.5851685,94.0
212,0.38692117,1.7478688,-0.6925146,-0.0998291,0.46834716,-0.65844727,94.0
213,-0.16563392,1.5953164,-0.78122115,-0.0998291,0.46834716,-0.65844727,94.0
214,-0.16563392,1.5953164,-0.78122115,-0.0998291,0.58304447,-0.68287355,94.0
215,-0.62359595,1.071761,-0.8229384,-0.0998291,0.58304447,-0.68287355,94.0
216,-0.62359595,1.071761,-0.8229384,0.18266602,0.6796875,-0.6775635,94.0
217,-0.90218484,0.47999185,-0.72503775,0.18266602,0.6796875,-0.6775635,94.0
218,-0.90218484,0.47999185,-0.72503775,0.5713623,0.7827026,-0.6818115,94.0
219,-1.0581981,0.14507747,-0.49802336,0.5713623,0.7827026,-0.6818115,94.0
220,-1.0581981,0.14507747,-0.49802336,0.8517334,0.8878418,-0.72641605,94.0
221,-1.1191659,0.022202134,-0.24664867,0.8517334,0.8878418,-0.72641605,94.0
222,-1.1191659,0.022202134,-0.24664867,1.0715698,0.98236084,-0.7434082,94.0
223,-1.0621173,-0.089306116,-0.022514254,1.0715698,0.98236084,-0.7434082,94.0
224,-1.0621173,-0.089306116,-0.022514254,1.3360108,1.0014771,-0.7582764,94.0
225,-0.9214835,-0.22789025,0.14597785,1.3360108,1.0014771,-0.7582764,94.0
226,-0.9214835,-0.22789025,0.14597785,1.5622193,0.9526245,-0.72216797,94.0
227,-0.73162043,-0.30404073,0.27372807,1.5622193,0.9526245,-0.72216797,94.0
228,-0.73162043,-0.30404073,0.27372807,1.5887696,0.9154541,-0.6531372,94.0
229,-0.6265561,-0.24822521,0.37436578,1.5887696,0.9154541,-0.6531372,94.0
230,-0.6265561,-0.24822521,0.37436578,1.4007934,0.85598147,-0.5278198,94.0
231,-0.5780637,-0.2132408,0.35510787,1.4007934,0.85598147,-0.5278198,94.0
232,-0.5780637,-0.2132408,0.35510787,1.1236085,0.8241211,-0.35895997,94.0
233,-0.54007554,-0.31191343,0.19535339,1.1236085,0.8241211,-0.35895997,94.0
234,-0.54007554,-0.31191343,0.19535339,0.8400513,0.7657105,-0.25063476,94.0
235,-0.5297777,-0.5112495,0.019100085,0.8400513,0.7657105,-0.25063476,94.0
236,-0.5297777,-0.5112495,0.019100085,0.542688,0.7338501,-0.16036378,94.0
237,-0.52980363,-0.77280575,-0.0808503,0.542688,0.7338501,-0.16036378,94.0
238,-0.52980363,-0.77280575,-0.0808503,0.35895997,0.6531372,-0.107263185,94.0
239,-0.52306163,-0.9042554,-0.08592048,0.35895997,0.6531372,-0.107263185,94.0
240,-0.52306163,-0.9042554,-0.08592048,0.03717041,0.56817627,-0.08920898,94.0
241,-0.5239425,-0.8495396,-0.007811088,0.03717041,0.56817627,-0.08920898,94.0
242,-0.5239425,-0.8495396,-0.007811088,-0.35577393,0.42799073,-0.15823975,94.0
243,-0.45665395,-0.7756643,0.1773693,-0.35577393,0.42799073,-0.15823975,94.0
244,-0.45665395,-0.7756643,0.1773693,-0.62340087,0.30054933,-0.32603762,94.0
245,-0.19862396,-0.9151116,0.42801607,-0.62340087,0.30054933,-0.32603762,94.0
246,-0.19862396,-0.9151116,0.42801607,-0.55543214,0.22196046,-0.29948732,94.0
247,0.08196998,-1.0592377,0.3862605,-0.55543214,0.22196046,-0.29948732,94.0
248,0.08196998,-1.0592377,0.3862605,-0.45772704,0.15717773,-0.015930176,94.0
249,0.14241922,-0.7670313,-0.17291299,-0.45772704,0.15717773,-0.015930176,94.0
250,0.14241922,-0.7670313,-0.17291299,-0.5055176,0.07752686,0.11363526,94.0
251,0.14241922,-0.7670313,-0.17291299,-0.5055176,0.07752686,0.11363526,93.0
252,0.035639465,-0.27755332,-0.88992953,-0.5055176,0.07752686,0.11363526,93.0
253,0.035639465,-0.27755332,-0.88992953,-0.54587406,-0.008496094,0.07752686,93.0
254,-0.04453528,-0.18608081,-1.2693533,-0.54587406,-0.008496094,0.07752686,93.0
255,-0.04453528,-0.18608081,-1.2693533,-0.4609131,-0.124255374,-0.0010620117,93.0
256,0.005631566,-0.48157954,-1.1871867,-0.4609131,-0.124255374,-0.0010620117,93.0
257,0.005631566,-0.48157954,-1.1871867,-0.362146,-0.23789063,-0.009558106,93.0
258,0.17834562,-0.5285864,-0.8441952,-0.362146,-0.23789063,-0.009558106,93.0
259,0.17834562,-0.5285864,-0.8441952,-0.36427003,-0.3334717,0.09133301,93.0
260,0.32150948,0.05829549,-0.5149802,-0.36427003,-0.3334717,0.09133301,93.0
261,0.32150948,0.05829549,-0.5149802,-0.46834716,-0.40250245,0.20921631,93.0
262,0.37903377,1.0066829,-0.3807342,-0.46834716,-0.40250245,0.20921631,93.0
263,0.37903377,1.0066829,-0.3807342,-0.66588134,-0.4704712,0.30479738,93.0
264,0.44127634,1.7276363,-0.44573724,-0.66588134,-0.4704712,0.30479738,93.0
265,0.44127634,1.7276363,-0.44573724,-0.8995239,-0.5256958,0.38763428,93.0
266,0.53716415,1.8651536,-0.52836716,-0.8995239,-0.5256958,0.38763428,93.0
267,0.53716415,1.8651536,-0.52836716,-0.97386473,-0.56605226,0.42905274,93.0
268,0.60727036,1.5439295,-0.43394852,-0.97386473,-0.56605226,0.42905274,93.0
269,0.60727036,1.5439295,-0.43394852,-0.8400513,-0.6042847,0.4163086,93.0
270,0.6178964,1.1993039,-0.19421697,-0.8400513,-0.6042847,0.4163086,93.0
271,0.6178964,1.1993039,-0.19421697,-0.7720825,-0.6680054,0.33665773,93.0
272,0.59363353,1.0133371,-3.9100647E-5,-0.7720825,-0.6680054,0.33665773,93.0
273,0.59363353,1.0133371,-3.9100647E-5,-0.83898926,-0.724292,0.1709839,93.0
274,0.590129,0.79782796,-0.0032662153,-0.83898926,-0.724292,0.1709839,93.0
275,0.590129,0.79782796,-0.0032662153,-0.71579593,-0.75615233,-0.012744141,93.0
276,0.60898066,0.45321596,0.037548184,-0.71579593,-0.75615233,-0.012744141,93.0
277,0.60898066,0.45321596,0.037548184,-0.42055663,-0.72960204,-0.078588866,93.0
278,0.5735615,0.17360795,0.44582224,-0.42055663,-0.72960204,-0.078588866,93.0
279,0.5735615,0.17360795,0.44582224,-0.59472656,-0.632959,-0.09239502,93.0
280,0.38738924,-0.07441926,0.9201832,-0.59472656,-0.632959,-0.09239502,93.0
281,0.38738924,-0.07441926,0.9201832,-0.544812,-0.57242435,-0.21134034,93.0
282,0.07047045,-0.34658372,1.0539443,-0.544812,-0.57242435,-0.21134034,93.0
283,0.07047045,-0.34658372,1.0539443,-0.31860352,-0.55968016,-0.31329346,93.0
284,-0.1996051,-0.6399745,0.91130745,-0.31860352,-0.55968016,-0.31329346,93.0
285,-0.1996051,-0.6399745,0.91130745,-0.16885987,-0.5129517,-0.44923097,93.0
286,-0.16717923,-0.9997482,0.67324764,-0.16885987,-0.5129517,-0.44923097,93.0
287,-0.16717923,-0.9997482,0.67324764,-0.03186035,-0.48215333,-0.5129517,93.0
288,0.051144302,-1.0587463,0.44475046,-0.03186035,-0.48215333,-0.5129517,93.0
289,0.051144302,-1.0587463,0.44475046,-0.022302246,-0.4895874,-0.540564,93.0
290,0.025339246,-0.6264892,0.30387166,-0.022302246,-0.4895874,-0.540564,93.0
291,0.025339246,-0.6264892,0.30387166,-0.19541016,-0.52675784,-0.6085327,93.0
292,-0.27633506,-0.1514233,0.37241864,-0.19541016,-0.52675784,-0.6085327,93.0
293,-0.27633506,-0.1514233,0.37241864,-0.59260255,-0.5564942,-0.7986328,93.0
294,-0.5270129,-0.26186132,0.7457987,-0.59260255,-0.5564942,-0.7986328,93.0
295,-0.5270129,-0.26186132,0.7457987,-1.0492676,-0.51188964,-1.1416626,93.0
296,-0.38057026,-1.2928631,1.3486531,-1.0492676,-0.51188964,-1.1416626,93.0
297,-0.38057026,-1.2928631,1.3486531,-1.0343994,-0.37595215,-1.3147706,93.0
298,0.21069276,-2.9678597,1.8425089,-1.0343994,-0.37595215,-1.3147706,93.0
299,0.21069276,-2.9678597,1.8425089,-0.20921631,-0.22727051,-0.93563235,93.0
300,0.75262403,-3.6651082,1.7300496,-0.20921631,-0.22727051,-0.93563235,93.0
301,0.75262403,-3.6651082,1.7300496,0.630835,-0.18585205,-0.541626,93.0
302,0.8697262,-2.2164984,0.9210392,0.630835,-0.18585205,-0.541626,93.0
303,0.8697262,-2.2164984,0.9210392,0.7805786,-0.18372802,-0.38551027,93.0
304,0.70749974,0.22164989,-0.08494592,0.7805786,-0.18372802,-0.38551027,93.0
305,0.70749974,0.22164989,-0.08494592,0.35046387,-0.098767094,-0.35789797,93.0
306,0.5207727,1.8283576,-0.69874287,0.35046387,-0.098767094,-0.35789797,93.0
307,0.5207727,1.8283576,-0.69874287,-0.15080567,0.0031860352,-0.44179687,93.0
308,0.38562453,2.0584135,-0.7738136,-0.15080567,0.0031860352,-0.44179687,93.0
309,0.38562453,2.0584135,-0.7738136,-0.53100586,0.13275146,-0.4991455,93.0
310,0.23674667,1.6846216,-0.6275592,-0.53100586,0.13275146,-0.4991455,93.0
311,0.23674667,1.6846216,-0.6275592,-0.73703617,0.30267334,-0.5341919,93.0
312,-0.04741907,1.535478,-0.6404751,-0.73703617,0.30267334,-0.5341919,93.0
313,-0.04741907,1.535478,-0.6404751,-0.83474123,0.4609131,-0.5798584,93.0
314,-0.46551096,1.7049448,-0.9323752,-0.83474123,0.4609131,-0.5798584,93.0
315,-0.46551096,1.7049448,-0.9323752,-0.89846194,0.6180908,-0.6403931,93.0
316,-0.8456632,1.8020785,-1.2513567,-0.89846194,0.6180908,-0.6403931,93.0
317,-0.8456632,1.8020785,-1.2513567,-0.83686525,0.72216797,-0.67437744,93.0
318,-0.9733079,1.5484377,-1.3158314,-0.83686525,0.72216797,-0.67437744,93.0
319,-0.9733079,1.5484377,-1.3158314,-0.70942384,0.7827026,-0.66481936,93.0
320,-0.8613978,1.0743092,-1.1039958,-0.70942384,0.7827026,-0.66481936,93.0
321,-0.8613978,1.0743092,-1.1039958,-0.5384399,0.81031495,-0.63720703,93.0
322,-0.72855914,0.70898354,-0.7637508,-0.5384399,0.81031495,-0.63720703,93.0
323,-0.72855914,0.70898354,-0.7637508,-0.3982544,0.811377,-0.6138428,93.0
324,-0.6616315,0.5442133,-0.37654018,-0.3982544,0.811377,-0.6138428,93.0
325,-0.6616315,0.5442133,-0.37654018,-0.3175415,0.79119873,-0.5957886,93.0
326,-0.5730552,0.43911827,0.06407547,-0.3175415,0.79119873,-0.5957886,93.0
327,-0.5730552,0.43911827,0.06407547,-0.3079834,0.77526855,-0.5564942,93.0
328,-0.46604916,0.1961677,0.44234926,-0.3079834,0.77526855,-0.5564942,93.0
329,-0.46604916,0.1961677,0.44234926,-0.21027832,0.7497803,-0.46834716,93.0
330,-0.37905273,-0.18716991,0.59906983,-0.21027832,0.7497803,-0.46834716,93.0
331,-0.37905273,-0.18716991,0.59906983,-0.093457036,0.71579593,-0.31010744,93.0
332,-0.33075684,-0.52139115,0.5921831,-0.093457036,0.71579593,-0.31010744,93.0
333,-0.33075684,-0.52139115,0.5921831,0.0063720704,0.65844727,-0.13275146,93.0
334,-0.3903257,-0.69803333,0.5664833,0.0063720704,0.65844727,-0.13275146,93.0
335,-0.3903257,-0.69803333,0.5664833,0.070092775,0.57561034,-0.014868164,93.0
336,-0.5342821,-0.7719399,0.5944464,0.070092775,0.57561034,-0.014868164,93.0
337,-0.5342821,-0.7719399,0.5944464,0.083898924,0.50020754,0.06478272,93.0
338,-0.6252162,-0.8686994,0.6756182,0.083898924,0.50020754,0.06478272,93.0
339,-0.6252162,-0.8686994,0.6756182,0.12531738,0.45347902,0.14761963,93.0
340,-0.59016323,-1.0054088,0.7655312,0.12531738,0.45347902,0.14761963,93.0
341,-0.59016323,-1.0054088,0.7655312,-0.0053100586,0.44710693,0.27718505,93.0
342,-0.595678,-1.1560726,0.7283673,-0.0053100586,0.44710693,0.27718505,93.0
343,-0.595678,-1.1560726,0.7283673,-0.12213135,0.41206056,0.32922363,93.0
344,-0.61531186,-1.4700485,0.620731,-0.12213135,0.41206056,0.32922363,93.0
345,-0.61531186,-1.4700485,0.620731,0.05522461,0.2984253,0.20603028,93.0
346,-0.61531186,-1.4700485,0.620731,0.05522461,0.2984253,0.20603028,93.0
347,-0.43153167,-1.5621594,0.538284,0.05522461,0.2984253,0.20603028,93.0
348,-0.43153167,-1.5621594,0.538284,0.21558838,0.23258057,0.19222413,93.0
349,0.31386888,-2.078585,0.55942357,0.21558838,0.23258057,0.19222413,93.0
350,0.31386888,-2.078585,0.55942357,0.47471926,0.14761963,0.3175415,93.0
351,0.49801898,-1.6692644,0.3369187,0.47471926,0.14761963,0.3175415,93.0
352,0.49801898,-1.6692644,0.3369187,0.37807617,0.15930176,0.33240968,93.0
353,0.43382776,-0.7177236,-0.3524865,0.37807617,0.15930176,0.33240968,93.0
354,0.43382776,-0.7177236,-0.3524865,0.12000733,0.1731079,0.18479005,93.0
355,0.27991128,-0.48261404,-0.5145576,0.12000733,0.1731079,0.18479005,93.0
356,0.27991128,-0.48261404,-0.5145576,0.11682129,0.15611573,0.14230958,93.0
357,0.22622395,-0.44422126,-0.941712,0.11682129,0.15611573,0.14230958,93.0
358,0.22622395,-0.44422126,-0.941712,0.22939454,0.08071289,0.14018555,93.0
359,0.30593038,-0.31321383,-0.91641897,0.22939454,0.08071289,0.14018555,93.0
360,0.30593038,-0.31321383,-0.91641897,0.26444092,0.052038576,0.16354981,93.0
361,0.6510798,0.86233175,-1.1346732,0.26444092,0.052038576,0.16354981,93.0
362,0.6510798,0.86233175,-1.1346732,0.016992187,-0.0010620117,0.2984253,93.0
363,0.64487505,1.2719942,-1.0202508,0.016992187,-0.0010620117,0.2984253,93.0
364,0.64487505,1.2719942,-1.0202508,-0.13806152,-0.019116212,0.3462158,93.0
365,0.6587223,2.5726004,-1.1002705,-0.13806152,-0.019116212,0.3462158,93.0
366,0.6587223,2.5726004,-1.1002705,-0.47578126,-0.095581055,0.4364868,93.0
367,0.58266634,2.3421378,-0.9126383,-0.47578126,-0.095581055,0.4364868,93.0
368,0.58266634,2.3421378,-0.9126383,-0.48640138,-0.12956543,0.4694092,93.0
369,0.5554885,2.0307417,-0.8364339,-0.48640138,-0.12956543,0.4694092,93.0
370,0.5554885,2.0307417,-0.8364339,-0.34090576,-0.2623169,0.5586182,93.0
371,0.4969665,1.5868248,-0.666901,-0.34090576,-0.2623169,0.5586182,93.0
372,0.4969665,1.5868248,-0.666901,-0.3090454,-0.29630128,0.5692383,93.0
373,0.35056394,1.1681292,-0.39088166,-0.3090454,-0.29630128,0.5692383,93.0
374,0.35056394,1.1681292,-0.39088166,-0.27718505,-0.38338622,0.5150757,93.0
375,0.22035593,0.87096584,-0.17531514,-0.27718505,-0.38338622,0.5150757,93.0
376,0.22035593,0.87096584,-0.17531514,-0.25700685,-0.41949463,0.48746338,93.0
377,-0.12657171,0.2858963,0.45121515,-0.25700685,-0.41949463,0.48746338,93.0
378,-0.12657171,0.2858963,0.45121515,-0.18903808,-0.44073486,0.48109132,93.0
379,-0.15738529,-0.014874339,0.5376811,-0.18903808,-0.44073486,0.48109132,93.0
380,-0.15738529,-0.014874339,0.5376811,-0.004248047,-0.43861085,0.4704712,93.0
381,-0.15875736,-0.586985,0.6098812,-0.004248047,-0.43861085,0.4704712,93.0
382,-0.15875736,-0.586985,0.6098812,0.3727661,-0.4248047,0.5033936,93.0
383,-0.04678127,-0.9213824,0.44654757,0.3727661,-0.4248047,0.5033936,93.0
384,-0.04678127,-0.9213824,0.44654757,0.6287109,-0.3812622,0.5331299,93.0
385,0.03310722,-0.9882534,0.19578785,0.6287109,-0.3812622,0.5331299,93.0
386,0.03310722,-0.9882534,0.19578785,0.83898926,-0.35471192,0.47471926,93.0
387,0.10751605,-0.86180633,0.03878361,0.83898926,-0.35471192,0.47471926,93.0
388,0.10751605,-0.86180633,0.03878361,0.8644776,-0.31435546,0.34090576,93.0
389,0.23403531,-0.49372977,0.21054348,0.8644776,-0.31435546,0.34090576,93.0
390,0.23403531,-0.49372977,0.21054348,0.6064087,-0.2516968,0.10089111,93.0
391,0.15074143,-0.30014738,0.23830783,0.6064087,-0.2516968,0.10089111,93.0
392,0.15074143,-0.30014738,0.23830783,0.42905274,-0.23258057,0.04141846,93.0
393,-0.0478639,-0.14872387,0.3937957,0.42905274,-0.23258057,0.04141846,93.0
394,-0.0478639,-0.14872387,0.3937957,0.10407715,-0.18054199,-0.07646485,93.0
395,-0.11110607,-0.6156466,0.46397454,0.10407715,-0.18054199,-0.07646485,93.0
396,-0.11110607,-0.6156466,0.46397454,0.16036378,-0.15930176,-0.1901001,93.0
397,0.14275575,-1.3919191,0.5662724,0.16036378,-0.15930176,-0.1901001,93.0
398,0.14275575,-1.3919191,0.5662724,0.2516968,-0.14549561,-0.2782471,93.0
399,0.63451713,-1.9368997,0.7999784,0.2516968,-0.14549561,-0.2782471,93.0
400,0.63451713,-1.9368997,0.7999784,0.24213867,-0.10513916,-0.32178956,93.0
401,1.232455,-2.4170246,1.0382371,0.24213867,-0.10513916,-0.32178956,93.0
402,1.232455,-2.4170246,1.0382371,0.46728516,-0.07434082,-0.2803711,93.0
403,1.6091452,-2.814418,1.0061879,0.46728516,-0.07434082,-0.2803711,93.0
404,1.6091452,-2.814418,1.0061879,0.8527954,-0.13806152,-0.18372802,93.0
405,1.4698235,-2.2248135,0.6484318,0.8527954,-0.13806152,-0.18372802,93.0
406,1.4698235,-2.2248135,0.6484318,0.7625244,-0.20284425,-0.058410645,93.0
407,1.0307173,-0.3607955,0.12072301,0.7625244,-0.20284425,-0.058410645,93.0
408,1.0307173,-0.3607955,0.12072301,0.04141846,-0.17629395,0.06478272,93.0
409,0.60567737,1.8196523,-0.4044348,0.04141846,-0.17629395,0.06478272,93.0
410,0.60567737,1.8196523,-0.4044348,-1.0099732,-0.09451904,0.11151123,93.0
411,0.26292324,3.418637,-0.7465581,-1.0099732,-0.09451904,0.11151123,93.0
412,0.26292324,3.418637,-0.7465581,-2.2748291,0.08071289,0.058410645,93.0
413,-0.036048174,3.9327857,-0.94058144,-2.2748291,0.08071289,0.058410645,93.0
414,-0.036048174,3.9327857,-0.94058144,-3.1074464,0.28674316,0.027612304,93.0
415,-0.36598468,3.5123296,-0.9770502,-3.1074464,0.28674316,0.027612304,93.0
416,-0.36598468,3.5123296,-0.9770502,-3.1085083,0.3695801,-0.07327881,93.0
417,-0.65549517,2.7257085,-0.91810256,-3.1085083,0.3695801,-0.07327881,93.0
418,-0.65549517,2.7257085,-0.91810256,-2.8430054,0.38657227,-0.06584473,93.0
419,-0.77337074,2.0053592,-0.76154506,-2.8430054,0.38657227,-0.06584473,93.0
420,-0.77337074,2.0053592,-0.76154506,-2.6953857,0.46728516,-0.17523193,93.0
421,-0.9088577,1.5316923,-0.6287062,-2.6953857,0.46728516,-0.17523193,93.0
422,-0.9088577,1.5316923,-0.6287062,-2.263147,0.31010744,-0.23151855,93.0
423,-1.2296252,1.4279051,-0.70772576,-2.263147,0.31010744,-0.23151855,93.0
424,-1.2296252,1.4279051,-0.70772576,-2.8281372,0.19116211,-0.31860352,93.0
425,-1.6768398,1.0527244,-0.7558657,-2.8281372,0.19116211,-0.31860352,93.0
426,-1.6768398,1.0527244,-0.7558657,-3.3124146,-0.21877442,-0.18479005,93.0
427,-2.2850387,-0.053450346,-0.5198659,-3.3124146,-0.21877442,-0.18479005,93.0
428,-2.2850387,-0.053450346,-0.5198659,-2.6773317,-0.8867798,-0.16992188,93.0
429,-2.8682044,-1.1697013,-0.39755774,-2.6773317,-0.8867798,-0.16992188,93.0
430,-2.8682044,-1.1697013,-0.39755774,-1.2128174,-1.8595825,-0.19753419,93.0
431,-3.1728594,-1.6059637,-0.14429128,-1.2128174,-1.8595825,-0.19753419,93.0
432,-3.1728594,-1.6059637,-0.14429128,-0.9770508,-2.6529052,0.027612304,93.0
433,-2.8862734,-1.7827202,0.84021884,-0.9770508,-2.6529052,0.027612304,93.0
434,-2.8862734,-1.7827202,0.84021884,-2.2716432,-3.2901123,0.5140137,93.0
435,-1.9950294,-3.4915328,1.5978587,-2.2716432,-3.2901123,0.5140137,93.0
436,-1.9950294,-3.4915328,1.5978587,-1.4783204,-3.7393434,0.45135498,93.0
437,-0.50497127,-5.1332774,1.3793001,-1.4783204,-3.7393434,0.45135498,93.0
438,-0.50497127,-5.1332774,1.3793001,-0.7168579,-3.8689086,0.58198243,93.0
439,1.1201808,-4.716656,0.53473896,-0.7168579,-3.8689086,0.58198243,93.0
440,1.1201808,-4.716656,0.53473896,-0.060534667,-4.0409546,1.083252,93.0
441,1.7040915,-3.9370947,-0.56490904,-0.060534667,-4.0409546,1.083252,93.0
442,1.7040915,-3.9370947,-0.56490904,-0.63933104,-4.2968993,0.8931519,93.0
443,1.4553509,-3.0767145,-2.5925157,-0.63933104,-4.2968993,0.8931519,93.0
444,1.4553509,-3.0767145,-2.5925157,1.9360474,-4.415845,1.0938721,93.0
445,1.8249253,-0.77261424,-4.2311172,1.9360474,-4.415845,1.0938721,93.0
446,1.8249253,-0.77261424,-4.2311172,3.6979249,-3.9241333,1.0471436,93.0
447,2.4363809,2.8574824,-2.5409727,3.6979249,-3.9241333,1.0471436,93.0
448,2.4363809,2.8574824,-2.5409727,1.8394043,-3.4706542,1.1873292,93.0
449,2.1142046,5.261572,0.8489723,1.8394043,-3.4706542,1.1873292,93.0
450,2.1142046,5.261572,0.8489723,-0.5968506,-3.170105,1.0864381,93.0
451,2.1142046,5.261572,0.8489723,-0.5968506,-3.170105,1.0864381,92.0
452,1.6018131,3.8767135,1.9680939,-0.5968506,-3.170105,1.0864381,92.0
453,1.6018131,3.8767135,1.9680939,-0.88359374,-2.7814088,1.2340577,92.0
454,1.023174,0.843595,0.42185068,-0.88359374,-2.7814088,1.2340577,92.0
455,1.023174,0.843595,0.42185068,1.2404298,-2.732556,1.1480347,92.0
456,-0.08740562,0.87245905,-0.8197216,1.2404298,-2.732556,1.1480347,92.0
457,-0.08740562,0.87245905,-0.8197216,2.0040162,-2.3895264,-0.13168946,92.0
458,-0.45417744,4.2466125,1.0875332,2.0040162,-2.3895264,-0.13168946,92.0
459,-0.45417744,4.2466125,1.0875332,0.8241211,-1.6705445,-1.2776002,92.0
460,1.0817752,5.147473,3.6524608,0.8241211,-1.6705445,-1.2776002,92.0
461,1.0817752,5.147473,3.6524608,-1.5038086,-1.445398,-2.1027832,92.0
462,2.5119047,-0.4237697,2.608663,-1.5038086,-1.445398,-2.1027832,92.0
463,2.5119047,-0.4237697,2.608663,-2.1250856,-1.0864381,-1.2298096,92.0
464,1.8156149,-5.566433,-0.9961507,-2.1250856,-1.0864381,-1.2298096,92.0
465,1.8156149,-5.566433,-0.9961507,0.9451904,-0.5703003,-0.48109132,92.0
466,0.8837054,-2.8360565,-2.674484,0.9451904,-0.5703003,-0.48109132,92.0
467,0.8837054,-2.8360565,-2.674484,1.4273437,-0.2166504,-0.093457036,92.0
468,0.525043,2.8468287,-1.1801023,1.4273437,-0.2166504,-0.093457036,92.0
469,0.525043,2.8468287,-1.1801023,0.45560303,-0.09239502,0.22089843,92.0
470,0.12876248,4.114731,1.160508,0.45560303,-0.09239502,0.22089843,92.0
471,0.12876248,4.114731,1.160508,-0.47365722,0.28568116,0.37382814,92.0
472,-0.017778635,2.097986,2.530201,-0.47365722,0.28568116,0.37382814,92.0
473,-0.017778635,2.097986,2.530201,-1.3296387,0.7349121,0.5777344,92.0
474,-0.46665215,0.879292,2.1429229,-1.3296387,0.7349121,0.5777344,92.0
475,-0.46665215,0.879292,2.1429229,-1.8022339,0.9154541,0.6053467,92.0
476,-1.4569278,0.92202497,0.7918531,-1.8022339,0.9154541,0.6053467,92.0
477,-1.4569278,0.92202497,0.7918531,-2.1495118,0.7104859,0.36745605,92.0
478,-1.9711574,0.69290566,-0.2625259,-2.1495118,0.7104859,0.36745605,92.0
479,-1.9711574,0.69290566,-0.2625259,-2.3937745,0.26019287,0.04141846,92.0
480,-1.3662326,-0.6151335,-0.7511584,-2.3937745,0.26019287,0.04141846,92.0
481,-1.3662326,-0.6151335,-0.7511584,-1.621692,-0.18903808,-0.18691407,92.0
482,-0.1886037,-2.3996265,-0.73292136,-1.621692,-0.18903808,-0.18691407,92.0
483,-0.1886037,-2.3996265,-0.73292136,-0.039294433,-0.4078125,-0.19116211,92.0
484,0.5597615,-2.855297,0.15533772,-0.039294433,-0.4078125,-0.19116211,92.0
485,0.5597615,-2.855297,0.15533772,1.0407715,-0.38338622,-0.19222413,92.0
486,0.47263837,-1.5377654,1.5687771,1.0407715,-0.38338622,-0.19222413,92.0
487,0.47263837,-1.5377654,1.5687771,0.9791748,-0.2527588,-0.14868164,92.0
488,-0.2811544,-0.16804194,2.3041427,0.9791748,-0.2527588,-0.14868164,92.0
489,-0.2811544,-0.16804194,2.3041427,0.3355957,-0.08814698,-0.10513916,92.0
490,-1.1744108,-0.16404784,1.9618078,0.3355957,-0.08814698,-0.10513916,92.0
491,-1.1744108,-0.16404784,1.9618078,-0.31329346,-0.07327881,-0.1539917,92.0
492,-1.6000756,-1.4175664,1.2618657,-0.31329346,-0.07327881,-0.1539917,92.0
493,-1.6000756,-1.4175664,1.2618657,-0.62977296,-0.095581055,-0.17416993,92.0
494,-1.3240547,-2.863997,0.64037645,-0.62977296,-0.095581055,-0.17416993,92.0
495,-1.3240547,-2.863997,0.64037645,-0.2442627,-0.18479005,-0.25063476,92.0
496,-0.49250787,-3.195702,-0.09786725,-0.2442627,-0.18479005,-0.25063476,92.0
497,-0.49250787,-3.195702,-0.09786725,0.07646485,-0.24744873,-0.39082032,92.0
498,0.38333744,-2.263715,-1.1825786,0.07646485,-0.24744873,-0.39082032,92.0
499,0.38333744,-2.263715,-1.1825786,-0.3090454,-0.12319336,-0.32285157,92.0
500,0.7284229,-1.3651834,-2.5074399,-0.3090454,-0.12319336,-0.32285157,92.0
501,0.7284229,-1.3651834,-2.5074399,-0.33134767,0.10620117,-0.16248779,92.0
502,0.6155386,-1.1093585,-3.399226,-0.33134767,0.10620117,-0.16248779,92.0
503,0.6155386,-1.1093585,-3.399226,0.20178223,0.26868898,-0.22089843,92.0
504,0.5221062,-0.8969474,-3.2599568,0.20178223,0.26868898,-0.22089843,92.0
505,0.5221062,-0.8969474,-3.2599568,0.44923097,0.5235718,-0.11151123,92.0
506,0.48516542,-0.2882731,-2.371491,0.44923097,0.5235718,-0.11151123,92.0
507,0.48516542,-0.2882731,-2.371491,0.50445557,0.721106,-0.02442627,92.0
508,0.39676273,0.8439665,-1.3719364,0.50445557,0.721106,-0.02442627,92.0
509,0.39676273,0.8439665,-1.3719364,0.4163086,0.9239502,0.115759276,92.0
510,0.214041,2.2619164,-0.5041776,0.4163086,0.9239502,0.115759276,92.0
511,0.214041,2.2619164,-0.5041776,0.35046387,1.0747559,0.19541016,92.0
512,-0.07150406,3.443249,0.40221214,0.35046387,1.0747559,0.19541016,92.0
513,-0.07150406,3.443249,0.40221214,0.2516968,1.183081,0.2081543,92.0
514,-0.36222035,3.8946505,1.2073044,0.2516968,1.183081,0.2081543,92.0
515,-0.36222035,3.8946505,1.2073044,0.31010744,1.176709,0.15717773,92.0
516,-0.5351864,3.5687356,1.5013659,0.31010744,1.176709,0.15717773,92.0
517,-0.5351864,3.5687356,1.5013659,0.20921631,0.95581055,0.11257324,92.0
518,-0.5097776,2.8453937,1.2214296,0.20921631,0.95581055,0.11257324,92.0
519,-0.5097776,2.8453937,1.2214296,-0.093457036,0.7327881,0.053100586,92.0
520,-0.2864964,1.9094326,0.68703145,-0.093457036,0.7327881,0.053100586,92.0
521,-0.2864964,1.9094326,0.68703145,-0.35683593,0.48746338,-0.013806152,92.0
522,0.06342983,0.7306223,0.28429314,-0.35683593,0.48746338,-0.013806152,92.0
523,0.06342983,0.7306223,0.28429314,-0.5256958,0.2824951,-0.06796875,92.0
524,0.46520922,-0.55502856,0.19970015,-0.5256958,0.2824951,-0.06796875,92.0
525,0.46520922,-0.55502856,0.19970015,-0.5012695,0.11044922,-0.07646485,92.0
526,0.8167963,-1.5321332,0.33063415,-0.5012695,0.11044922,-0.07646485,92.0
527,0.8167963,-1.5321332,0.33063415,-0.2814331,0.026550293,-0.007434082,92.0
528,1.0138985,-1.6489488,0.5149224,-0.2814331,0.026550293,-0.007434082,92.0
529,1.0138985,-1.6489488,0.5149224,-0.007434082,0.010620117,0.090270996,92.0
530,0.95584536,-0.86687636,0.7075922,-0.007434082,0.010620117,0.090270996,92.0
531,0.95584536,-0.86687636,0.7075922,0.12213135,0.04248047,0.1359375,92.0
532,0.64995456,-0.036652923,0.90474564,0.12213135,0.04248047,0.1359375,92.0
533,0.64995456,-0.036652923,0.90474564,0.2081543,0.0722168,0.14761963,92.0
534,0.23669958,-0.025049925,1.034673,0.2081543,0.0722168,0.14761963,92.0
535,0.23669958,-0.025049925,1.034673,0.2623169,0.0998291,0.17416993,92.0
536,-0.1818806,-0.73615324,1.0349528,0.2623169,0.0998291,0.17416993,92.0
537,-0.1818806,-0.73615324,1.0349528,0.30161133,0.1274414,0.21558838,92.0
538,-0.57480145,-1.421674,0.8924031,0.30161133,0.1274414,0.21558838,92.0
539,-0.57480145,-1.421674,0.8924031,0.36851808,0.12000733,0.2177124,92.0
540,-0.8626121,-1.5001688,0.7051213,0.36851808,0.12000733,0.2177124,92.0
541,-0.8626121,-1.5001688,0.7051213,0.32178956,0.06159668,0.11044922,92.0
542,-1.014101,-1.3216927,0.47830606,0.32178956,0.06159668,0.11044922,92.0
543,-1.014101,-1.3216927,0.47830606,-0.22196046,-0.020178223,0.046728518,92.0
544,-1.1172622,-1.9245539,-0.13531172,-0.22196046,-0.020178223,0.046728518,92.0
545,-1.1172622,-1.9245539,-0.13531172,-0.8517334,-0.09239502,0.14018555,92.0
546,-1.1874499,-2.854133,-1.4082615,-0.8517334,-0.09239502,0.14018555,92.0
547,-1.1874499,-2.854133,-1.4082615,-0.97386473,-0.13806152,0.27718505,92.0
548,-1.1780972,-2.1424005,-2.6698833,-0.97386473,-0.13806152,0.27718505,92.0
549,-1.1780972,-2.1424005,-2.6698833,-0.6903076,-0.22089843,0.2814331,92.0
550,-1.1783786,0.017195463,-2.915826,-0.6903076,-0.22089843,0.2814331,92.0
551,-1.1783786,0.017195463,-2.915826,-0.6988037,-0.21983643,0.4067505,92.0
552,-1.2493191,1.3788687,-2.1264842,-0.6988037,-0.21983643,0.4067505,92.0
553,-1.2493191,1.3788687,-2.1264842,-0.45135498,-0.270813,0.41312256,92.0
554,-1.2493191,1.3788687,-2.1264842,-0.45135498,-0.270813,0.41312256,91.0
555,-1.1646652,1.400385,-0.8362216,-0.45135498,-0.270813,0.41312256,91.0
556,-1.1646652,1.400385,-0.8362216,-0.271875,-0.3164795,0.25806886,91.0
557,-0.7221253,1.0779252,0.4912889,-0.271875,-0.3164795,0.25806886,91.0
558,-0.7221253,1.0779252,0.4912889,-0.52250975,-0.3154175,0.1444336,91.0
559,-0.014736295,0.9374134,1.4162855,-0.52250975,-0.3154175,0.1444336,91.0
560,-0.014736295,0.9374134,1.4162855,-0.9430664,-0.30161133,0.07327881,91.0
561,0.7456329,0.8898111,1.6721642,-0.9430664,-0.30161133,0.07327881,91.0
562,0.7456329,0.8898111,1.6721642,-1.1055542,-0.3154175,0.107263185,91.0
563,1.3550391,0.88694656,1.3897212,-1.1055542,-0.3154175,0.107263185,91.0
564,1.3550391,0.88694656,1.3897212,-0.77951664,-0.41524658,0.13062744,91.0
565,1.6598736,1.1370231,0.9085665,-0.77951664,-0.41524658,0.13062744,91.0
566,1.6598736,1.1370231,0.9085665,-0.34833986,-0.5278198,0.11257324,91.0
567,1.6184506,1.6510614,0.42662123,-0.34833986,-0.5278198,0.11257324,91.0
568,1.6184506,1.6510614,0.42662123,-0.15611573,-0.5777344,0.060534667,91.0
569,1.2537816,1.987292,0.031543553,-0.15611573,-0.5777344,0.060534667,91.0
570,1.2537816,1.987292,0.031543553,-0.19647217,-0.55543214,-0.0180542,91.0
571,0.6956034,1.6133077,-0.23722854,-0.19647217,-0.55543214,-0.0180542,91.0
572,0.6956034,1.6133077,-0.23722854,-0.32391357,-0.48427734,-0.06690674,91.0
573,0.16691971,0.61790454,-0.4114137,-0.32391357,-0.48427734,-0.06690674,91.0
574,0.16691971,0.61790454,-0.4114137,-0.25700685,-0.3791382,-0.11363526,91.0
575,-0.20207214,-0.20252693,-0.4726124,-0.25700685,-0.3791382,-0.11363526,91.0
576,-0.20207214,-0.20252693,-0.4726124,-0.025488282,-0.271875,-0.14761963,91.0
577,-0.44161376,-0.34170902,-0.33037266,-0.025488282,-0.271875,-0.14761963,91.0
578,-0.44161376,-0.34170902,-0.33037266,0.23364258,-0.18585205,-0.19541016,91.0
579,-0.61168945,-0.09173882,0.058004122,0.23364258,-0.18585205,-0.19541016,91.0
580,-0.61168945,-0.09173882,0.058004122,0.45878908,-0.11044922,-0.26125488,91.0
581,-0.7510947,-0.018264055,0.5667402,0.45878908,-0.11044922,-0.26125488,91.0
582,-0.7510947,-0.018264055,0.5667402,0.5065796,-0.03186035,-0.33240968,91.0
583,-0.8800018,-0.40449154,0.88296986,0.5065796,-0.03186035,-0.33240968,91.0
584,-0.8800018,-0.40449154,0.88296986,0.42055663,0.039294433,-0.33028564,91.0
585,-0.9346777,-1.0292817,0.83253556,0.42055663,0.039294433,-0.33028564,91.0
586,-0.9346777,-1.0292817,0.83253556,0.44179687,0.0637207,-0.25063476,91.0
587,-0.8323125,-1.4132081,0.67962706,0.44179687,0.0637207,-0.25063476,91.0
588,-0.8323125,-1.4132081,0.67962706,0.5766724,0.019116212,-0.31966552,91.0
589,-0.462371,-1.445337,0.61307424,0.5766724,0.019116212,-0.31966552,91.0
590,-0.462371,-1.445337,0.61307424,0.362146,-0.07752686,-0.4322388,91.0
591,0.12606269,-1.4699415,0.22800821,0.362146,-0.07752686,-0.4322388,91.0
592,0.12606269,-1.4699415,0.22800821,-0.3695801,-0.029736329,-0.65632325,91.0
593,0.6725665,-2.1997936,-0.84730536,-0.3695801,-0.029736329,-0.65632325,91.0
594,0.6725665,-2.1997936,-0.84730536,-1.0503296,0.14868164,-0.72216797,91.0
595,1.0446572,-3.421932,-2.1566772,-1.0503296,0.14868164,-0.72216797,91.0
596,1.0446572,-3.421932,-2.1566772,-0.9674927,0.36427003,-0.61065674,91.0
597,1.2998371,-3.7877288,-2.7791626,-0.9674927,0.36427003,-0.61065674,91.0
598,1.2998371,-3.7877288,-2.7791626,-0.1529297,0.41099855,-0.32922363,91.0
599,1.4572159,-2.7016797,-2.3259058,-0.1529297,0.41099855,-0.32922363,91.0
600,1.4572159,-2.7016797,-2.3259058,0.45560303,0.41949463,0.039294433,91.0
601,1.3418592,-0.68839455,-1.2448068,0.45560303,0.41949463,0.039294433,91.0
602,1.3418592,-0.68839455,-1.2448068,1.1331666,0.4598511,0.31010744,91.0
603,0.90114856,1.6084883,-0.008382082,1.1331666,0.4598511,0.31010744,91.0
604,0.90114856,1.6084883,-0.008382082,1.6376221,0.51082766,0.45029297,91.0
605,0.28155112,3.6790028,1.1195883,1.6376221,0.51082766,0.45029297,91.0
606,0.28155112,3.6790028,1.1195883,1.3869873,0.5256958,0.4163086,91.0
607,-0.34675622,4.9501967,1.6351969,1.3869873,0.5256958,0.4163086,91.0
608,-0.34675622,4.9501967,1.6351969,0.75509036,0.50233155,0.18054199,91.0
609,-0.9206789,5.2123184,1.297977,0.75509036,0.50233155,0.18054199,91.0
610,-0.9206789,5.2123184,1.297977,0.078588866,0.47471926,0.12000733,91.0
611,-1.305757,4.3856263,0.46943626,0.078588866,0.47471926,0.12000733,91.0
612,-1.305757,4.3856263,0.46943626,-0.28568116,0.4056885,0.12850343,91.0
613,-1.279945,2.6302173,-0.35374787,-0.28568116,0.4056885,0.12850343,91.0
614,-1.279945,2.6302173,-0.35374787,-0.42161867,0.27718505,0.06584473,91.0
615,-0.81641203,0.66005754,-0.8272122,-0.42161867,0.27718505,0.06584473,91.0
616,-0.81641203,0.66005754,-0.8272122,-0.44604492,0.16992188,0.0031860352,91.0
617,-0.10668188,-0.7827573,-0.86152565,-0.44604492,0.16992188,0.0031860352,91.0
618,-0.10668188,-0.7827573,-0.86152565,-0.37382814,0.039294433,0.040356446,91.0
619,0.5853698,-1.3998021,-0.5612664,-0.37382814,0.039294433,0.040356446,91.0
620,0.5853698,-1.3998021,-0.5612664,-0.13487549,-0.06903076,0.098767094,91.0
621,1.0567114,-1.2609794,-0.021034598,-0.13487549,-0.06903076,0.098767094,91.0
622,1.0567114,-1.2609794,-0.021034598,0.21452637,-0.11363526,0.20390625,91.0
623,1.15815,-0.6807684,0.76536226,0.21452637,-0.11363526,0.20390625,91.0
624,1.15815,-0.6807684,0.76536226,0.36320803,-0.17416993,0.24638672,91.0
625,0.89620984,-0.2510966,1.526865,0.36320803,-0.17416993,0.24638672,91.0
626,0.89620984,-0.2510966,1.526865,0.4609131,-0.21134034,0.23789063,91.0
627,0.39591074,-0.38198078,1.828975,0.4609131,-0.21134034,0.23789063,91.0
628,0.39591074,-0.38198078,1.828975,0.41524658,-0.27718505,0.21027832,91.0
629,-0.17881584,-0.9658141,1.484054,0.41524658,-0.27718505,0.21027832,91.0
630,-0.17881584,-0.9658141,1.484054,0.32178956,-0.35046387,0.14124756,91.0
631,-0.60635835,-1.5726514,0.7626827,0.32178956,-0.35046387,0.14124756,91.0
632,-0.60635835,-1.5726514,0.7626827,0.3440918,-0.45454103,0.10513916,91.0
633,-0.86243045,-1.9376743,0.1873312,0.3440918,-0.45454103,0.10513916,91.0
634,-0.86243045,-1.9376743,0.1873312,0.4088745,-0.56180423,0.12213135,91.0
635,-1.0697783,-2.561382,-0.08692706,0.4088745,-0.56180423,0.12213135,91.0
636,-1.0697783,-2.561382,-0.08692706,0.13806152,-0.6488892,0.16248779,91.0
637,-1.0875244,-3.2921355,-0.3720075,0.13806152,-0.6488892,0.16248779,91.0
638,-1.0875244,-3.2921355,-0.3720075,-0.16567384,-0.6616333,0.17416993,91.0
639,-0.67027587,-2.4161425,-0.6656724,-0.16567384,-0.6616333,0.17416993,91.0
640,-0.67027587,-2.4161425,-0.6656724,-0.4619751,-0.6244629,0.2177124,91.0
641,-0.08624509,-0.08111954,-0.56100476,-0.4619751,-0.6244629,0.2177124,91.0
642,-0.08624509,-0.08111954,-0.56100476,0.004248047,-0.4428589,0.1996582,91.0
643,0.31745413,1.8900604,0.16433096,0.004248047,-0.4428589,0.1996582,91.0
644,0.31745413,1.8900604,0.16433096,0.014868164,-0.0031860352,0.07327881,91.0
645,0.7596762,3.151123,0.91298336,0.014868164,-0.0031860352,0.07327881,91.0
646,0.7596762,3.151123,0.91298336,-1.2383057,0.37382814,-0.2081543,91.0
647,1.6158587,3.613269,1.0454868,-1.2383057,0.37382814,-0.2081543,91.0
648,1.6158587,3.613269,1.0454868,-2.7346802,0.92076415,-0.4980835,91.0
649,2.35172,2.9591699,0.84635043,-2.7346802,0.92076415,-0.4980835,91.0
650,2.35172,2.9591699,0.84635043,-2.4171388,1.3253907,-1.0482056,91.0
651,2.463737,2.1550193,0.6059989,-2.4171388,1.3253907,-1.0482056,91.0
652,2.463737,2.1550193,0.6059989,-1.4793824,1.5781494,-1.2244996,91.0
653,1.9263241,1.7287273,0.10232842,-1.4793824,1.5781494,-1.2244996,91.0
654,1.9263241,1.7287273,0.10232842,-0.4598511,1.905249,-1.7884277,91.0
655,1.1744456,1.3352647,-0.64598155,-0.4598511,1.905249,-1.7884277,91.0
656,1.1744456,1.3352647,-0.64598155,0.88359374,2.0518067,-2.069861,91.0
657,0.541461,1.119811,-1.5476568,0.88359374,2.0518067,-2.069861,91.0
658,0.541461,1.119811,-1.5476568,2.704944,2.0252564,-2.531836,91.0
659,-0.05486822,1.3637199,-2.3015044,2.704944,2.0252564,-2.531836,91.0
660,-0.05486822,1.3637199,-2.3015044,3.7881958,1.9296753,-2.9354005,91.0
661,-0.5662091,2.0170135,-2.6624804,3.7881958,1.9296753,-2.9354005,91.0
662,-0.5662091,2.0170135,-2.6624804,3.9984741,1.812854,-3.4069335,91.0
663,-0.9313853,2.6017091,-2.68715,3.9984741,1.812854,-3.4069335,91.0
664,-0.9313853,2.6017091,-2.68715,3.7404053,1.5696534,-4.060071,91.0
665,-1.045389,2.5442824,-2.578797,3.7404053,1.5696534,-4.060071,91.0
666,-1.045389,2.5442824,-2.578797,3.5874755,1.3009644,-4.7556887,91.0
667,-0.9195632,2.1570082,-2.1686163,3.5874755,1.3009644,-4.7556887,91.0
668,-0.9195632,2.1570082,-2.1686163,2.353418,1.0386475,-5.45874,91.0
669,-0.3217467,1.6846032,-1.4436212,2.353418,1.0386475,-5.45874,91.0
670,-0.3217467,1.6846032,-1.4436212,0.40037844,0.99085695,-6.001428,91.0
671,0.723523,0.9268451,-0.78941846,0.40037844,0.99085695,-6.001428,91.0
672,0.723523,0.9268451,-0.78941846,-1.6790406,1.0067872,-6.600403,91.0
673,1.9515357,0.033468246,-0.52832437,-1.6790406,1.0067872,-6.600403,91.0
674,1.9515357,0.033468246,-0.52832437,-3.6862428,1.2043213,-7.2333617,91.0
675,3.590196,-0.8222852,-0.64369226,-3.6862428,1.2043213,-7.2333617,91.0
676,3.590196,-0.8222852,-0.64369226,-6.0078006,1.6535523,-7.8355227,91.0
677,5.917042,-1.778409,-1.1021488,-6.0078006,1.6535523,-7.8355227,91.0
678,5.917042,-1.778409,-1.1021488,-8.490784,2.3289917,-8.058545,91.0
679,8.278201,-2.919773,-2.0683522,-8.490784,2.3289917,-8.058545,91.0
680,8.278201,-2.919773,-2.0683522,-11.1755495,3.2210815,-7.8206544,91.0
681,9.375906,-4.040433,-3.4757633,-11.1755495,3.2210815,-7.8206544,91.0
682,9.375906,-4.040433,-3.4757633,-13.27196,4.3234496,-7.08468,91.0
683,8.277935,-4.9457493,-4.3115797,-13.27196,4.3234496,-7.08468,91.0
684,8.277935,-4.9457493,-4.3115797,-13.996253,4.7397585,-6.1140018,91.0
685,4.918894,-5.5685625,-2.9336634,-13.996253,4.7397585,-6.1140018,91.0
686,4.918894,-5.5685625,-2.9336634,-11.540881,4.253357,-4.7684326,91.0
687,0.7223835,-5.482133,0.5479789,-11.540881,4.253357,-4.7684326,91.0
688,0.7223835,-5.482133,0.5479789,-8.089343,3.797754,-3.6607544,91.0
689,-2.6700182,-4.077601,3.6109052,-8.089343,3.797754,-3.6607544,91.0
690,-2.6700182,-4.077601,3.6109052,-5.1188965,3.1265626,-2.7229981,91.0
691,-4.643058,-1.6363239,4.2329383,-5.1188965,3.1265626,-2.7229981,91.0
692,-4.643058,-1.6363239,4.2329383,-2.0942872,2.2684572,-2.1102173,91.0
693,-5.2397146,0.30882418,3.0272322,-2.0942872,2.2684572,-2.1102173,91.0
694,-5.2397146,0.30882418,3.0272322,1.3784913,1.5739014,-1.5855836,91.0
695,-5.0705442,0.7861463,1.2863121,1.3784913,1.5739014,-1.5855836,91.0
696,-5.0705442,0.7861463,1.2863121,4.805603,0.78164065,-1.1809571,91.0
697,-4.821987,0.33282328,-0.6783478,4.805603,0.78164065,-1.1809571,91.0
698,-4.821987,0.33282328,-0.6783478,7.6783447,-0.019116212,-1.0598878,91.0
699,-4.6745696,-0.24283552,-2.1610498,7.6783447,-0.019116212,-1.0598878,91.0
700,-4.6745696,-0.24283552,-2.1610498,9.099317,-0.94731444,-0.90270996,91.0
701,-4.0472364,-0.6825497,-2.5024242,9.099317,-0.94731444,-0.90270996,91.0
702,-4.0472364,-0.6825497,-2.5024242,8.7095585,-1.4570801,-0.5511841,91.0
703,-3.04161,-1.4313426,-1.3227892,8.7095585,-1.4570801,-0.5511841,91.0
704,-3.04161,-1.4313426,-1.3227892,8.403699,-1.6726685,-0.25700685,91.0
705,-2.3537471,-2.0327327,0.936141,8.403699,-1.6726685,-0.25700685,91.0
706,-2.3537471,-2.0327327,0.936141,7.9119873,-1.7735596,-0.42374268,91.0
707,-2.182473,-1.4019065,2.987011,7.9119873,-1.7735596,-0.42374268,91.0
708,-2.182473,-1.4019065,2.987011,5.701941,-1.7969239,-0.90908206,91.0
709,-2.5803413,-0.7503462,4.241415,5.701941,-1.7969239,-0.90908206,91.0
710,-2.5803413,-0.7503462,4.241415,3.8274903,-1.5654052,-1.4857544,91.0
711,-3.2795074,-1.2097373,4.847234,3.8274903,-1.5654052,-1.4857544,91.0
712,-3.2795074,-1.2097373,4.847234,3.2040894,-1.5218629,-1.81073,91.0
713,-3.7260594,-1.9047527,4.9135904,3.2040894,-1.5218629,-1.81073,91.0
714,-3.7260594,-1.9047527,4.9135904,2.8270752,-1.2924683,-1.8553345,91.0
715,-3.545667,-2.2506332,4.4817266,2.8270752,-1.2924683,-1.8553345,91.0
716,-3.545667,-2.2506332,4.4817266,2.6964478,-1.0152832,-1.7693115,91.0
717,-2.752354,-2.0114565,3.617022,2.6964478,-1.0152832,-1.7693115,91.0
718,-2.752354,-2.0114565,3.617022,2.4989135,-0.7041138,-1.5027466,91.0
719,-1.6841952,-1.4234352,2.495107,2.4989135,-0.7041138,-1.5027466,91.0
720,-1.6841952,-1.4234352,2.495107,2.4776733,-0.5341919,-1.1469727,91.0
721,-0.83733416,-0.50934124,1.4812541,2.4776733,-0.5341919,-1.1469727,91.0
722,-0.83733416,-0.50934124,1.4812541,2.001892,-0.29417726,-0.70942384,91.0
723,-0.3463322,0.58863306,0.82559156,2.001892,-0.29417726,-0.70942384,91.0
724,-0.3463322,0.58863306,0.82559156,1.5069946,-0.039294433,-0.24532472,91.0
725,0.16161835,1.2966633,0.40150118,1.5069946,-0.039294433,-0.24532472,91.0
726,0.16161835,1.2966633,0.40150118,1.2340577,0.15611573,0.37489015,91.0
727,1.071592,1.5254412,0.105502605,1.2340577,0.15611573,0.37489015,91.0
728,1.071592,1.5254412,0.105502605,1.1023682,0.25913087,0.7508423,91.0
729,1.9427961,1.4463172,-0.067843914,1.1023682,0.25913087,0.7508423,91.0
730,1.9427961,1.4463172,-0.067843914,1.0981201,0.3175415,1.075818,91.0
731,2.0900278,1.2627788,-0.19641376,1.0981201,0.3175415,1.075818,91.0
732,2.0900278,1.2627788,-0.19641376,0.84536135,0.4258667,1.4230957,91.0
733,1.7983164,1.0235286,-0.28391314,0.84536135,0.4258667,1.4230957,91.0
734,1.7983164,1.0235286,-0.28391314,0.5957886,0.62127686,1.6588624,91.0
735,1.7010432,0.65855694,-0.11248207,0.5957886,0.62127686,1.6588624,91.0
736,1.7010432,0.65855694,-0.11248207,0.49383545,0.7858887,1.905249,91.0
737,1.7792428,0.31721425,0.2518723,0.49383545,0.7858887,1.905249,91.0
738,1.7792428,0.31721425,0.2518723,0.3462158,0.88040775,2.166504,91.0
739,1.9235895,0.09191823,0.34396625,0.3462158,0.88040775,2.166504,91.0
740,1.9235895,0.09191823,0.34396625,0.36002198,0.9345703,2.2928834,91.0
741,2.3264449,0.020763397,0.03925991,0.36002198,0.9345703,2.2928834,91.0
742,2.3264449,0.020763397,0.03925991,0.1996582,0.94412845,2.2843874,91.0
743,2.8399034,-0.026186943,-0.38573074,0.1996582,0.94412845,2.2843874,91.0
744,2.8399034,-0.026186943,-0.38573074,0.22939454,0.99935305,2.163318,91.0
745,2.996996,-0.12317133,-0.63100886,0.22939454,0.99935305,2.163318,91.0
746,2.996996,-0.12317133,-0.63100886,1.1363525,0.903772,2.0061402,91.0
747,2.523622,0.16634321,-0.7486303,1.1363525,0.903772,2.0061402,91.0
748,2.523622,0.16634321,-0.7486303,1.2032593,1.084314,1.8776368,91.0
749,1.3781748,0.6736386,-1.0876982,1.2032593,1.084314,1.8776368,91.0
750,1.3781748,0.6736386,-1.0876982,1.6896607,1.1554688,1.7799317,91.0
751,1.3781748,0.6736386,-1.0876982,1.6896607,1.1554688,1.7799317,91.0
752,0.036304474,1.1291819,-1.7561327,1.6896607,1.1554688,1.7799317,91.0
753,0.036304474,1.1291819,-1.7561327,1.8001099,1.270166,1.7916138,91.0
754,-0.9881072,1.5747933,-2.4440541,1.8001099,1.270166,1.7916138,91.0
755,-0.9881072,1.5747933,-2.4440541,1.8022339,1.3657471,1.9275513,91.0
756,-1.5897777,1.8386068,-2.8564153,1.8022339,1.3657471,1.9275513,91.0
757,-1.5897777,1.8386068,-2.8564153,1.8680786,1.3795532,2.0645509,91.0
758,-1.7579794,1.9849236,-2.9411747,1.8680786,1.3795532,2.0645509,91.0
759,-1.7579794,1.9849236,-2.9411747,1.9615357,1.3699951,2.166504,91.0
760,-1.5012445,2.055578,-2.7949443,1.9615357,1.3699951,2.166504,91.0
761,-1.5012445,2.055578,-2.7949443,2.0316284,1.3466309,2.2355347,91.0
762,-0.87862015,2.0554242,-2.5578303,2.0316284,1.3466309,2.2355347,91.0
763,-0.87862015,2.0554242,-2.5578303,1.9519776,1.3689331,2.247217,91.0
764,-0.17809129,1.9596105,-2.2739255,1.9519776,1.3689331,2.247217,91.0
765,-0.17809129,1.9596105,-2.2739255,1.7395753,1.4103516,2.2249146,91.0
766,0.26579118,1.8034428,-1.9541624,1.7395753,1.4103516,2.2249146,91.0
767,0.26579118,1.8034428,-1.9541624,1.4230957,1.4145997,2.1590698,91.0
768,0.40162206,1.6768607,-1.6716309,1.4230957,1.4145997,2.1590698,91.0
769,0.40162206,1.6768607,-1.6716309,0.9420044,1.4379638,2.0687988,91.0
770,0.35657597,1.5795379,-1.4228272,0.9420044,1.4379638,2.0687988,91.0
771,0.35657597,1.5795379,-1.4228272,0.37807617,1.4517701,1.996582,91.0
772,0.3841498,1.4396312,-1.20053,0.37807617,1.4517701,1.996582,91.0
773,0.3841498,1.4396312,-1.20053,-0.1901001,1.44115,1.8744507,91.0
774,0.6914506,1.2656088,-1.0356436,-0.1901001,1.44115,1.8744507,91.0
775,0.6914506,1.2656088,-1.0356436,-0.71579593,1.3986695,1.716211,91.0
776,0.9727771,1.1723869,-0.920104,-0.71579593,1.3986695,1.716211,91.0
777,0.9727771,1.1723869,-0.920104,-1.1979493,1.3965454,1.5654052,91.0
778,0.86481833,1.2265937,-0.82103205,-1.1979493,1.3965454,1.5654052,91.0
779,0.86481833,1.2265937,-0.82103205,-1.7905518,1.3721192,1.532483,91.0
780,0.58175945,1.3146245,-0.749526,-1.7905518,1.3721192,1.532483,91.0
781,0.58175945,1.3146245,-0.749526,-2.083667,1.2276856,1.4825684,91.0
782,0.61238027,1.3965483,-0.5905633,-2.083667,1.2276856,1.4825684,91.0
783,0.61238027,1.3965483,-0.5905633,-2.3969605,1.0492676,1.3168945,91.0
784,1.048913,1.355227,-0.24939156,-2.3969605,1.0492676,1.3168945,91.0
785,1.048913,1.355227,-0.24939156,-2.5169678,0.80181885,1.1108643,91.0
786,1.3883615,1.0759175,0.22950315,-2.5169678,0.80181885,1.1108643,91.0
787,1.3883615,1.0759175,0.22950315,-2.2843874,0.37382814,0.91757816,91.0
788,1.1236043,0.78380513,0.80464745,-2.2843874,0.37382814,0.91757816,91.0
789,1.1236043,0.78380513,0.80464745,-1.9190552,-0.039294433,0.7423462,91.0
790,0.35399818,0.56055236,1.3991499,-1.9190552,-0.039294433,0.7423462,91.0
791,0.35399818,0.56055236,1.3991499,-1.3944215,-0.41312256,0.43754885,91.0
792,-0.39353466,0.39114213,1.8982382,-1.3944215,-0.41312256,0.43754885,91.0
793,-0.39353466,0.39114213,1.8982382,-0.7051758,-0.7678345,0.20709229,91.0
794,-0.9921837,0.3516221,2.1559198,-0.7051758,-0.7678345,0.20709229,91.0
795,-0.9921837,0.3516221,2.1559198,0.03079834,-1.0439576,0.032922365,91.0
796,-1.6634612,0.38946438,2.065654,0.03079834,-1.0439576,0.032922365,91.0
797,-1.6634612,0.38946438,2.065654,0.7062378,-1.2521118,-0.16248779,91.0
798,-2.2510326,0.4167962,1.6398034,0.7062378,-1.2521118,-0.16248779,91.0
799,-2.2510326,0.4167962,1.6398034,1.1820191,-1.4145997,-0.3695801,91.0
800,-2.4291708,0.37295103,1.0790913,1.1820191,-1.4145997,-0.3695801,91.0
801,-2.4291708,0.37295103,1.0790913,1.4634522,-1.5547851,-0.58623046,91.0
802,-2.3086321,0.30922508,0.5985148,1.4634522,-1.5547851,-0.58623046,91.0
803,-2.3086321,0.30922508,0.5985148,1.5027466,-1.7066529,-0.8687256,91.0
804,-2.1026673,0.25841522,0.30975676,1.5027466,-1.7066529,-0.8687256,91.0
805,-2.1026673,0.25841522,0.30975676,1.2574219,-1.8553345,-1.2106934,91.0
806,-1.8542898,0.1413269,0.25628924,1.2574219,-1.8553345,-1.2106934,91.0
807,-1.8542898,0.1413269,0.25628924,0.86553955,-1.9732178,-1.5993897,91.0
808,-1.5602508,-0.11660147,0.4425435,0.86553955,-1.9732178,-1.5993897,91.0
809,-1.5602508,-0.11660147,0.4425435,0.47471926,-2.0592408,-2.0305665,91.0
810,-1.2995555,-0.57791233,0.88707924,0.47471926,-2.0592408,-2.0305665,91.0
811,-1.2995555,-0.57791233,0.88707924,0.37382814,-2.1866822,-2.4713013,91.0
812,-0.99773777,-1.1217294,1.4264969,0.37382814,-2.1866822,-2.4713013,91.0
813,-0.99773777,-1.1217294,1.4264969,0.40037844,-2.2355347,-2.9088502,91.0
814,-0.4628875,-1.62889,1.816344,0.40037844,-2.2355347,-2.9088502,91.0
815,-0.4628875,-1.62889,1.816344,0.5734863,-2.263147,-3.4026856,91.0
816,0.28570807,-2.0488274,1.9658437,0.5734863,-2.263147,-3.4026856,91.0
817,0.28570807,-2.0488274,1.9658437,0.6467652,-2.1973023,-3.722351,91.0
818,0.9620992,-2.4357905,2.025971,0.6467652,-2.1973023,-3.722351,91.0
819,0.9620992,-2.4357905,2.025971,0.8464233,-2.1813722,-4.0961795,91.0
820,1.4627702,-2.73103,2.1525638,0.8464233,-2.1813722,-4.0961795,91.0
821,1.4627702,-2.73103,2.1525638,0.66588134,-2.0103881,-4.3096437,91.0
822,1.9921033,-2.9358616,2.2339408,0.66588134,-2.0103881,-4.3096437,91.0
823,1.9921033,-2.9358616,2.2339408,0.44498292,-1.8532104,-4.3744264,91.0
824,2.7012877,-3.2062697,2.147846,0.44498292,-1.8532104,-4.3744264,91.0
825,2.7012877,-3.2062697,2.147846,0.23895264,-1.6779785,-4.3924804,91.0
826,3.5065625,-3.4536757,1.9438748,0.23895264,-1.6779785,-4.3924804,91.0
827,3.5065625,-3.4536757,1.9438748,0.06796875,-1.449646,-4.1482177,91.0
828,3.5690684,-3.7121959,1.7916479,0.06796875,-1.449646,-4.1482177,91.0
829,3.5690684,-3.7121959,1.7916479,0.06584473,-1.2361816,-3.6480103,91.0
830,2.0653257,-3.785345,1.632781,0.06584473,-1.2361816,-3.6480103,91.0
831,2.0653257,-3.785345,1.632781,-0.3419678,-1.0471436,-2.895044,91.0
832,-0.4409523,-3.6221604,1.3770502,-0.3419678,-1.0471436,-2.895044,91.0
833,-0.4409523,-3.6221604,1.3770502,-0.44179687,-0.85385746,-1.8553345,91.0
834,-2.110562,-3.0363884,1.3694136,-0.44179687,-0.85385746,-1.8553345,91.0
835,-2.110562,-3.0363884,1.3694136,0.057348635,-0.7041138,-0.79119873,91.0
836,-2.0400121,-1.5154266,1.5930042,0.057348635,-0.7041138,-0.79119873,91.0
837,-2.0400121,-1.5154266,1.5930042,0.20921631,-0.5140137,0.14974366,91.0
838,-1.5078278,0.17877197,1.3223038,0.20921631,-0.5140137,0.14974366,91.0
839,-1.5078278,0.17877197,1.3223038,0.5076416,-0.271875,0.6775635,91.0
840,-1.2779055,0.7652345,0.3114195,0.5076416,-0.271875,0.6775635,91.0
841,-1.2779055,0.7652345,0.3114195,0.9781128,-0.09770508,1.0577637,91.0
842,-0.72037125,0.25211668,-0.8077369,0.9781128,-0.09770508,1.0577637,91.0
843,-0.72037125,0.25211668,-0.8077369,1.4103516,-0.015930176,1.2860962,91.0
844,0.11525583,-0.57645607,-1.3914652,1.4103516,-0.015930176,1.2860962,91.0
845,0.11525583,-0.57645607,-1.3914652,1.7916138,0.10620117,1.4103516,91.0
846,0.40228772,-1.049922,-1.3429329,1.7916138,0.10620117,1.4103516,91.0
847,0.40228772,-1.049922,-1.3429329,2.0687988,0.270813,1.4528321,91.0
848,-0.08987641,-0.8279991,-0.98680973,2.0687988,0.270813,1.4528321,91.0
849,-0.08987641,-0.8279991,-0.98680973,2.3056276,0.5320679,1.5643433,91.0
850,-0.77396417,-0.008969307,-0.59588075,2.3056276,0.5320679,1.5643433,91.0
851,-0.77396417,-0.008969307,-0.59588075,2.5148437,0.7476563,1.621692,91.0
852,-1.2837222,1.1865501,-0.31564522,2.5148437,0.7476563,1.621692,91.0
853,-1.2837222,1.1865501,-0.31564522,2.2907593,0.9855469,1.6450561,91.0
854,-1.7277713,2.3207123,-0.31598043,2.2907593,0.9855469,1.6450561,91.0
855,-1.7277713,2.3207123,-0.31598043,1.6928467,1.2181275,1.6970948,91.0
856,-2.0393338,2.87969,-0.66015744,1.6928467,1.2181275,1.6970948,91.0
857,-2.0393338,2.87969,-0.66015744,0.94625247,1.4018555,1.7671875,91.0
858,-2.0393338,2.87969,-0.66015744,0.94625247,1.4018555,1.7671875,92.0
859,-1.9543796,2.777873,-1.167042,0.94625247,1.4018555,1.7671875,92.0
860,-1.9543796,2.777873,-1.167042,0.04141846,1.5112427,1.899939,92.0
861,-1.3812649,2.1405845,-1.4969637,0.04141846,1.5112427,1.899939,92.0
862,-1.3812649,2.1405845,-1.4969637,-0.7986328,1.6769165,2.0995972,92.0
863,-0.7442087,1.6788617,-1.5355593,-0.7986328,1.6769165,2.0995972,92.0
864,-0.7442087,1.6788617,-1.5355593,-1.1023682,1.7629395,2.2716432,92.0
865,0.7278997,-0.10468888,-1.7182424,-1.1023682,1.7629395,2.2716432,92.0
866,0.7278997,-0.10468888,-1.7182424,-1.1406006,2.0220704,2.8674316,92.0
867,1.2623491,-0.25804305,-1.7434416,-1.1406006,2.0220704,2.8674316,92.0
868,1.2623491,-0.25804305,-1.7434416,-0.87403566,2.0061402,3.1085083,92.0
869,2.7021155,-0.9432875,-2.2464623,-0.87403566,2.0061402,3.1085083,92.0
870,2.7021155,-0.9432875,-2.2464623,-0.631897,2.0486207,3.6501343,92.0
871,2.9405012,-0.5276524,-2.1479511,-0.631897,2.0486207,3.6501343,92.0
872,2.9405012,-0.5276524,-2.1479511,-0.3727661,2.084729,3.796692,92.0
873,3.6364098,-0.66084266,-1.4403092,-0.3727661,2.084729,3.796692,92.0
874,3.6364098,-0.66084266,-1.4403092,0.4970215,2.5201538,4.246985,92.0
875,3.7485442,-0.44768047,-1.3175794,0.4970215,2.5201538,4.246985,92.0
876,3.7485442,-0.44768047,-1.3175794,1.1809571,2.8323853,4.370178,92.0
877,5.2001905,-2.915554,-1.6280625,1.1809571,2.8323853,4.370178,92.0
878,5.2001905,-2.915554,-1.6280625,5.980188,4.0016603,4.5475345,92.0
879,5.557601,-3.9034514,-2.3398402,5.980188,4.0016603,4.5475345,92.0
880,5.557601,-3.9034514,-2.3398402,7.9374757,4.246985,4.596387,92.0
881,5.0381217,-4.7707224,-2.063498,7.9374757,4.246985,4.596387,92.0
882,5.0381217,-4.7707224,-2.063498,10.176196,4.179016,4.1917605,92.0
883,3.8332691,-3.3905282,-1.91032,10.176196,4.179016,4.1917605,92.0
884,3.8332691,-3.3905282,-1.91032,9.046216,4.0420165,3.7276611,92.0
885,-0.36919975,3.2850142,-0.18997478,9.046216,4.0420165,3.7276611,92.0
886,-0.36919975,3.2850142,-0.18997478,3.9305055,4.4901857,3.165857,92.0
887,-0.9224596,3.9177084,0.0044534206,3.9305055,4.4901857,3.165857,92.0
888,-0.9224596,3.9177084,0.0044534206,2.9258423,4.3946047,3.0224855,92.0
889,-3.34799,4.711352,-0.21911812,2.9258423,4.3946047,3.0224855,92.0
890,-3.34799,4.711352,-0.21911812,1.9774659,3.80094,3.000183,92.0
891,-2.7150989,3.2658956,-0.4331925,1.9774659,3.80094,3.000183,92.0
892,-2.7150989,3.2658956,-0.4331925,2.171814,3.3963134,3.0246093,92.0
893,-2.343966,1.3259856,-0.63119745,2.171814,3.3963134,3.0246093,92.0
894,-2.343966,1.3259856,-0.63119745,1.9657837,2.3396118,2.974695,92.0
895,-1.4472919,0.5848974,-0.28639126,1.9657837,2.3396118,2.974695,92.0
896,-1.4472919,0.5848974,-0.28639126,1.8404664,2.0911012,2.9545166,92.0
897,-0.8178191,0.066892505,0.54857254,1.8404664,2.0911012,2.9545166,92.0
898,-0.8178191,0.066892505,0.54857254,1.8797607,1.5993897,3.0065553,92.0
899,-0.5750804,-0.32557535,1.1507354,1.8797607,1.5993897,3.0065553,92.0
900,-0.5750804,-0.32557535,1.1507354,2.085791,1.2468017,3.1180665,92.0
901,-0.6095638,0.17135131,0.831831,2.085791,1.2468017,3.1180665,92.0
902,-0.6095638,0.17135131,0.831831,1.9987061,0.96643066,3.2115235,92.0
903,-0.5670457,0.17342138,0.38436127,1.9987061,0.96643066,3.2115235,92.0
904,-0.5670457,0.17342138,0.38436127,1.9785279,0.90058595,3.248694,92.0
905,-1.0151477,1.1473675,-0.9872863,1.9785279,0.90058595,3.248694,92.0
906,-1.0151477,1.1473675,-0.9872863,1.9137452,0.6903076,3.1456788,92.0
907,-1.0808191,0.9465562,-1.1214576,1.9137452,0.6903076,3.1456788,92.0
908,-1.0808191,0.9465562,-1.1214576,1.8840088,0.6085327,3.0543458,92.0
909,-1.4764719,0.97512823,-1.4020002,1.8840088,0.6085327,3.0543458,92.0
910,-1.4764719,0.97512823,-1.4020002,1.8277222,0.4248047,2.806897,92.0
911,-1.818824,0.4729004,-1.1725156,1.8277222,0.4248047,2.806897,92.0
912,-1.818824,0.4729004,-1.1725156,1.9466676,0.22196046,2.6104248,92.0
913,-1.9844537,-0.033935547,-0.598181,1.9466676,0.22196046,2.6104248,92.0
914,-1.9844537,-0.033935547,-0.598181,1.9434814,0.09664307,2.4320068,92.0
915,-1.996181,-0.061071754,0.03341818,1.9434814,0.09664307,2.4320068,92.0
916,-1.996181,-0.061071754,0.03341818,1.7565674,0.025488282,2.2185426,92.0
917,-1.9528775,0.17570317,0.5217297,1.7565674,0.025488282,2.2185426,92.0
918,-1.9528775,0.17570317,0.5217297,1.6556762,-0.04248047,1.9827759,92.0
919,-1.9045383,0.29614115,0.8953867,1.6556762,-0.04248047,1.9827759,92.0
920,-1.9045383,0.29614115,0.8953867,1.7501954,-0.13487549,1.7491333,92.0
921,-1.8602395,0.3604359,1.4968147,1.7501954,-0.13487549,1.7491333,92.0
922,-1.8602395,0.3604359,1.4968147,1.7894897,-0.19541016,1.4931885,92.0
923,-1.6806965,0.21425205,1.4869416,1.7894897,-0.19541016,1.4931885,92.0
924,-1.6806965,0.21425205,1.4869416,1.6694825,-0.22196046,1.4230957,92.0
925,-1.5210464,0.44676784,1.3352077,1.6694825,-0.22196046,1.4230957,92.0
926,-1.5210464,0.44676784,1.3352077,1.4241577,-0.22089843,1.2075074,92.0
927,-1.1946936,0.6518479,1.0322409,1.4241577,-0.22089843,1.2075074,92.0
928,-1.1946936,0.6518479,1.0322409,1.3253907,-0.2357666,0.9866089,92.0
929,-0.7862481,0.47156376,1.1257195,1.3253907,-0.2357666,0.9866089,92.0
930,-0.7862481,0.47156376,1.1257195,1.1236085,-0.22833252,0.817749,92.0
931,-0.5283271,0.059929237,1.7368183,1.1236085,-0.22833252,0.817749,92.0
932,-0.5283271,0.059929237,1.7368183,0.7434082,-0.118945315,0.6881836,92.0
933,-0.33669978,-0.40060398,2.5161147,0.7434082,-0.118945315,0.6881836,92.0
934,-0.33669978,-0.40060398,2.5161147,0.7434082,0.10089111,0.61702883,92.0
935,-0.046129838,-0.5849729,2.802162,0.7434082,0.10089111,0.61702883,92.0
936,-0.046129838,-0.5849729,2.802162,0.92501223,0.32709962,0.7126099,92.0
937,0.127476,-0.13591048,2.1215515,0.92501223,0.32709962,0.7126099,92.0
938,0.127476,-0.13591048,2.1215515,0.83898926,0.4991455,0.72960204,92.0
939,0.11398032,0.6060543,0.86428213,0.83898926,0.4991455,0.72960204,92.0
940,0.11398032,0.6060543,0.86428213,0.6244629,0.5649902,0.7412842,92.0
941,0.06780779,0.7030442,-0.08051032,0.6244629,0.5649902,0.7412842,92.0
942,0.06780779,0.7030442,-0.08051032,0.54693604,0.5055176,0.77102053,92.0
943,-0.15193053,0.10531863,-0.30181062,0.54693604,0.5055176,0.77102053,92.0
944,-0.15193053,0.10531863,-0.30181062,0.47684327,0.4078125,0.6796875,92.0
945,-0.55639553,-0.40558887,0.00864917,0.47684327,0.4078125,0.6796875,92.0
946,-0.55639553,-0.40558887,0.00864917,0.098767094,0.3695801,0.45560303,92.0
947,-0.8442253,-0.5898031,0.43836462,0.098767094,0.3695801,0.45560303,92.0
948,-0.8442253,-0.5898031,0.43836462,-0.37382814,0.3791382,0.31966552,92.0
949,-0.88286316,-0.69574386,0.62028396,-0.37382814,0.3791382,0.31966552,92.0
950,-0.88286316,-0.69574386,0.62028396,-0.5734863,0.34833986,0.29311523,92.0
951,-0.63201076,-0.7343417,0.47518224,-0.5734863,0.34833986,0.29311523,92.0
952,-0.63201076,-0.7343417,0.47518224,-0.5628662,0.28568116,0.3462158,92.0
953,-0.077971876,-0.59960717,0.22916925,-0.5628662,0.28568116,0.3462158,92.0
954,-0.077971876,-0.59960717,0.22916925,-0.542688,0.29736328,0.3971924,92.0
955,-0.077971876,-0.59960717,0.22916925,-0.542688,0.29736328,0.3971924,92.0
956,0.5507573,-0.3311994,-0.046535254,-0.542688,0.29736328,0.3971924,92.0
957,0.5507573,-0.3311994,-0.046535254,-0.5777344,0.3802002,0.4609131,92.0
958,0.8847221,-0.101653874,-0.50273114,-0.5777344,0.3802002,0.4609131,92.0
959,0.8847221,-0.101653874,-0.50273114,-0.4991455,0.45347902,0.5171997,92.0
960,0.81633484,0.005420089,-1.123828,-0.4991455,0.45347902,0.5171997,92.0
961,0.81633484,0.005420089,-1.123828,-0.3451538,0.45878908,0.5246338,92.0
962,0.58476955,0.14680433,-1.5961328,-0.3451538,0.45878908,0.5246338,92.0
963,0.58476955,0.14680433,-1.5961328,-0.21240234,0.42055663,0.44073486,92.0
964,0.420196,0.5035397,-1.6836811,-0.21240234,0.42055663,0.44073486,92.0
965,0.420196,0.5035397,-1.6836811,-0.42161867,0.42692873,0.2548828,92.0
966,0.39705768,0.60502905,-1.3860197,-0.42161867,0.42692873,0.2548828,92.0
967,0.39705768,0.60502905,-1.3860197,-0.62764895,0.4959595,0.090270996,92.0
968,0.3717477,0.016896784,-0.9491722,-0.62764895,0.4959595,0.090270996,92.0
969,0.3717477,0.016896784,-0.9491722,-0.3706421,0.4800293,-0.008496094,92.0
970,0.19041574,-0.5967853,-0.6977899,-0.3706421,0.4800293,-0.008496094,92.0
971,0.19041574,-0.5967853,-0.6977899,-0.3345337,0.44179687,-0.07540283,92.0
972,-0.04079485,-0.5011587,-0.71544635,-0.3345337,0.44179687,-0.07540283,92.0
973,-0.04079485,-0.5011587,-0.71544635,-0.61702883,0.4163086,-0.11363526,92.0
974,-0.17877845,0.12415844,-0.8974792,-0.61702883,0.4163086,-0.11363526,92.0
975,-0.17877845,0.12415844,-0.8974792,-1.3062744,0.41949463,-0.16673584,92.0
976,-0.17372344,0.6230816,-1.0510888,-1.3062744,0.41949463,-0.16673584,92.0
977,-0.17372344,0.6230816,-1.0510888,-1.8171021,0.362146,-0.20709229,92.0
978,-0.07020433,0.74104345,-1.1427388,-1.8171021,0.362146,-0.20709229,92.0
979,-0.07020433,0.74104345,-1.1427388,-2.4097047,0.32603762,-0.4088745,92.0
980,0.17017931,0.4852298,-1.2339299,-2.4097047,0.32603762,-0.4088745,92.0
981,0.17017931,0.4852298,-1.2339299,-2.5721924,0.22939454,-0.58623046,92.0
982,0.5414291,0.15771508,-1.3481181,-2.5721924,0.22939454,-0.58623046,92.0
983,0.5414291,0.15771508,-1.3481181,-2.7984009,0.11682129,-0.8251831,92.0
984,0.87440306,0.22050801,-1.4654207,-2.7984009,0.11682129,-0.8251831,92.0
985,0.87440306,0.22050801,-1.4654207,-3.5439332,0.04248047,-1.1342286,92.0
986,0.9780991,0.23534197,-1.5675514,-3.5439332,0.04248047,-1.1342286,92.0
987,0.9780991,0.23534197,-1.5675514,-3.62146,-0.13168946,-1.4984986,92.0
988,0.9348841,0.086320445,-1.6979256,-3.62146,-0.13168946,-1.4984986,92.0
989,0.9348841,0.086320445,-1.6979256,-3.6363282,-0.37382814,-1.9742798,92.0
990,1.0354683,0.13969845,-1.8188143,-3.6363282,-0.37382814,-1.9742798,92.0
991,1.0354683,0.13969845,-1.8188143,-4.2087526,-0.59897465,-2.356604,92.0
992,1.4549615,-0.12831694,-1.630918,-4.2087526,-0.59897465,-2.356604,92.0
993,1.4549615,-0.12831694,-1.630918,-4.507178,-0.78376466,-2.6635253,92.0
994,2.0698287,-1.0719163,-0.89035463,-4.507178,-0.78376466,-2.6635253,92.0
995,2.0698287,-1.0719163,-0.89035463,-4.099365,-0.9515625,-3.0065553,92.0
996,2.4971838,-1.7089857,0.059432507,-4.099365,-0.9515625,-3.0065553,92.0
997,2.4971838,-1.7089857,0.059432507,-3.7563355,-1.2574219,-3.5375612,92.0
998,2.691436,-1.0065929,0.47381544,-3.7563355,-1.2574219,-3.5375612,92.0
999,2.691436,-1.0065929,0.47381544,-3.9432495,-1.5632813,-4.3850465,92.0
1000,2.937426,0.40887368,-0.013440132,-3.9432495,-1.5632813,-4.3850465,92.0
1001,2.937426,0.40887368,-0.013440132,-4.429651,-1.8255981,-5.245276,92.0
1002,3.777834,1.4932122,-1.3757668,-4.429651,-1.8255981,-5.245276,92.0
1003,3.777834,1.4932122,-1.3757668,-6.151172,-1.9795898,-6.2679935,92.0
1004,2.9694963,1.9919087,-1.0996609,-6.151172,-1.9795898,-6.2679935,92.0
1005,2.9694963,1.9919087,-1.0996609,-7.0114017,-1.910559,-6.5526123,92.0
1006,2.856017,2.1461637,-0.94366884,-7.0114017,-1.910559,-6.5526123,92.0
1007,2.856017,2.1461637,-0.94366884,-8.838061,-1.4910644,-7.155835,92.0
1008,2.7116814,2.0671506,-0.54481506,-8.838061,-1.4910644,-7.155835,92.0
1009,2.7116814,2.0671506,-0.54481506,-10.4661255,-0.8400513,-7.478687,92.0
1010,2.607944,1.618015,-0.20155048,-10.4661255,-0.8400513,-7.478687,92.0
1011,2.607944,1.618015,-0.20155048,-11.675757,0.0010620117,-7.8089724,92.0
1012,2.5520535,0.47527146,0.07737017,-11.675757,0.0010620117,-7.8089724,92.0
1013,2.5520535,0.47527146,0.07737017,-11.875415,0.7497803,-7.8652587,92.0
1014,2.4049244,-1.129341,0.57909584,-11.875415,0.7497803,-7.8652587,92.0
1015,2.4049244,-1.129341,0.57909584,-11.530261,1.6578003,-8.022437,92.0
1016,2.6090956,-3.024469,1.7722979,-11.530261,1.6578003,-8.022437,92.0
1017,2.6090956,-3.024469,1.7722979,-9.285169,2.1357057,-7.9385376,92.0
1018,3.2654018,-5.4725537,3.860258,-9.285169,2.1357057,-7.9385376,92.0
1019,3.2654018,-5.4725537,3.860258,-4.2915893,2.5976808,-7.8387084,92.0
1020,3.2069998,-8.080692,5.6945786,-4.2915893,2.5976808,-7.8387084,92.0
1021,3.2069998,-8.080692,5.6945786,1.2436157,2.5859985,-7.0421996,92.0
1022,0.6574707,-8.751285,4.459752,1.2436157,2.5859985,-7.0421996,92.0
1023,0.6574707,-8.751285,4.459752,5.4226317,1.537793,-6.040723,92.0
1024,-3.6190186,-7.1066675,0.60419106,5.4226317,1.537793,-6.040723,92.0
1025,-3.6190186,-7.1066675,0.60419106,7.8546386,0.3058594,-4.878882,92.0
1026,-6.382739,-5.5097237,-0.9161711,7.8546386,0.3058594,-4.878882,92.0
1027,-6.382739,-5.5097237,-0.9161711,12.407483,-0.5957886,-2.4521852,92.0
1028,-6.4634423,-2.121439,1.0058815,12.407483,-0.5957886,-2.4521852,92.0
1029,-6.4634423,-2.121439,1.0058815,13.155139,-2.4723632,-1.6567383,92.0
1030,-4.307949,4.275944,3.1725276,13.155139,-2.4723632,-1.6567383,92.0
1031,-4.307949,4.275944,3.1725276,8.622474,-1.8139161,-0.6860596,92.0
1032,-1.6622286,8.686576,4.6839695,8.622474,-1.8139161,-0.6860596,92.0
1033,-1.6622286,8.686576,4.6839695,2.988501,-1.5420411,-0.8326172,92.0
1034,-0.4446025,7.3779716,4.950166,2.988501,-1.5420411,-0.8326172,92.0
1035,-0.4446025,7.3779716,4.950166,-0.98236084,-1.0237793,-1.270166,92.0
1036,-1.0409851,2.1721406,3.9566908,-0.98236084,-1.0237793,-1.270166,92.0
1037,-1.0409851,2.1721406,3.9566908,-2.4224489,-0.73809814,-1.3976074,92.0
1038,-2.6131597,-2.1544018,2.5787315,-2.4224489,-0.73809814,-1.3976074,92.0
1039,-2.6131597,-2.1544018,2.5787315,-2.972571,-0.43011475,-1.0949341,92.0
1040,-3.4384894,-3.5723128,1.6040618,-2.972571,-0.43011475,-1.0949341,92.0
1041,-3.4384894,-3.5723128,1.6040618,-2.9226563,-0.1083252,-0.8050049,92.0
1042,-3.0638287,-3.019288,1.0199561,-2.9226563,-0.1083252,-0.8050049,92.0
1043,-3.0638287,-3.019288,1.0199561,-2.6794555,0.13699952,-0.39082032,92.0
1044,-2.2884285,-2.0599494,0.3119855,-2.6794555,0.13699952,-0.39082032,92.0
1045,-2.2884285,-2.0599494,0.3119855,-2.084729,0.43011475,0.0,92.0
1046,-1.1907892,-1.6958961,-0.54065824,-2.084729,0.43011475,0.0,92.0
1047,-1.1907892,-1.6958961,-0.54065824,-0.9228882,0.51082766,0.3525879,92.0
1048,0.1766777,-1.745779,-1.151716,-0.9228882,0.51082766,0.3525879,92.0
1049,0.1766777,-1.745779,-1.151716,0.32178956,0.4980835,0.6924316,92.0
1050,0.1766777,-1.745779,-1.151716,0.32178956,0.4980835,0.6924316,92.0
1051,1.120578,-1.4639573,-1.2554061,0.32178956,0.4980835,0.6924316,92.0
1052,1.120578,-1.4639573,-1.2554061,1.2011353,0.5235718,1.0821899,92.0
1053,1.3191676,-0.5567007,-1.0173008,1.2011353,0.5235718,1.0821899,92.0
1054,1.3191676,-0.5567007,-1.0173008,1.5186768,0.6265869,1.4581422,92.0
1055,0.7930293,0.7967782,-0.8579812,1.5186768,0.6265869,1.4581422,92.0
1056,0.7930293,0.7967782,-0.8579812,1.0875,0.8071289,1.8871949,92.0
1057,-0.3904178,2.1263142,-0.9898884,1.0875,0.8071289,1.8871949,92.0
1058,-0.3904178,2.1263142,-0.9898884,0.48427734,0.9866089,2.3651001,92.0
1059,-1.7897391,2.997182,-1.2616982,0.48427734,0.9866089,2.3651001,92.0
1060,-1.7897391,2.997182,-1.2616982,0.010620117,1.1172364,2.8440673,92.0
1061,-2.6743815,3.3847208,-1.4752643,0.010620117,1.1172364,2.8440673,92.0
1062,-2.6743815,3.3847208,-1.4752643,-0.3727661,1.2021973,3.2986085,92.0
1063,-2.6808627,3.442823,-1.6053091,-0.3727661,1.2021973,3.2986085,92.0
1064,-2.6808627,3.442823,-1.6053091,-0.66588134,1.2563599,3.719165,92.0
1065,-2.0412478,3.3044782,-1.7194891,-0.66588134,1.2563599,3.719165,92.0
1066,-2.0412478,3.3044782,-1.7194891,-0.8315552,1.264856,4.0335207,92.0
1067,-1.1386867,3.0431798,-1.8427422,-0.8315552,1.264856,4.0335207,92.0
1068,-1.1386867,3.0431798,-1.8427422,-0.79332274,1.1894531,4.250171,92.0
1069,-0.14482391,2.7155619,-1.9505488,-0.79332274,1.1894531,4.250171,92.0
1070,-0.14482391,2.7155619,-1.9505488,-0.5256958,1.0821899,4.342566,92.0
1071,0.7926858,2.464625,-1.9352926,-0.5256958,1.0821899,4.342566,92.0
1072,0.7926858,2.464625,-1.9352926,-0.1178833,0.9494385,4.333008,92.0
1073,1.5976741,2.3178792,-1.6866497,-0.1178833,0.9494385,4.333008,92.0
1074,1.5976741,2.3178792,-1.6866497,0.35577393,0.9303223,4.1354737,92.0
1075,2.2980978,2.2319765,-1.190726,0.35577393,0.9303223,4.1354737,92.0
1076,2.2980978,2.2319765,-1.190726,0.74871826,0.9526245,3.889087,92.0
1077,2.7074358,2.285142,-0.69523215,0.74871826,0.9526245,3.889087,92.0
1078,2.7074358,2.285142,-0.69523215,0.72641605,1.084314,3.5619874,92.0
1079,2.6612492,2.422657,-0.46125162,0.72641605,1.084314,3.5619874,92.0
1080,2.6612492,2.422657,-0.46125162,0.36639404,1.1629028,3.1817873,92.0
1081,2.374507,2.4187653,-0.49197495,0.36639404,1.1629028,3.1817873,92.0
1082,2.374507,2.4187653,-0.49197495,-0.14337158,1.178833,2.727246,92.0
1083,2.098751,2.222378,-0.5717782,-0.14337158,1.178833,2.727246,92.0
1084,2.098751,2.222378,-0.5717782,-0.5628662,1.0779419,2.2238526,92.0
1085,1.5412569,2.0623994,-0.55795956,-0.5628662,1.0779419,2.2238526,92.0
1086,1.5412569,2.0623994,-0.55795956,-0.8857178,0.8241211,1.8457764,92.0
1087,0.38165092,1.9803271,-0.4152031,-0.8857178,0.8241211,1.8457764,92.0
1088,0.38165092,1.9803271,-0.4152031,-1.0938721,0.60216063,1.450708,92.0
1089,-0.76914215,1.7566981,-0.09893501,-1.0938721,0.60216063,1.450708,92.0
1090,-0.76914215,1.7566981,-0.09893501,-0.96430665,0.3536499,1.0577637,92.0
1091,-1.1398253,1.4055414,0.30796134,-0.96430665,0.3536499,1.0577637,92.0
1092,-1.1398253,1.4055414,0.30796134,-0.65632325,0.13381349,0.65419924,92.0
1093,-0.9200387,1.0881538,0.64920115,-0.65632325,0.13381349,0.65419924,92.0
1094,-0.9200387,1.0881538,0.64920115,-0.35046387,-0.023364259,0.2527588,92.0
1095,-0.4429524,0.7694979,0.824378,-0.35046387,-0.023364259,0.2527588,92.0
1096,-0.4429524,0.7694979,0.824378,0.027612304,-0.15717773,-0.18160401,92.0
1097,0.33616543,0.4428935,0.8613212,0.027612304,-0.15717773,-0.18160401,92.0
1098,0.33616543,0.4428935,0.8613212,0.35152587,-0.25594482,-0.63933104,92.0
1099,1.1324453,0.24452496,0.7509099,0.35152587,-0.25594482,-0.63933104,92.0
1100,1.1324453,0.24452496,0.7509099,0.43011475,-0.40993652,-1.0386475,92.0
1101,1.2421017,0.25631332,0.48538375,0.43011475,-0.40993652,-1.0386475,92.0
1102,1.2421017,0.25631332,0.48538375,0.15505372,-0.54693604,-1.3806152,92.0
1103,0.2662034,0.34515095,0.2106337,0.15505372,-0.54693604,-1.3806152,92.0
1104,0.2662034,0.34515095,0.2106337,-0.2538208,-0.66269535,-1.62594,92.0
1105,-1.3255382,0.27887964,0.07979846,-0.2538208,-0.66269535,-1.62594,92.0
1106,-1.3255382,0.27887964,0.07979846,-0.49489745,-0.77102053,-1.8415283,92.0
1107,-2.728558,0.13966846,0.09391689,-0.49489745,-0.77102053,-1.8415283,92.0
1108,-2.728558,0.13966846,0.09391689,-0.7604004,-0.813501,-1.9625977,92.0
1109,-3.5228488,0.022550106,0.19689864,-0.7604004,-0.813501,-1.9625977,92.0
1110,-3.5228488,0.022550106,0.19689864,-0.96218264,-0.8315552,-2.0252564,92.0
1111,-3.6387138,-0.22547817,0.27209413,-0.96218264,-0.8315552,-2.0252564,92.0
1112,-3.6387138,-0.22547817,0.27209413,-0.86341554,-0.8591675,-2.1272094,92.0
1113,-3.2486053,-0.6000848,0.26257277,-0.86341554,-0.8591675,-2.1272094,92.0
1114,-3.2486053,-0.6000848,0.26257277,-0.6903076,-0.8517334,-2.2981935,92.0
1115,-2.5236645,-1.0487933,0.19313926,-0.6903076,-0.8517334,-2.2981935,92.0
1116,-2.5236645,-1.0487933,0.19313926,-0.4609131,-0.84536135,-2.52334,92.0
1117,-1.6440293,-1.4885831,0.14896941,-0.4609131,-0.84536135,-2.52334,92.0
1118,-1.6440293,-1.4885831,0.14896941,-0.21027832,-0.82836914,-2.8164551,92.0
1119,-0.71484506,-1.8606176,0.24159986,-0.21027832,-0.82836914,-2.8164551,92.0
1120,-0.71484506,-1.8606176,0.24159986,-0.008496094,-0.8071289,-3.172229,92.0
1121,0.20837301,-2.1858451,0.48643175,-0.008496094,-0.8071289,-3.172229,92.0
1122,0.20837301,-2.1858451,0.48643175,0.12319336,-0.7890747,-3.5322511,92.0
1123,1.0027823,-2.5012395,0.8257909,0.12319336,-0.7890747,-3.5322511,92.0
1124,1.0027823,-2.5012395,0.8257909,0.19434814,-0.77314454,-3.9198854,92.0
1125,1.5056074,-2.7785797,1.1855229,0.19434814,-0.77314454,-3.9198854,92.0
1126,1.5056074,-2.7785797,1.1855229,0.20603028,-0.7083618,-4.185388,92.0
1127,1.668768,-3.0124388,1.5058646,0.20603028,-0.7083618,-4.185388,92.0
1128,1.668768,-3.0124388,1.5058646,0.16036378,-0.65207523,-4.340442,92.0
1129,1.5668138,-3.1372583,1.6193157,0.16036378,-0.65207523,-4.340442,92.0
1130,1.5668138,-3.1372583,1.6193157,-0.07752686,-0.5872925,-4.3287597,92.0
1131,1.4162319,-3.1456587,1.4045956,-0.07752686,-0.5872925,-4.3287597,92.0
1132,1.4162319,-3.1456587,1.4045956,-0.44604492,-0.5129517,-4.0983033,92.0
1133,1.513381,-3.1995716,1.0515084,-0.44604492,-0.5129517,-4.0983033,92.0
1134,1.513381,-3.1995716,1.0515084,-0.6223389,-0.40356445,-3.708545,92.0
1135,1.7199333,-3.5014052,1.0224812,-0.6223389,-0.40356445,-3.708545,92.0
1136,1.7199333,-3.5014052,1.0224812,-0.3069214,-0.31116945,-3.149927,92.0
1137,1.2880437,-3.996974,1.531889,-0.3069214,-0.31116945,-3.149927,92.0
1138,1.2880437,-3.996974,1.531889,0.60322267,-0.26656494,-2.4022706,92.0
1139,-0.060250998,-4.251156,2.1654038,0.60322267,-0.26656494,-2.4022706,92.0
1140,-0.060250998,-4.251156,2.1654038,1.3158325,-0.21240234,-1.4761963,92.0
1141,-1.153328,-3.867453,2.4685535,1.3158325,-0.21240234,-1.4761963,92.0
1142,-1.153328,-3.867453,2.4685535,2.3449218,-0.038232423,-0.4364868,92.0
1143,-0.7868471,-2.4599047,2.3240983,2.3449218,-0.038232423,-0.4364868,92.0
1144,-0.7868471,-2.4599047,2.3240983,2.8642457,0.06903076,0.3451538,92.0
1145,0.026198626,-0.38136387,1.7419448,2.8642457,0.06903076,0.3451538,92.0
1146,0.026198626,-0.38136387,1.7419448,2.6953857,0.42799073,0.8028809,92.0
1147,0.41525817,1.2169185,0.88421726,2.6953857,0.42799073,0.8028809,92.0
1148,0.41525817,1.2169185,0.88421726,1.7979859,0.8687256,0.94412845,92.0
1149,0.8034346,1.54353,-0.18908644,1.7979859,0.8687256,0.94412845,92.0
1150,0.8034346,1.54353,-0.18908644,1.075818,1.1427246,1.2085694,92.0
1151,1.2250352,0.8893528,-1.2179198,1.075818,1.1427246,1.2085694,92.0
1152,1.2250352,0.8893528,-1.2179198,0.39400634,1.4124756,1.5208008,92.0
1153,1.3770864,0.1477375,-1.7256176,0.39400634,1.4124756,1.5208008,92.0
1154,1.3770864,0.1477375,-1.7256176,-0.06265869,1.6928467,1.9859619,92.0
1155,1.0043547,-0.23655844,-1.6515391,-0.06265869,1.6928467,1.9859619,92.0
1156,1.0043547,-0.23655844,-1.6515391,-0.44604492,1.8627685,2.538208,92.0
1157,0.4085741,0.059923172,-1.4152255,-0.44604492,1.8627685,2.538208,92.0
1158,0.4085741,0.059923172,-1.4152255,-1.174585,2.071985,3.1977174,92.0
1159,-0.02487421,0.9698868,-1.2696195,-1.174585,2.071985,3.1977174,92.0
1160,-0.02487421,0.9698868,-1.2696195,-1.9126831,2.2111084,3.8848388,92.0
1161,-0.19050479,1.960187,-1.2397313,-1.9126831,2.2111084,3.8848388,92.0
1162,-0.19050479,1.960187,-1.2397313,-2.5509522,2.2111084,4.5687747,92.0
1163,0.13818455,2.0314429,-1.5456059,-2.5509522,2.2111084,4.5687747,92.0
1164,0.13818455,2.0314429,-1.5456059,-2.1070313,2.2206666,5.245276,92.0
1165,0.13818455,2.0314429,-1.5456059,-2.1070313,2.2206666,5.245276,93.0
1166,0.8397589,1.1655962,-2.105247,-2.1070313,2.2206666,5.245276,93.0
1167,0.8397589,1.1655962,-2.105247,-0.5097656,1.9647217,5.7051272,93.0
1168,1.5677667,0.9143739,-2.4487484,-0.5097656,1.9647217,5.7051272,93.0
1169,1.5677667,0.9143739,-2.4487484,0.04141846,1.8287842,6.0428467,93.0
1170,2.4141622,1.3519335,-2.5942647,0.04141846,1.8287842,6.0428467,93.0
1171,2.4141622,1.3519335,-2.5942647,0.03079834,1.9169312,6.321094,93.0
1172,3.2901435,1.1303627,-2.729599,0.03079834,1.9169312,6.321094,93.0
1173,3.2901435,1.1303627,-2.729599,1.0259033,1.906311,6.5749145,93.0
1174,3.5983505,0.69481754,-2.665698,1.0259033,1.906311,6.5749145,93.0
1175,3.5983505,0.69481754,-2.665698,1.3933594,1.8903809,6.5844727,93.0
1176,3.220148,0.9003365,-2.1488428,1.3933594,1.8903809,6.5844727,93.0
1177,3.220148,0.9003365,-2.1488428,1.1979493,2.0220704,6.520752,93.0
1178,2.6227493,1.0383477,-1.4189034,1.1979493,2.0220704,6.520752,93.0
1179,2.6227493,1.0383477,-1.4189034,1.5898316,2.1919923,6.537744,93.0
1180,2.0583553,0.7849262,-1.0545442,1.5898316,2.1919923,6.537744,93.0
1181,2.0583553,0.7849262,-1.0545442,2.52865,2.18562,6.3582644,93.0
1182,1.429204,0.998168,-1.1008742,2.52865,2.18562,6.3582644,93.0
1183,1.429204,0.998168,-1.1008742,2.543518,2.1548219,6.0024905,93.0
1184,0.5420208,1.7924309,-1.2158923,2.543518,2.1548219,6.0024905,93.0
1185,0.5420208,1.7924309,-1.2158923,1.9647217,2.0942872,5.5968018,93.0
1186,-0.5390396,2.4287324,-1.0644131,1.9647217,2.0942872,5.5968018,93.0
1187,-0.5390396,2.4287324,-1.0644131,1.3498169,1.9073731,5.136951,93.0
1188,-1.4756775,2.4278736,-0.48530746,1.3498169,1.9073731,5.136951,93.0
1189,-1.4756775,2.4278736,-0.48530746,1.0524536,1.6747925,4.8480835,93.0
1190,-1.9218874,1.888234,0.31655145,1.0524536,1.6747925,4.8480835,93.0
1191,-1.9218874,1.888234,0.31655145,1.0205933,1.4061035,4.6378055,93.0
1192,-1.7051978,1.250077,0.95322895,1.0205933,1.4061035,4.6378055,93.0
1193,-1.7051978,1.250077,0.95322895,1.1852051,1.2935303,4.076001,93.0
1194,-1.1316142,0.7960943,1.0955544,1.1852051,1.2935303,4.076001,93.0
1195,-1.1316142,0.7960943,1.0955544,1.2754761,0.9674927,3.609778,93.0
1196,-0.906878,0.45164597,1.0408967,1.2754761,0.9674927,3.609778,93.0
1197,-0.906878,0.45164597,1.0408967,1.3816773,0.6977417,2.7644165,93.0
1198,-1.0581565,-0.042858005,1.4415674,1.3816773,0.6977417,2.7644165,93.0
1199,-1.0581565,-0.042858005,1.4415674,1.4124756,0.44073486,1.9785279,93.0
1200,-1.1059489,-0.44405204,2.1475778,1.4124756,0.44073486,1.9785279,93.0
1201,-1.1059489,-0.44405204,2.1475778,1.3179566,0.20709229,1.3880494,93.0
1202,-0.7032771,0.068244696,2.5989094,1.3179566,0.20709229,1.3880494,93.0
1203,-0.7032771,0.068244696,2.5989094,0.36427003,0.087084964,0.7954468,93.0
1204,-0.022057533,1.9987364,3.051979,0.36427003,0.087084964,0.7954468,93.0
1205,-0.022057533,1.9987364,3.051979,-2.0380006,0.21983643,0.43117675,93.0
1206,0.0016899109,3.3851953,3.4446473,-2.0380006,0.21983643,0.43117675,93.0
1207,0.0016899109,3.3851953,3.4446473,-2.3385499,0.06796875,0.4439209,93.0
1208,-0.89184856,2.6872702,2.4433033,-2.3385499,0.06796875,0.4439209,93.0
1209,-0.89184856,2.6872702,2.4433033,-0.8973999,0.10620117,0.49383545,93.0
1210,-1.932497,1.2627435,-0.17556965,-0.8973999,0.10620117,0.49383545,93.0
1211,-1.932497,1.2627435,-0.17556965,-0.68287355,0.29736328,0.21027832,93.0
1212,-2.5473652,0.40320015,-2.6947284,-0.68287355,0.29736328,0.21027832,93.0
1213,-2.5473652,0.40320015,-2.6947284,-1.4761963,0.3334717,0.39082032,93.0
1214,-3.1538348,0.33778238,-3.610995,-1.4761963,0.3334717,0.39082032,93.0
1215,-3.1538348,0.33778238,-3.610995,-2.8461914,0.43967286,0.13487549,93.0
1216,-3.8852017,0.49042845,-2.9319115,-2.8461914,0.43967286,0.13487549,93.0
1217,-3.8852017,0.49042845,-2.9319115,-4.6484256,0.7582764,0.032922365,93.0
1218,-3.8570993,-0.1796422,-1.7341156,-4.6484256,0.7582764,0.032922365,93.0
1219,-3.8570993,-0.1796422,-1.7341156,-5.002075,0.64782715,0.62340087,93.0
1220,-3.2361555,-1.9010379,-0.7583618,-5.002075,0.64782715,0.62340087,93.0
1221,-3.2361555,-1.9010379,-0.7583618,-3.5439332,0.6690674,1.1055542,93.0
1222,-2.668795,-3.1825368,0.09802246,-3.5439332,0.6690674,1.1055542,93.0
1223,-2.668795,-3.1825368,0.09802246,-1.7491333,0.5012695,0.9802368,93.0
1224,-1.9562151,-2.6970673,1.103833,-1.7491333,0.5012695,0.9802368,93.0
1225,-1.9562151,-2.6970673,1.103833,-0.9632446,0.49064943,1.0089111,93.0
1226,-1.2511661,-0.97309554,1.9279028,-0.9632446,0.49064943,1.0089111,93.0
1227,-1.2511661,-0.97309554,1.9279028,-1.351941,0.4970215,0.9526245,93.0
1228,-0.6950246,0.4157375,2.0067632,-1.351941,0.4970215,0.9526245,93.0
1229,-0.6950246,0.4157375,2.0067632,-2.1144655,0.40037844,0.83474123,93.0
1230,-0.27982342,0.49596882,1.4157988,-2.1144655,0.40037844,0.83474123,93.0
1231,-0.27982342,0.49596882,1.4157988,-2.8748658,0.32816163,0.72323,93.0
1232,-0.013494968,-0.3065697,0.7682347,-2.8748658,0.32816163,0.72323,93.0
1233,-0.013494968,-0.3065697,0.7682347,-3.5524292,0.21240234,0.5341919,93.0
1234,0.035517514,-1.074516,0.37773478,-3.5524292,0.21240234,0.5341919,93.0
1235,0.035517514,-1.074516,0.37773478,-4.36062,0.17947999,0.3164795,93.0
1236,-0.014859915,-1.5816832,0.1432401,-4.36062,0.17947999,0.3164795,93.0
1237,-0.014859915,-1.5816832,0.1432401,-4.978711,0.21558838,0.2442627,93.0
1238,-0.24247876,-1.1841453,0.037761033,-4.978711,0.21558838,0.2442627,93.0
1239,-0.24247876,-1.1841453,0.037761033,-6.4878297,0.06796875,0.35577393,93.0
1240,-0.6443248,0.08658266,-0.12673697,-6.4878297,0.06796875,0.35577393,93.0
1241,-0.6443248,0.08658266,-0.12673697,-8.539637,-0.057348635,0.45135498,93.0
1242,-0.91707116,0.090115726,-0.49290568,-8.539637,-0.057348635,0.45135498,93.0
1243,-0.91707116,0.090115726,-0.49290568,-9.236316,-0.11151123,0.44073486,93.0
1244,-0.4137839,-1.5399802,-0.99884117,-9.236316,-0.11151123,0.44073486,93.0
1245,-0.4137839,-1.5399802,-0.99884117,-8.229529,-0.23789063,0.6956177,93.0
1246,0.56059885,-2.810451,-1.4171393,-8.229529,-0.23789063,0.6956177,93.0
1247,0.56059885,-2.810451,-1.4171393,-6.2350707,-0.078588866,0.8527954,93.0
1248,1.2141285,-2.6093717,-1.2758746,-6.2350707,-0.078588866,0.8527954,93.0
1249,1.2141285,-2.6093717,-1.2758746,-4.0080323,0.17629395,0.72323,93.0
1250,1.5138931,-1.3093967,-0.570187,-4.0080323,0.17629395,0.72323,93.0
1251,1.5138931,-1.3093967,-0.570187,-2.7113159,0.42161867,0.6074707,93.0
1252,1.2283143,0.18369603,0.31328404,-2.7113159,0.42161867,0.6074707,93.0
1253,1.2283143,0.18369603,0.31328404,-2.1314576,0.7104859,0.29099122,93.0
1254,0.5725684,1.143661,1.0049852,-2.1314576,0.7104859,0.29099122,93.0
1255,0.5725684,1.143661,1.0049852,-1.992334,0.94731444,0.09133301,93.0
1256,0.056064993,1.1560788,1.0318935,-1.992334,0.94731444,0.09133301,93.0
1257,0.056064993,1.1560788,1.0318935,-2.1102173,0.991919,-0.13912354,93.0
1258,-0.09179354,0.5418308,0.4708517,-2.1102173,0.991919,-0.13912354,93.0
1259,-0.09179354,0.5418308,0.4708517,-1.7958618,0.80819094,-0.15505372,93.0
1260,0.16722679,-0.068537295,0.18642256,-1.7958618,0.80819094,-0.15505372,93.0
1261,0.16722679,-0.068537295,0.18642256,-1.5728394,0.54906005,-0.09239502,93.0
1262,0.5617477,-0.2019124,0.61374986,-1.5728394,0.54906005,-0.09239502,93.0
1263,0.5617477,-0.2019124,0.61374986,-1.3753052,0.3175415,-0.08602295,93.0
1264,0.7325525,0.20471764,1.2897792,-1.3753052,0.3175415,-0.08602295,93.0
1265,0.7325525,0.20471764,1.2897792,-1.4241577,0.17523193,-0.038232423,93.0
1266,0.39204788,0.5887253,1.4498043,-1.4241577,0.17523193,-0.038232423,93.0
1267,0.39204788,0.5887253,1.4498043,-1.354065,0.07965088,-0.013806152,93.0
1268,-0.40658873,0.5766199,0.8521286,-1.354065,0.07965088,-0.013806152,93.0
1269,-0.40658873,0.5766199,0.8521286,-0.8963379,-0.14337158,-0.033984374,93.0
1270,-0.40658873,0.5766199,0.8521286,-0.8963379,-0.14337158,-0.033984374,93.0
1271,-1.2234766,0.72388136,0.0021862984,-0.8963379,-0.14337158,-0.033984374,93.0
1272,-1.2234766,0.72388136,0.0021862984,-0.17416993,-0.21134034,0.022302246,93.0
1273,-2.1472871,1.4422399,-0.65771145,-0.17416993,-0.21134034,0.022302246,93.0
1274,-2.1472871,1.4422399,-0.65771145,-0.32709962,-0.37701416,-0.04141846,93.0
1275,-2.708357,1.9936845,-1.2160983,-0.32709962,-0.37701416,-0.04141846,93.0
1276,-2.708357,1.9936845,-1.2160983,-0.8230591,-0.6085327,-0.070092775,93.0
1277,-2.0114977,1.5291152,-1.5423001,-0.8230591,-0.6085327,-0.070092775,93.0
1278,-2.0114977,1.5291152,-1.5423001,-0.8326172,-0.8485474,-0.24851075,93.0
1279,-0.4008119,0.35831416,-1.3864157,-0.8326172,-0.8485474,-0.24851075,93.0
1280,-0.4008119,0.35831416,-1.3864157,-0.56180423,-1.0503296,-0.38869628,93.0
1281,1.29229,-0.5947696,-0.9677264,-0.56180423,-1.0503296,-0.38869628,93.0
1282,1.29229,-0.5947696,-0.9677264,0.22302246,-1.1267945,-0.48746338,93.0
1283,2.1888857,-0.84703153,-0.78078514,0.22302246,-1.1267945,-0.48746338,93.0
1284,2.1888857,-0.84703153,-0.78078514,1.1990112,-1.1979493,-0.630835,93.0
1285,2.026414,-0.91940993,-0.9765812,1.1990112,-1.1979493,-0.630835,93.0
1286,2.026414,-0.91940993,-0.9765812,1.8563966,-1.3763672,-0.81987303,93.0
1287,1.3695929,-1.4922419,-1.0621244,1.8563966,-1.3763672,-0.81987303,93.0
1288,1.3695929,-1.4922419,-1.0621244,2.4691772,-1.5091187,-0.9197022,93.0
1289,0.89549124,-2.2384834,-0.7827195,2.4691772,-1.5091187,-0.9197022,93.0
1290,0.89549124,-2.2384834,-0.7827195,3.355957,-1.6450561,-0.72641605,93.0
1291,0.9504506,-2.5394928,-0.63486695,3.355957,-1.6450561,-0.72641605,93.0
1292,0.9504506,-2.5394928,-0.63486695,4.3563724,-1.4730103,-0.7455322,93.0
1293,1.4406462,-2.2451806,-1.0290117,4.3563724,-1.4730103,-0.7455322,93.0
1294,1.4406462,-2.2451806,-1.0290117,4.8364015,-1.3657471,-0.70092773,93.0
1295,1.5452659,-1.8817525,-1.3516641,4.8364015,-1.3657471,-0.70092773,93.0
1296,1.5452659,-1.8817525,-1.3516641,4.5687747,-1.0715698,-0.630835,93.0
1297,1.6444037,-1.4298038,-0.6298542,4.5687747,-1.0715698,-0.630835,93.0
1298,1.6444037,-1.4298038,-0.6298542,3.5779176,-0.9866089,0.7880127,93.0
1299,2.0427082,-0.8794999,0.7697983,3.5779176,-0.9866089,0.7880127,93.0
1300,2.0427082,-0.8794999,0.7697983,2.89823,-0.6796875,-0.38338622,93.0
1301,1.9106557,-0.21949339,1.709723,2.89823,-0.6796875,-0.38338622,93.0
1302,1.9106557,-0.21949339,1.709723,3.4950807,-0.64570314,-1.0577637,93.0
1303,1.1207976,1.0641515,1.8132374,3.4950807,-0.64570314,-1.0577637,93.0
1304,1.1207976,1.0641515,1.8132374,5.2750125,-0.2623169,-0.811377,93.0
1305,0.35369396,1.4903593,1.929484,5.2750125,-0.2623169,-0.811377,93.0
1306,0.35369396,1.4903593,1.929484,4.0420165,-0.06796875,-0.15505372,93.0
1307,0.067769766,0.8327904,1.7902303,4.0420165,-0.06796875,-0.15505372,93.0
1308,0.067769766,0.8327904,1.7902303,4.8077273,0.12213135,-0.2177124,93.0
1309,0.17931366,0.9916229,0.97988933,4.8077273,0.12213135,-0.2177124,93.0
1310,0.17931366,0.9916229,0.97988933,4.34469,0.053100586,-0.5777344,93.0
1311,0.30596304,2.572217,0.086780116,4.34469,0.053100586,-0.5777344,93.0
1312,0.30596304,2.572217,0.086780116,2.6582153,0.3419678,-0.7805786,93.0
1313,0.078217745,3.7523048,-0.58824193,2.6582153,0.3419678,-0.7805786,93.0
1314,0.078217745,3.7523048,-0.58824193,1.351941,0.41843262,-1.2213135,93.0
1315,-0.6977651,3.500086,-0.76745635,1.351941,0.41843262,-1.2213135,93.0
1316,-0.6977651,3.500086,-0.76745635,0.42692873,0.6796875,-0.98129886,93.0
1317,-1.4442229,2.2180743,-0.5372927,0.42692873,0.6796875,-0.98129886,93.0
1318,-1.4442229,2.2180743,-0.5372927,-0.25700685,0.8963379,-0.8209351,93.0
1319,-1.7352855,0.6034756,-0.121216,-0.25700685,0.8963379,-0.8209351,93.0
1320,-1.7352855,0.6034756,-0.121216,-0.29417726,0.88996583,-0.89846194,93.0
1321,-2.0160728,-0.75063026,0.26666248,-0.29417726,0.88996583,-0.89846194,93.0
1322,-2.0160728,-0.75063026,0.26666248,0.12319336,0.7858887,-1.0375855,93.0
1323,-2.6718793,-1.643949,0.49993888,0.12319336,0.7858887,-1.0375855,93.0
1324,-2.6718793,-1.643949,0.49993888,0.3419678,0.79013675,-1.0014771,93.0
1325,-3.3497472,-2.158543,0.54628897,0.3419678,0.79013675,-1.0014771,93.0
1326,-3.3497472,-2.158543,0.54628897,0.40037844,0.85491943,-0.48215333,93.0
1327,-3.3822026,-2.2439854,0.45822263,0.40037844,0.85491943,-0.48215333,93.0
1328,-3.3822026,-2.2439854,0.45822263,0.3993164,0.724292,-0.23895264,93.0
1329,-2.8426273,-1.8097513,0.36986178,0.3993164,0.724292,-0.23895264,93.0
1330,-2.8426273,-1.8097513,0.36986178,0.3993164,0.50445557,-0.095581055,93.0
1331,-2.3174367,-0.87819654,0.3279817,0.3993164,0.50445557,-0.095581055,93.0
1332,-2.3174367,-0.87819654,0.3279817,0.29205322,0.34940186,-0.0053100586,93.0
1333,-1.9579291,0.19531876,0.24721204,0.29205322,0.34940186,-0.0053100586,93.0
1334,-1.9579291,0.19531876,0.24721204,-0.083898924,0.19434814,0.1985962,93.0
1335,-1.5227032,0.93306166,0.06754503,-0.083898924,0.19434814,0.1985962,93.0
1336,-1.5227032,0.93306166,0.06754503,-0.75721437,-0.03717041,0.39294434,93.0
1337,-1.04514,1.0029435,-0.052836537,-0.75721437,-0.03717041,0.39294434,93.0
1338,-1.04514,1.0029435,-0.052836537,-1.0535157,-0.22408448,0.3430298,93.0
1339,-0.57265973,0.21638067,-0.014144227,-1.0535157,-0.22408448,0.3430298,93.0
1340,-0.57265973,0.21638067,-0.014144227,-0.1274414,-0.32178956,0.3430298,93.0
1341,0.15239477,-0.637601,0.18386284,-0.1274414,-0.32178956,0.3430298,93.0
1342,0.15239477,-0.637601,0.18386284,0.84748536,-0.3812622,0.12213135,93.0
1343,0.9272747,-0.63550806,0.2825029,0.84748536,-0.3812622,0.12213135,93.0
1344,0.9272747,-0.63550806,0.2825029,1.171399,-0.25913087,0.20178223,93.0
1345,1.1649766,-0.028267324,-0.11566028,1.171399,-0.25913087,0.20178223,93.0
1346,1.1649766,-0.028267324,-0.11566028,1.2425537,-0.08814698,0.13487549,93.0
1347,0.95407605,0.1479916,-0.9454335,1.2425537,-0.08814698,0.13487549,93.0
1348,0.95407605,0.1479916,-0.9454335,1.1108643,0.21027832,-0.13487549,93.0
1349,0.8138834,-0.58873564,-1.7412589,1.1108643,0.21027832,-0.13487549,93.0
1350,0.8138834,-0.58873564,-1.7412589,1.1119263,0.3355957,-0.4088745,93.0
1351,1.0530843,-1.1796188,-1.9488909,1.1119263,0.3355957,-0.4088745,93.0
1352,1.0530843,-1.1796188,-1.9488909,0.93350834,0.23151855,-0.541626,93.0
1353,1.4327018,-0.37391973,-1.3862002,0.93350834,0.23151855,-0.541626,93.0
1354,1.4327018,-0.37391973,-1.3862002,0.2888672,0.07327881,-0.7890747,93.0
1355,1.8595648,1.1904882,-0.39714372,0.2888672,0.07327881,-0.7890747,93.0
1356,1.8595648,1.1904882,-0.39714372,-0.17841797,-0.047790527,-0.7051758,93.0
1357,2.2435234,2.1890361,0.5476781,-0.17841797,-0.047790527,-0.7051758,93.0
1358,2.2435234,2.1890361,0.5476781,-0.4163086,-0.2262085,-0.5161377,93.0
1359,2.3729072,2.2327597,1.3161088,-0.4163086,-0.2262085,-0.5161377,93.0
1360,2.3729072,2.2327597,1.3161088,-0.7519043,-0.2782471,-0.24532472,93.0
1361,2.2399516,1.3422868,1.8018861,-0.7519043,-0.2782471,-0.24532472,93.0
1362,2.2399516,1.3422868,1.8018861,-0.67437744,-0.38763428,-0.06265869,93.0
1363,1.7419736,0.18707412,1.9086843,-0.67437744,-0.38763428,-0.06265869,93.0
1364,1.7419736,0.18707412,1.9086843,-0.2814331,-0.50445557,-0.13062744,93.0
1365,1.7419736,0.18707412,1.9086843,-0.2814331,-0.50445557,-0.13062744,93.0
1366,0.8974607,-0.30978894,1.6242863,-0.2814331,-0.50445557,-0.13062744,93.0
1367,0.8974607,-0.30978894,1.6242863,-0.016992187,-0.6552612,-0.25806886,93.0
1368,-0.05555439,-0.20371497,0.9528592,-0.016992187,-0.6552612,-0.25806886,93.0
1369,-0.05555439,-0.20371497,0.9528592,0.6414551,-0.70198977,-0.057348635,93.0
1370,-0.6671363,0.06672776,0.33447975,0.6414551,-0.70198977,-0.057348635,93.0
1371,-0.6671363,0.06672776,0.33447975,0.8209351,-0.6616333,0.22514649,93.0
1372,-0.76008844,0.36868984,-0.0041935444,0.8209351,-0.6616333,0.22514649,93.0
1373,-0.76008844,0.36868984,-0.0041935444,0.29630128,-0.69986576,0.11682129,93.0
1374,-0.8181294,0.36316478,-0.34668982,0.29630128,-0.69986576,0.11682129,93.0
1375,-0.8181294,0.36316478,-0.34668982,-0.16248779,-0.6818115,0.14974366,93.0
1376,-0.99981606,-0.35622108,-0.5335652,-0.16248779,-0.6818115,0.14974366,93.0
1377,-0.99981606,-0.35622108,-0.5335652,-0.26868898,-0.7062378,-0.124255374,93.0
1378,-0.93100524,-1.5179236,-0.21973547,-0.26868898,-0.7062378,-0.124255374,93.0
1379,-0.93100524,-1.5179236,-0.21973547,-0.38657227,-0.6775635,-0.5915405,93.0
1380,-0.76739943,-1.7663043,0.079289734,-0.38657227,-0.6775635,-0.5915405,93.0
1381,-0.76739943,-1.7663043,0.079289734,-0.38444826,-0.60109866,-0.65419924,93.0
1382,-0.37525988,-2.2010927,0.9277873,-0.38444826,-0.60109866,-0.65419924,93.0
1383,-0.37525988,-2.2010927,0.9277873,-0.42268068,-0.1709839,-0.18797608,93.0
1384,-0.1760624,-1.607383,0.8578793,-0.42268068,-0.1709839,-0.18797608,93.0
1385,-0.1760624,-1.607383,0.8578793,-0.49489745,-0.07327881,0.06903076,93.0
1386,0.2421335,-0.6007991,-0.08731717,-0.49489745,-0.07327881,0.06903076,93.0
1387,0.2421335,-0.6007991,-0.08731717,-0.7954468,0.04991455,0.56392825,93.0
1388,0.25239822,-0.4815426,-0.49631858,-0.7954468,0.04991455,0.56392825,93.0
1389,0.25239822,-0.4815426,-0.49631858,-0.81031495,0.0031860352,0.5543701,93.0
1390,-0.58018595,-1.2165697,-1.318991,-0.81031495,0.0031860352,0.5543701,93.0
1391,-0.58018595,-1.2165697,-1.318991,-1.1299804,-0.039294433,0.21240234,93.0
1392,-0.88082355,-1.4346206,-0.885161,-1.1299804,-0.039294433,0.21240234,93.0
1393,-0.88082355,-1.4346206,-0.885161,-1.4273437,0.06265869,-0.098767094,93.0
1394,-1.0533406,-2.9331822,0.035792112,-1.4273437,0.06265869,-0.098767094,93.0
1395,-1.0533406,-2.9331822,0.035792112,-2.8695557,0.5671143,-1.0598878,93.0
1396,-0.6988736,-2.7092776,0.3385458,-2.8695557,0.5671143,-1.0598878,93.0
1397,-0.6988736,-2.7092776,0.3385458,-2.804773,0.53737795,-1.1129884,93.0
1398,0.37462917,-1.4882107,-0.16834792,-2.804773,0.53737795,-1.1129884,93.0
1399,0.37462917,-1.4882107,-0.16834792,-2.4734254,0.634021,-1.183081,93.0
1400,0.46831906,0.07245636,-0.06468323,-2.4734254,0.634021,-1.183081,93.0
1401,0.46831906,0.07245636,-0.06468323,-2.799463,0.6977417,-1.2075074,93.0
1402,0.9005098,4.0780334,-1.7401743,-2.799463,0.6977417,-1.2075074,93.0
1403,0.9005098,4.0780334,-1.7401743,2.7591064,0.40462646,1.0036011,93.0
1404,0.996006,4.180811,-2.1799812,2.7591064,0.40462646,1.0036011,93.0
1405,0.996006,4.180811,-2.1799812,4.0388308,0.47471926,2.272705,93.0
1406,1.9761505,3.980989,0.8959075,4.0388308,0.47471926,2.272705,93.0
1407,1.9761505,3.980989,0.8959075,0.059472658,0.5235718,-0.4078125,93.0
1408,2.424951,2.8380017,1.8535912,0.059472658,0.5235718,-0.4078125,93.0
1409,2.424951,2.8380017,1.8535912,-0.33240968,0.8878418,0.121069334,93.0
1410,2.9251661,2.0041173,2.5086665,-0.33240968,0.8878418,0.121069334,93.0
1411,2.9251661,2.0041173,2.5086665,-0.6616333,0.7540283,1.1512207,93.0
1412,1.8871543,1.866807,1.3162594,-0.6616333,0.7540283,1.1512207,93.0
1413,1.8871543,1.866807,1.3162594,0.7508423,1.0428956,1.9774659,93.0
1414,0.8340521,2.8386483,0.020268261,0.7508423,1.0428956,1.9774659,93.0
1415,0.8340521,2.8386483,0.020268261,-0.115759276,1.0503296,1.9307374,93.0
1416,0.29132605,1.731246,-0.57661986,-0.115759276,1.0503296,1.9307374,93.0
1417,0.29132605,1.731246,-0.57661986,0.33771974,0.9345703,2.5498903,93.0
1418,-1.2691851,-1.795948,-0.17488235,0.33771974,0.9345703,2.5498903,93.0
1419,-1.2691851,-1.795948,-0.17488235,1.2276856,0.8931519,1.4369019,93.0
1420,-1.3071938,-2.0788972,0.17802626,1.2276856,0.8931519,1.4369019,93.0
1421,-1.3071938,-2.0788972,0.17802626,1.2085694,0.80181885,1.2266235,93.0
1422,-1.4082795,-1.7374709,0.47035074,1.2085694,0.80181885,1.2266235,93.0
1423,-1.4082795,-1.7374709,0.47035074,1.3317627,0.38975832,0.5076416,93.0
1424,-1.3629152,-1.2121446,0.18195683,1.3317627,0.38975832,0.5076416,93.0
1425,-1.3629152,-1.2121446,0.18195683,1.179895,0.3058594,0.20284425,93.0
1426,-2.0575686,-0.25579974,-0.19930756,1.179895,0.3058594,0.20284425,93.0
1427,-2.0575686,-0.25579974,-0.19930756,0.30373535,0.3727661,-0.28355715,93.0
1428,-2.521482,0.18591198,-0.35269552,0.30373535,0.3727661,-0.28355715,93.0
1429,-2.521482,0.18591198,-0.35269552,-0.56180423,0.32391357,-0.33028564,93.0
1430,-2.398033,-0.27733243,-0.51588446,-0.56180423,0.32391357,-0.33028564,93.0
1431,-2.398033,-0.27733243,-0.51588446,-0.93775636,0.14868164,-0.22939454,93.0
1432,-1.9753721,-0.96567696,-0.814502,-0.93775636,0.14868164,-0.22939454,93.0
1433,-1.9753721,-0.96567696,-0.814502,-0.7614624,-0.11682129,-0.13381349,93.0
1434,-1.2552122,-1.0849806,-1.0601466,-0.7614624,-0.11682129,-0.13381349,93.0
1435,-1.2552122,-1.0849806,-1.0601466,-0.84111327,-0.32603762,0.026550293,93.0
1436,-0.44531965,-0.575504,-1.0931368,-0.84111327,-0.32603762,0.026550293,93.0
1437,-0.44531965,-0.575504,-1.0931368,-1.2244996,-0.5140137,0.081774905,93.0
1438,0.14291418,-0.23025185,-1.0243263,-1.2244996,-0.5140137,0.081774905,93.0
1439,0.14291418,-0.23025185,-1.0243263,-1.1066163,-0.7975708,-0.32603762,93.0
1440,0.19997585,-0.39707989,-1.1259797,-1.1066163,-0.7975708,-0.32603762,93.0
1441,0.19997585,-0.39707989,-1.1259797,-0.66588134,-0.85704345,-0.54375,93.0
1442,-0.22693348,-0.6882816,-1.3025293,-0.66588134,-0.85704345,-0.54375,93.0
1443,-0.22693348,-0.6882816,-1.3025293,-0.06265869,-0.64782715,-0.3993164,93.0
1444,-0.48921275,-0.7763089,-1.1042793,-0.06265869,-0.64782715,-0.3993164,93.0
1445,-0.48921275,-0.7763089,-1.1042793,0.27399904,-0.3462158,0.035046387,93.0
1446,-0.12457335,-0.71827614,-0.52315736,0.27399904,-0.3462158,0.035046387,93.0
1447,-0.12457335,-0.71827614,-0.52315736,0.0053100586,-0.16036378,0.09239502,93.0
1448,0.669775,-0.23132253,0.033329606,0.0053100586,-0.16036378,0.09239502,93.0
1449,0.669775,-0.23132253,0.033329606,-0.65207523,-0.06478272,-0.26975098,93.0
1450,1.4155197,0.7001959,0.28381693,-0.65207523,-0.06478272,-0.26975098,93.0
1451,1.4155197,0.7001959,0.28381693,-0.82730716,-0.17416993,-0.8846558,93.0
1452,1.8455994,1.3314458,0.38989532,-0.82730716,-0.17416993,-0.8846558,93.0
1453,1.8455994,1.3314458,0.38989532,-0.7327881,-0.2803711,-1.1055542,93.0
1454,2.0286646,1.387288,0.67993385,-0.7327881,-0.2803711,-1.1055542,93.0
1455,2.0286646,1.387288,0.67993385,-0.5161377,-0.40144044,-1.0705079,93.0
1456,1.9583077,1.1467811,1.118056,-0.5161377,-0.40144044,-1.0705079,93.0
1457,1.9583077,1.1467811,1.118056,-0.29736328,-0.5649902,-0.7954468,93.0
1458,1.5507038,0.9638361,1.3520254,-0.29736328,-0.5649902,-0.7954468,93.0
1459,1.5507038,0.9638361,1.3520254,-0.10089111,-0.8421753,-0.71367186,93.0
1460,0.9513296,1.1310542,1.2637004,-0.10089111,-0.8421753,-0.71367186,93.0
1461,0.9513296,1.1310542,1.2637004,-0.64782715,-0.8623535,-0.67650145,93.0
1462,0.32187915,1.2531588,0.9270858,-0.64782715,-0.8623535,-0.67650145,93.0
1463,0.32187915,1.2531588,0.9270858,-1.0184692,-1.0057251,-0.62340087,93.0
1464,-0.14319253,1.0538332,0.5545471,-1.0184692,-1.0057251,-0.62340087,93.0
1465,-0.14319253,1.0538332,0.5545471,-1.2595459,-1.2627319,-0.6839356,93.0
1466,-0.366202,0.8391237,0.3473242,-1.2595459,-1.2627319,-0.6839356,93.0
1467,-0.366202,0.8391237,0.3473242,-1.8457764,-1.3211426,-0.94731444,93.0
1468,-0.60466814,0.3662697,0.26449263,-1.8457764,-1.3211426,-0.94731444,93.0
1469,-0.60466814,0.3662697,0.26449263,-2.4107666,-1.2818482,-1.1724609,93.0
1470,-1.0818669,-0.6305927,0.05364734,-2.4107666,-1.2818482,-1.1724609,93.0
1471,-1.0818669,-0.6305927,0.05364734,-2.5806885,-1.183081,-1.4666382,93.0
1472,-1.3180448,-1.7669619,-0.3181051,-2.5806885,-1.183081,-1.4666382,93.0
1473,-1.3180448,-1.7669619,-0.3181051,-1.351941,-1.2478638,-2.2334106,93.0
1474,-0.7278489,-2.9765213,-0.6766032,-1.351941,-1.2478638,-2.2334106,93.0
1475,-0.7278489,-2.9765213,-0.6766032,2.0380006,-0.8867798,-2.4245727,93.0
1476,-0.3322059,-3.1586218,-0.59323573,2.0380006,-0.8867798,-2.4245727,93.0
1477,-0.3322059,-3.1586218,-0.59323573,2.6040528,-0.6488892,-0.5214478,93.0
1478,-0.3322059,-3.1586218,-0.59323573,2.6040528,-0.6488892,-0.5214478,93.0
1479,-0.7171807,-2.2829888,-0.1463293,2.6040528,-0.6488892,-0.5214478,93.0
1480,-0.7171807,-2.2829888,-0.1463293,1.7523193,-0.1083252,-0.0010620117,93.0
1481,-0.54933053,-1.7047358,0.18791702,1.7523193,-0.1083252,-0.0010620117,93.0
1482,-0.54933053,-1.7047358,0.18791702,1.8946289,0.022302246,0.7858887,93.0
1483,2.6945397E-4,-0.8216865,0.27587074,1.8946289,0.022302246,0.7858887,93.0
1484,2.6945397E-4,-0.8216865,0.27587074,1.903125,0.21134034,0.9451904,93.0
1485,0.43618968,-0.36814022,0.20239824,1.903125,0.21134034,0.9451904,93.0
1486,0.43618968,-0.36814022,0.20239824,1.6142578,0.29736328,0.9398804,93.0
1487,0.83175206,-1.4202201,-0.016206414,1.6142578,0.29736328,0.9398804,93.0
1488,0.83175206,-1.4202201,-0.016206414,1.6408081,0.31010744,0.3791382,93.0
1489,1.3276697,-2.789167,-0.053590134,1.6408081,0.31010744,0.3791382,93.0
1490,1.3276697,-2.789167,-0.053590134,1.8330323,0.13699952,-0.7763306,93.0
1491,1.745229,-2.8200421,0.064623,1.8330323,0.13699952,-0.7763306,93.0
1492,1.745229,-2.8200421,0.064623,2.0029542,0.17416993,-1.3699951,93.0
1493,1.7311442,-1.3665199,-0.011057943,2.0029542,0.17416993,-1.3699951,93.0
1494,1.7311442,-1.3665199,-0.011057943,1.9211792,0.51826173,-0.9802368,93.0
1495,1.2726228,0.8609834,-0.19775017,1.9211792,0.51826173,-0.9802368,93.0
1496,1.2726228,0.8609834,-0.19775017,2.1399536,0.79226077,-0.44498292,93.0
1497,1.0012038,2.697539,-0.2617768,2.1399536,0.79226077,-0.44498292,93.0
1498,1.0012038,2.697539,-0.2617768,1.9360474,1.0227174,-0.31223145,93.0
1499,1.0840075,3.4633415,-0.13669196,1.9360474,1.0227174,-0.31223145,93.0
1500,1.0840075,3.4633415,-0.13669196,1.2860962,1.2319336,-0.20496826,93.0
1501,1.0580995,3.4217596,0.016403273,1.2860962,1.2319336,-0.20496826,93.0
1502,1.0580995,3.4217596,0.016403273,0.635083,1.4145997,-0.18797608,93.0
1503,0.8757155,3.1253228,-0.03862299,0.635083,1.4145997,-0.18797608,93.0
1504,0.8757155,3.1253228,-0.03862299,0.19328614,1.6917847,0.09133301,93.0
1505,0.5969715,2.7627583,-0.29300776,0.19328614,1.6917847,0.09133301,93.0
1506,0.5969715,2.7627583,-0.29300776,-0.26337892,1.9211792,0.34940186,93.0
1507,0.3069718,2.1343887,-0.48876414,-0.26337892,1.9211792,0.34940186,93.0
1508,0.3069718,2.1343887,-0.48876414,-0.544812,2.0061402,0.24638672,93.0
1509,-0.095401764,1.1764929,-0.52748597,-0.544812,2.0061402,0.24638672,93.0
1510,-0.095401764,1.1764929,-0.52748597,0.019116212,1.6588624,0.02442627,93.0
1511,-0.7444489,0.54633355,-0.45492333,0.019116212,1.6588624,0.02442627,93.0
1512,-0.7444489,0.54633355,-0.45492333,0.61702883,1.4241577,-0.08602295,93.0
1513,-1.4234889,0.56237197,-0.34658027,0.61702883,1.4241577,-0.08602295,93.0
1514,-1.4234889,0.56237197,-0.34658027,0.75296634,1.4294678,-0.14549561,93.0
1515,-1.8354219,0.3571608,-0.23776227,0.75296634,1.4294678,-0.14549561,93.0
1516,-1.8354219,0.3571608,-0.23776227,0.8644776,1.3912354,-0.16036378,93.0
1517,-1.9240016,-0.47208393,-0.05961901,0.8644776,1.3912354,-0.16036378,93.0
1518,-1.9240016,-0.47208393,-0.05961901,1.1204224,1.1979493,-0.27506104,93.0
1519,-1.7203903,-1.2137389,0.21457285,1.1204224,1.1979493,-0.27506104,93.0
1520,-1.7203903,-1.2137389,0.21457285,0.9281983,1.0428956,-0.23895264,93.0
1521,-1.619989,-1.2887646,0.43829647,0.9281983,1.0428956,-0.23895264,93.0
1522,-1.619989,-1.2887646,0.43829647,0.5522461,0.93563235,-0.18797608,93.0
1523,-1.8690991,-1.0631284,0.49151853,0.5522461,0.93563235,-0.18797608,93.0
1524,-1.8690991,-1.0631284,0.49151853,0.64782715,0.67225343,-0.31860352,93.0
1525,-2.1173742,-0.79717016,0.2956196,0.64782715,0.67225343,-0.31860352,93.0
1526,-2.1173742,-0.79717016,0.2956196,0.50020754,0.5033936,-0.21134034,93.0
1527,-2.0795684,-0.46820492,0.0017666817,0.50020754,0.5033936,-0.21134034,93.0
1528,-2.0795684,-0.46820492,0.0017666817,-0.12850343,0.4715332,0.31223145,93.0
1529,-1.794514,-0.31572604,-0.16736108,-0.12850343,0.4715332,0.31223145,93.0
1530,-1.794514,-0.31572604,-0.16736108,-0.37489015,0.13381349,0.38444826,93.0
1531,-1.2288607,-0.24354762,-0.17496553,-0.37489015,0.13381349,0.38444826,93.0
1532,-1.2288607,-0.24354762,-0.17496553,-0.3727661,-0.3069214,-0.060534667,93.0
1533,-0.5753615,-0.0016129911,-0.189594,-0.3727661,-0.3069214,-0.060534667,93.0
1534,-0.5753615,-0.0016129911,-0.189594,-0.33878174,-0.6839356,-0.57242435,93.0
1535,-0.27447367,0.48734486,-0.34802532,-0.33878174,-0.6839356,-0.57242435,93.0
1536,-0.27447367,0.48734486,-0.34802532,-0.62764895,-0.90802,-0.6977417,93.0
1537,-0.36050916,0.78152627,-0.6000389,-0.62764895,-0.90802,-0.6977417,93.0
1538,-0.36050916,0.78152627,-0.6000389,-0.7784546,-0.991919,-0.74871826,93.0
1539,-0.5513835,-0.011973791,-0.78697693,-0.7784546,-0.991919,-0.74871826,93.0
1540,-0.5513835,-0.011973791,-0.78697693,-0.8846558,-0.9653687,-0.8092529,93.0
1541,-0.34454918,-1.3570888,-0.79418117,-0.8846558,-0.9653687,-0.8092529,93.0
1542,-0.34454918,-1.3570888,-0.79418117,-0.9133301,-0.99510497,-0.8666016,93.0
1543,0.41002965,-1.4838889,-0.42694652,-0.9133301,-0.99510497,-0.8666016,93.0
1544,0.41002965,-1.4838889,-0.42694652,-1.1076783,-0.9770508,-0.80181885,93.0
1545,1.3455775,-0.2645281,0.21118939,-1.1076783,-0.9770508,-0.80181885,93.0
1546,1.3455775,-0.2645281,0.21118939,-1.4655762,-0.87191164,-0.59472656,93.0
1547,2.0319185,0.7090074,0.63678604,-1.4655762,-0.87191164,-0.59472656,93.0
1548,2.0319185,0.7090074,0.63678604,-0.6775635,-0.84536135,-0.36002198,93.0
1549,2.2759132,1.1739564,0.7446217,-0.6775635,-0.84536135,-0.36002198,93.0
1550,2.2759132,1.1739564,0.7446217,0.7412842,-1.1682129,-0.09451904,93.0
1551,2.3799102,1.8581959,0.816193,0.7412842,-1.1682129,-0.09451904,93.0
1552,2.3799102,1.8581959,0.816193,1.6057618,-1.3859253,-0.020178223,93.0
1553,2.246067,2.7506802,0.8959964,1.6057618,-1.3859253,-0.020178223,93.0
1554,2.246067,2.7506802,0.8959964,1.7576294,-1.4825684,-0.14761963,93.0
1555,1.7670685,3.2302806,0.7754031,1.7576294,-1.4825684,-0.14761963,93.0
1556,1.7670685,3.2302806,0.7754031,1.5855836,-1.4167236,-0.43861085,93.0
1557,1.1645582,2.2986898,0.3547707,1.5855836,-1.4167236,-0.43861085,93.0
1558,1.1645582,2.2986898,0.3547707,1.0110352,-1.2414917,-0.03717041,93.0
1559,0.47600698,0.40786052,-0.30086362,1.0110352,-1.2414917,-0.03717041,93.0
1560,0.47600698,0.40786052,-0.30086362,0.5479981,-1.0333375,0.13062744,93.0
1561,-0.18030286,-1.3137994,-0.93622315,0.5479981,-1.0333375,0.13062744,93.0
1562,-0.18030286,-1.3137994,-0.93622315,0.6149048,-0.9420044,0.020178223,93.0
1563,-0.18030286,-1.3137994,-0.93622315,0.6149048,-0.9420044,0.020178223,93.0
1564,-0.6166667,-2.5637105,-1.2453897,0.6149048,-0.9420044,0.020178223,93.0
1565,-0.6166667,-2.5637105,-1.2453897,0.9855469,-0.85385746,-0.107263185,93.0
1566,-0.7569686,-3.603056,-1.1272321,0.9855469,-0.85385746,-0.107263185,93.0
1567,-0.7569686,-3.603056,-1.1272321,1.8001099,-0.7986328,-0.08496094,93.0
1568,-0.69351435,-4.3612413,-0.67067003,1.8001099,-0.7986328,-0.08496094,93.0
1569,-0.69351435,-4.3612413,-0.67067003,2.444751,-0.86341554,-0.17735596,93.0
1570,-0.58618355,-3.8687537,-0.096692204,2.444751,-0.86341554,-0.17735596,93.0
1571,-0.58618355,-3.8687537,-0.096692204,2.4691772,-0.5936646,-0.04991455,93.0
1572,-0.25794834,-2.3700519,0.38215554,2.4691772,-0.5936646,-0.04991455,93.0
1573,-0.25794834,-2.3700519,0.38215554,1.812854,-0.2442627,0.014868164,93.0
1574,0.080604196,-1.4004605,0.85972834,1.812854,-0.2442627,0.014868164,93.0
1575,0.080604196,-1.4004605,0.85972834,1.9371094,-0.17841797,-0.20603028,93.0
1576,0.0024228096,-0.9691112,1.5328755,1.9371094,-0.17841797,-0.20603028,93.0
1577,0.0024228096,-0.9691112,1.5328755,2.450061,-0.022302246,-0.4980835,93.0
1578,-0.021096408,-0.018880129,1.9166691,2.450061,-0.022302246,-0.4980835,93.0
1579,-0.021096408,-0.018880129,1.9166691,2.078357,0.17523193,-0.22302246,93.0
1580,0.30345976,1.0918539,1.5143656,2.078357,0.17523193,-0.22302246,93.0
1581,0.30345976,1.0918539,1.5143656,1.7300171,0.47365722,0.14655761,93.0
1582,0.7910833,1.3356047,0.95711017,1.7300171,0.47365722,0.14655761,93.0
1583,0.7910833,1.3356047,0.95711017,1.1820191,0.55755615,-0.022302246,93.0
1584,1.2326591,0.65903556,0.716506,1.1820191,0.55755615,-0.022302246,93.0
1585,1.2326591,0.65903556,0.716506,0.99085695,0.3154175,-0.5097656,93.0
1586,1.5058295,0.28234315,0.872509,0.99085695,0.3154175,-0.5097656,93.0
