,accx,accy,accz,gyrox,gyroy,gyroz,heart rate
0,walk,walk,walk,walk,walk,walk,walk
1,-7.8809085,-49.565235,46.178772,0.0,0.0,0.0,0.0
2,-7.8809085,-49.565235,46.178772,0.1985962,0.0021240234,0.004248047,0.0
3,-6.3409204,-39.64689,36.701027,0.1985962,0.0021240234,0.004248047,0.0
4,-6.3409204,-39.64689,36.701027,0.6977417,-0.11682129,0.11151123,0.0
5,-5.107612,-31.42529,29.101215,0.6977417,-0.11682129,0.11151123,0.0
6,-5.107612,-31.42529,29.101215,0.32709962,-0.093457036,0.0010620117,0.0
7,-4.1138363,-24.82214,23.28178,0.32709962,-0.093457036,0.0010620117,0.0
8,-4.1138363,-24.82214,23.28178,-0.15717773,0.014868164,-0.1263794,0.0
9,-3.2954144,-19.79338,18.806198,-0.15717773,0.014868164,-0.1263794,0.0
10,-3.2954144,-19.79338,18.806198,-0.4364868,0.09133301,-0.19116211,0.0
11,-2.635233,-16.011463,15.191601,-0.4364868,0.09133301,-0.19116211,0.0
12,-2.635233,-16.011463,15.191601,-0.32816163,0.10620117,-0.16779785,0.0
13,-2.1205034,-13.004421,12.154148,-0.32816163,0.10620117,-0.16779785,0.0
14,-2.1205034,-13.004421,12.154148,-0.047790527,0.06265869,-0.05628662,0.0
15,-1.7303505,-10.457542,9.625336,-0.047790527,0.06265869,-0.05628662,0.0
16,-1.7303505,-10.457542,9.625336,0.039294433,0.053100586,-0.0063720704,0.0
17,-1.4118319,-8.356049,7.6286507,0.039294433,0.053100586,-0.0063720704,0.0
18,-1.4118319,-8.356049,7.6286507,-0.032922365,0.06584473,0.07327881,0.0
19,-1.4118319,-8.356049,7.6286507,-0.023364259,0.05628662,0.12956543,0.0
20,-1.1022434,-6.7401237,6.0827675,-0.023364259,0.05628662,0.12956543,0.0
21,-0.83621407,-5.4595795,4.8664207,-0.023364259,0.05628662,0.12956543,0.0
22,-0.83621407,-5.4595795,4.8664207,0.011682129,0.04991455,0.13487549,0.0
23,-0.64969635,-4.3872185,3.8970566,0.011682129,0.04991455,0.13487549,0.0
24,-0.64969635,-4.3872185,3.8970566,0.007434082,0.0541626,0.08071289,0.0
25,-0.5015812,-3.4952736,3.1068687,0.007434082,0.0541626,0.08071289,0.0
26,-0.5015812,-3.4952736,3.1068687,-0.0010620117,0.059472658,0.02442627,0.0
27,-0.37052727,-2.777153,2.4619484,-0.0010620117,0.059472658,0.02442627,0.0
28,-0.37052727,-2.777153,2.4619484,0.021240234,0.0541626,-0.007434082,0.0
29,-0.28356743,-2.179325,1.9546432,0.021240234,0.0541626,-0.007434082,0.0
30,-0.28356743,-2.179325,1.9546432,-0.0021240234,0.057348635,-0.059472658,0.0
31,-0.2481556,-1.7229004,1.5758514,-0.0021240234,0.057348635,-0.059472658,0.0
32,-0.2481556,-1.7229004,1.5758514,0.0021240234,0.059472658,-0.09451904,0.0
33,-0.22734547,-1.3932991,1.2733917,0.0021240234,0.059472658,-0.09451904,0.0
34,-0.22734547,-1.3932991,1.2733917,-0.0010620117,0.05522461,-0.08602295,0.0
35,-0.21219826,-1.1316452,1.0120735,-0.0010620117,0.05522461,-0.08602295,0.0
36,-0.21219826,-1.1316452,1.0120735,-0.015930176,0.047790527,-0.06265869,0.0
37,-0.1952591,-0.9078827,0.8057747,-0.015930176,0.047790527,-0.06265869,0.0
38,-0.1952591,-0.9078827,0.8057747,-0.050976563,0.052038576,-0.0541626,0.0
39,-0.17901039,-0.7286835,0.63386536,-0.050976563,0.052038576,-0.0541626,0.0
40,-0.17901039,-0.7286835,0.63386536,-0.045666505,0.038232423,-0.0180542,0.0
41,-0.13811779,-0.6125374,0.5076752,-0.045666505,0.038232423,-0.0180542,0.0
42,-0.13811779,-0.6125374,0.5076752,-0.04248047,0.025488282,0.019116212,0.0
43,-0.11577988,-0.5091095,0.41910553,-0.04248047,0.025488282,0.019116212,0.0
44,-0.11577988,-0.5091095,0.41910553,-0.046728518,0.021240234,0.011682129,0.0
45,-0.11577988,-0.5091095,0.41910553,-0.040356446,0.007434082,0.028674318,0.0
46,-0.118844986,-0.4100113,0.33306122,-0.040356446,0.007434082,0.028674318,0.0
47,-0.12733936,-0.3315506,0.2402153,-0.040356446,0.007434082,0.028674318,0.0
48,-0.12733936,-0.3315506,0.2402153,-0.0063720704,-0.009558106,0.015930176,0.0
49,-0.13498878,-0.2674141,0.15346527,-0.0063720704,-0.009558106,0.015930176,0.0
50,-0.13498878,-0.2674141,0.15346527,-0.015930176,-0.012744141,0.0053100586,0.0
51,-0.14894581,-0.24201965,0.09062958,-0.015930176,-0.012744141,0.0053100586,0.0
52,-0.14894581,-0.24201965,0.09062958,-0.033984374,-0.022302246,0.038232423,0.0
53,-0.15930557,-0.21876144,0.0545578,-0.033984374,-0.022302246,0.038232423,0.0
54,-0.15930557,-0.21876144,0.0545578,-0.0998291,-0.0063720704,0.06584473,0.0
55,-0.1764431,-0.08666611,0.02034378,-0.0998291,-0.0063720704,0.06584473,0.0
56,-0.1764431,-0.08666611,0.02034378,-0.121069334,0.010620117,0.06584473,0.0
57,-0.2751999,0.14163208,-0.008491516,-0.121069334,0.010620117,0.06584473,0.0
58,-0.2751999,0.14163208,-0.008491516,-0.2166504,0.06159668,0.08814698,0.0
59,-0.4061947,0.30467606,-0.049224854,-0.2166504,0.06159668,0.08814698,0.0
60,-0.4061947,0.30467606,-0.049224854,-0.24001466,0.090270996,-0.22514649,0.0
61,-0.3851366,0.19941711,-0.10361099,-0.24001466,0.090270996,-0.22514649,0.0
62,-0.3851366,0.19941711,-0.10361099,-0.15505372,0.021240234,0.0,0.0
63,-0.3692541,0.03935623,-0.11790085,-0.15505372,0.021240234,0.0,0.0
64,-0.3692541,0.03935623,-0.11790085,-0.07965088,0.016992187,-0.035046387,0.0
65,-0.39613533,0.075027466,-0.121040344,-0.07965088,0.016992187,-0.035046387,0.0
66,-0.39613533,0.075027466,-0.121040344,-0.18266602,0.043542482,-0.078588866,0.0
67,-0.42800426,0.11871338,-0.16921997,-0.18266602,0.043542482,-0.078588866,0.0
68,-0.42800426,0.11871338,-0.16921997,-0.21240234,0.021240234,-0.047790527,0.0
69,-0.5573931,0.066856384,-0.25975037,-0.21240234,0.021240234,-0.047790527,0.0
70,-0.5573931,0.066856384,-0.25975037,-0.20072022,-0.032922365,-0.0541626,0.0
71,-0.5573931,0.066856384,-0.25975037,-0.16885987,-0.12531738,-0.12213135,0.0
72,-0.7755041,-0.14167786,-0.26908875,-0.16885987,-0.12531738,-0.12213135,0.0
73,-0.8869934,-0.50923157,-0.067295074,-0.16885987,-0.12531738,-0.12213135,0.0
74,-0.8869934,-0.50923157,-0.067295074,-0.16248779,-0.1985962,-0.21240234,0.0
75,-0.8869934,-0.50923157,-0.067295074,-0.16248779,-0.1985962,-0.21240234,81.0
76,-0.66409874,-0.7982063,0.2242279,-0.16248779,-0.1985962,-0.21240234,81.0
77,-0.66409874,-0.7982063,0.2242279,-0.3164795,-0.19328614,-0.26337892,81.0
78,-0.2219038,-0.7999191,0.3445549,-0.3164795,-0.19328614,-0.26337892,81.0
79,-0.2219038,-0.7999191,0.3445549,-0.5564942,-0.17841797,-0.2166504,81.0
80,0.08458614,-0.68032837,0.25687027,-0.5564942,-0.17841797,-0.2166504,81.0
81,0.08458614,-0.68032837,0.25687027,-0.55543214,-0.18903808,-0.20284425,81.0
82,0.20330143,-0.5896988,0.08321762,-0.55543214,-0.18903808,-0.20284425,81.0
83,0.20330143,-0.5896988,0.08321762,-0.4078125,-0.20921631,-0.20178223,81.0
84,0.279047,-0.50688934,-0.07657623,-0.4078125,-0.20921631,-0.20178223,81.0
85,0.279047,-0.50688934,-0.07657623,-0.32497558,-0.23364258,-0.17735596,81.0
86,0.30512238,-0.54187775,-0.1423912,-0.32497558,-0.23364258,-0.17735596,81.0
87,0.30512238,-0.54187775,-0.1423912,-0.14655761,-0.27293703,-0.15505372,81.0
88,0.37073326,-0.6667671,-0.078186035,-0.14655761,-0.27293703,-0.15505372,81.0
89,0.37073326,-0.6667671,-0.078186035,-0.0361084,-0.24213867,-0.16461182,81.0
90,0.5156174,-0.73807526,0.046081543,-0.0361084,-0.24213867,-0.16461182,81.0
91,0.5156174,-0.73807526,0.046081543,-0.23789063,-0.15611573,-0.26125488,81.0
92,0.68814087,-0.72690964,0.08060455,-0.23789063,-0.15611573,-0.26125488,81.0
93,0.68814087,-0.72690964,0.08060455,-0.5246338,-0.081774905,-0.3355957,81.0
94,0.85932636,-0.6124344,-0.010295868,-0.5246338,-0.081774905,-0.3355957,81.0
95,0.85932636,-0.6124344,-0.010295868,-0.90270996,-0.032922365,-0.36639404,81.0
96,0.84682465,-0.69107056,0.0022239685,-0.90270996,-0.032922365,-0.36639404,81.0
97,0.84682465,-0.69107056,0.0022239685,-1.1926392,-0.098767094,-0.41524658,81.0
98,0.6690979,-1.182312,0.33620453,-1.1926392,-0.098767094,-0.41524658,81.0
99,0.6690979,-1.182312,0.33620453,-1.2298096,-0.14655761,-0.5798584,81.0
100,0.6671505,-1.6811523,0.7977371,-1.2298096,-0.14655761,-0.5798584,81.0
101,0.6671505,-1.6811523,0.7977371,-1.4984986,-0.12956543,-0.72854006,81.0
102,0.8402872,-1.8240433,1.0446625,-1.4984986,-0.12956543,-0.72854006,81.0
103,0.8402872,-1.8240433,1.0446625,-1.8521484,-0.083898924,-0.80606693,81.0
104,0.90484715,-1.6791534,0.95399094,-1.8521484,-0.083898924,-0.80606693,81.0
105,0.90484715,-1.6791534,0.95399094,-2.088977,-0.04460449,-0.94625247,81.0
106,0.7449465,-1.4839935,0.60944366,-2.088977,-0.04460449,-0.94625247,81.0
107,0.7449465,-1.4839935,0.60944366,-2.3183715,0.008496094,-1.1204224,81.0
108,0.4499979,-1.4851532,0.18416214,-2.3183715,0.008496094,-1.1204224,81.0
109,0.4499979,-1.4851532,0.18416214,-2.5987427,0.03186035,-1.2351197,81.0
110,0.14532566,-1.7141037,-0.09781265,-2.5987427,0.03186035,-1.2351197,81.0
111,0.14532566,-1.7141037,-0.09781265,-2.7760987,0.0541626,-1.3147706,81.0
112,-0.13021183,-1.9932327,-0.17322159,-2.7760987,0.0541626,-1.3147706,81.0
113,-0.13021183,-1.9932327,-0.17322159,-2.902478,0.13487549,-1.4921265,81.0
114,-0.42623997,-2.315689,-0.18398666,-2.902478,0.13487549,-1.4921265,81.0
115,-0.42623997,-2.315689,-0.18398666,-3.0490358,0.20709229,-1.5993897,81.0
116,-0.7597542,-2.753395,-0.21037292,-3.0490358,0.20709229,-1.5993897,81.0
117,-0.7597542,-2.753395,-0.21037292,-3.1414306,0.2516968,-1.6588624,81.0
118,-0.98157024,-3.210289,-0.2341919,-3.1414306,0.2516968,-1.6588624,81.0
119,-0.98157024,-3.210289,-0.2341919,-3.183911,0.29311523,-1.7098389,81.0
120,-1.0625019,-3.533821,-0.2811432,-3.183911,0.29311523,-1.7098389,81.0
121,-1.0625019,-3.533821,-0.2811432,-3.166919,0.32497558,-1.7608155,81.0
122,-1.1536274,-3.7770615,-0.3871193,-3.166919,0.32497558,-1.7608155,81.0
123,-1.1536274,-3.7770615,-0.3871193,-3.1159425,0.2984253,-1.7140869,81.0
124,-1.3132458,-4.068512,-0.44486618,-3.1159425,0.2984253,-1.7140869,81.0
125,-1.3132458,-4.068512,-0.44486618,-2.9364624,0.23895264,-1.6238159,81.0
126,-1.3623762,-4.3743286,-0.38407898,-2.9364624,0.23895264,-1.6238159,81.0
127,-1.3623762,-4.3743286,-0.38407898,-2.6507814,0.18266602,-1.5515991,81.0
128,-1.1199303,-4.581665,-0.28427887,-2.6507814,0.18266602,-1.5515991,81.0
129,-1.1199303,-4.581665,-0.28427887,-2.3449218,0.17841797,-1.4698242,81.0
130,-0.63382244,-4.7058105,-0.29119492,-2.3449218,0.17841797,-1.4698242,81.0
131,-0.63382244,-4.7058105,-0.29119492,-2.1123414,0.23258057,-1.3083985,81.0
132,-0.12214565,-4.7085953,-0.49215698,-2.1123414,0.23258057,-1.3083985,81.0
133,-0.12214565,-4.7085953,-0.49215698,-1.803296,0.2782471,-1.0705079,81.0
134,0.27620888,-4.451828,-0.7608261,-1.803296,0.2782471,-1.0705079,81.0
135,0.27620888,-4.451828,-0.7608261,-1.1172364,0.32709962,-0.90058595,81.0
136,0.53975296,-3.9579086,-0.92378616,-1.1172364,0.32709962,-0.90058595,81.0
137,0.53975296,-3.9579086,-0.92378616,-0.35152587,0.3812622,-0.7699585,81.0
138,0.6481228,-3.3875046,-0.9773598,-0.35152587,0.3812622,-0.7699585,81.0
139,0.6481228,-3.3875046,-0.9773598,0.19328614,0.4343628,-0.59897465,81.0
140,0.6026783,-2.8664703,-0.9753189,0.19328614,0.4343628,-0.59897465,81.0
141,0.6026783,-2.8664703,-0.9753189,0.41843262,0.49171144,-0.5299439,81.0
142,0.4792614,-2.3073044,-0.92546844,0.41843262,0.49171144,-0.5299439,81.0
143,0.4792614,-2.3073044,-0.92546844,0.35152587,0.5320679,-0.5331299,81.0
144,0.37900162,-1.6761398,-0.87192917,0.35152587,0.5320679,-0.5331299,81.0
145,0.37900162,-1.6761398,-0.87192917,0.07540283,0.5777344,-0.58304447,81.0
146,0.36351585,-1.3395538,-0.87081146,0.07540283,0.5777344,-0.58304447,81.0
147,0.36351585,-1.3395538,-0.87081146,-0.36108398,0.5586182,-0.71791995,81.0
148,0.60186005,-1.8348846,-0.900753,-0.36108398,0.5586182,-0.71791995,81.0
149,0.60186005,-1.8348846,-0.900753,-0.8708496,0.47578126,-0.9897949,81.0
150,1.2417297,-2.8719788,-0.7685623,-0.8708496,0.47578126,-0.9897949,81.0
151,1.2417297,-2.8719788,-0.7685623,-1.3349488,0.42905274,-1.0959961,81.0
152,2.088745,-3.3710556,-0.5762024,-1.3349488,0.42905274,-1.0959961,81.0
153,2.088745,-3.3710556,-0.5762024,-2.0422485,0.42374268,-1.0131592,81.0
154,2.565405,-2.7870026,-0.65914154,-2.0422485,0.42374268,-1.0131592,81.0
155,2.565405,-2.7870026,-0.65914154,-2.447937,0.43754885,-0.998291,81.0
156,2.3594646,-1.9072495,-0.9482384,-2.447937,0.43754885,-0.998291,81.0
157,2.3594646,-1.9072495,-0.9482384,-2.444751,0.43754885,-0.74871826,81.0
158,1.8606796,-1.7069244,-1.192318,-2.444751,0.43754885,-0.74871826,81.0
159,1.8606796,-1.7069244,-1.192318,-2.3056276,0.41843262,-0.28780517,81.0
160,1.4942079,-1.8040924,-1.3884735,-2.3056276,0.41843262,-0.28780517,81.0
161,1.4942079,-1.8040924,-1.3884735,-2.162256,0.40356445,0.09239502,81.0
162,1.1776175,-1.5070648,-1.6587143,-2.162256,0.40356445,0.09239502,81.0
163,1.1776175,-1.5070648,-1.6587143,-1.9594116,0.39082032,0.3058594,81.0
164,0.6929245,-0.84293365,-1.9503021,-1.9594116,0.39082032,0.3058594,81.0
165,0.6929245,-0.84293365,-1.9503021,-1.6631104,0.35683593,0.48321533,81.0
166,0.036749363,-0.16014862,-2.1124382,-1.6631104,0.35683593,0.48321533,81.0
167,0.036749363,-0.16014862,-2.1124382,-1.1692749,0.26868898,0.6637573,81.0
168,-0.6506057,0.42453003,-2.0760117,-1.1692749,0.26868898,0.6637573,81.0
169,-0.6506057,0.42453003,-2.0760117,-0.70198977,0.17629395,0.79119873,81.0
170,-1.2167001,0.9381485,-1.9151917,-0.70198977,0.17629395,0.79119873,81.0
171,-1.2167001,0.9381485,-1.9151917,-0.45772704,0.14549561,0.8952759,81.0
172,-1.5608721,1.3932343,-1.8322372,-0.45772704,0.14549561,0.8952759,81.0
173,-1.5608721,1.3932343,-1.8322372,-0.45772704,0.15823975,0.95793456,81.0
174,-1.7132483,1.6233749,-1.9223099,-0.45772704,0.15823975,0.95793456,81.0
175,-1.7132483,1.6233749,-1.9223099,-0.6435791,0.20921631,0.99085695,81.0
176,-1.7552423,1.5596237,-2.1044273,-0.6435791,0.20921631,0.99085695,81.0
177,-1.7552423,1.5596237,-2.1044273,-0.8527954,0.26019287,1.0333375,81.0
178,-1.7061596,1.2939453,-2.2589226,-0.8527954,0.26019287,1.0333375,81.0
179,-1.7061596,1.2939453,-2.2589226,-0.9430664,0.31010744,1.0503296,81.0
180,-1.5265732,0.99809265,-2.3243637,-0.9430664,0.31010744,1.0503296,81.0
181,-1.5265732,0.99809265,-2.3243637,-0.9430664,0.31010744,1.0503296,82.0
182,-1.5265732,0.99809265,-2.3243637,-0.9547486,0.37489015,1.0333375,82.0
183,-1.2070742,0.734108,-2.4134674,-0.9547486,0.37489015,1.0333375,82.0
184,-1.2070742,0.734108,-2.4134674,-1.0301514,0.4800293,0.93138427,82.0
185,-0.8506079,0.37594604,-2.6473122,-1.0301514,0.4800293,0.93138427,82.0
186,-0.8506079,0.37594604,-2.6473122,-1.176709,0.55755615,0.75296634,82.0
187,-0.56860924,-0.12689209,-2.9731445,-1.176709,0.55755615,0.75296634,82.0
188,-0.56860924,-0.12689209,-2.9731445,-1.3901733,0.5703003,0.5628662,82.0
189,-0.37580967,-0.54281616,-3.2373772,-1.3901733,0.5703003,0.5628662,82.0
190,-0.37580967,-0.54281616,-3.2373772,-1.5261109,0.52038574,0.38551027,82.0
191,-0.21619987,-0.73631287,-3.3382645,-1.5261109,0.52038574,0.38551027,82.0
192,-0.21619987,-0.73631287,-3.3382645,-1.4719483,0.4725952,0.13381349,82.0
193,-0.0452013,-0.9151001,-3.2937088,-1.4719483,0.4725952,0.13381349,82.0
194,-0.0452013,-0.9151001,-3.2937088,-1.350879,0.50233155,-0.16673584,82.0
195,0.1993742,-1.2458267,-3.0845528,-1.350879,0.50233155,-0.16673584,82.0
196,0.1993742,-1.2458267,-3.0845528,-1.2021973,0.60322267,-0.50233155,82.0
197,0.5635519,-1.6669464,-2.6731377,-1.2021973,0.60322267,-0.50233155,82.0
198,0.5635519,-1.6669464,-2.6731377,-1.1044922,0.70305175,-0.86978763,82.0
199,1.0078487,-1.8453751,-2.1554184,-1.1044922,0.70305175,-0.86978763,82.0
200,1.0078487,-1.8453751,-2.1554184,-1.0004151,0.7975708,-1.1501588,82.0
201,1.3257856,-1.5370789,-1.7290955,-1.0004151,0.7975708,-1.1501588,82.0
202,1.3257856,-1.5370789,-1.7290955,-0.9834229,0.9451904,-1.4581422,82.0
203,1.3757658,-0.9823837,-1.6082306,-0.9834229,0.9451904,-1.4581422,82.0
204,1.3757658,-0.9823837,-1.6082306,-1.1066163,1.081128,-1.9700317,82.0
205,1.3238792,-0.39338684,-1.6317368,-1.1066163,1.081128,-1.9700317,82.0
206,1.3238792,-0.39338684,-1.6317368,-1.2510499,1.0057251,-2.5562623,82.0
207,1.4347382,0.21886444,-1.4038773,-1.2510499,1.0057251,-2.5562623,82.0
208,1.4347382,0.21886444,-1.4038773,-1.5728394,0.815625,-2.7314942,82.0
209,1.6637697,0.48700714,-0.94000626,-1.5728394,0.815625,-2.7314942,82.0
210,1.6637697,0.48700714,-0.94000626,-1.4931885,0.74022216,-2.6794555,82.0
211,1.8190289,0.03614807,-0.5078888,-1.4931885,0.74022216,-2.6794555,82.0
212,1.8190289,0.03614807,-0.5078888,-0.6669434,0.6467652,-2.8493774,82.0
213,2.1446638,-0.53720856,-0.24930191,-0.6669434,0.6467652,-2.8493774,82.0
214,2.1446638,-0.53720856,-0.24930191,0.24744873,0.5649902,-3.4642823,82.0
215,3.0888515,-0.40174866,-0.10199356,0.24744873,0.5649902,-3.4642823,82.0
216,3.0888515,-0.40174866,-0.10199356,0.19116211,0.41524658,-4.0016603,82.0
217,4.6342525,0.15534973,-0.015529633,0.19116211,0.41524658,-4.0016603,82.0
218,4.6342525,0.15534973,-0.015529633,-0.19222413,0.17841797,-4.223621,82.0
219,6.2759933,0.43460083,0.0902977,-0.19222413,0.17841797,-4.223621,82.0
220,6.2759933,0.43460083,0.0902977,0.0031860352,0.1529297,-4.3946047,82.0
221,7.0852723,0.549881,0.38443375,0.0031860352,0.1529297,-4.3946047,82.0
222,7.0852723,0.549881,0.38443375,0.7306641,0.28780517,-4.612317,82.0
223,6.4755664,1.1279984,0.5958786,0.7306641,0.28780517,-4.612317,82.0
224,6.4755664,1.1279984,0.5958786,1.2797241,0.26125488,-4.6601076,82.0
225,5.154794,2.2080994,0.58013153,1.2797241,0.26125488,-4.6601076,82.0
226,5.154794,2.2080994,0.58013153,1.2064453,0.18903808,-4.5719604,82.0
227,4.145076,3.2863312,0.40576935,1.2064453,0.18903808,-4.5719604,82.0
228,4.145076,3.2863312,0.40576935,0.7986328,0.19116211,-4.506116,82.0
229,3.6741414,3.747635,0.04014206,0.7986328,0.19116211,-4.506116,82.0
230,3.6741414,3.747635,0.04014206,0.3069214,0.11044922,-4.3999147,82.0
231,3.5961978,3.472992,-0.28181458,0.3069214,0.11044922,-4.3999147,82.0
232,3.5961978,3.472992,-0.28181458,0.16248779,0.08496094,-4.2204347,82.0
233,3.8634696,2.933838,-0.23177338,0.16248779,0.08496094,-4.2204347,82.0
234,3.8634696,2.933838,-0.23177338,0.26975098,0.1083252,-3.9984741,82.0
235,4.460869,2.6189423,0.10240936,0.26975098,0.1083252,-3.9984741,82.0
236,4.460869,2.6189423,0.10240936,-0.20178223,0.18585205,-3.7818239,82.0
237,5.2851133,2.5780334,0.45277405,-0.20178223,0.18585205,-3.7818239,82.0
238,5.2851133,2.5780334,0.45277405,-1.2404298,0.29417726,-3.6575685,82.0
239,5.2497826,2.4743652,0.4751587,-1.2404298,0.29417726,-3.6575685,82.0
240,5.2497826,2.4743652,0.4751587,-1.6949707,0.38869628,-3.5821655,82.0
241,5.9657316,1.322464,0.61637115,-1.6949707,0.38869628,-3.5821655,82.0
242,5.9657316,1.322464,0.61637115,-2.0911012,0.5979126,-3.2444458,82.0
243,5.150015,1.0110931,0.5327339,-2.0911012,0.5979126,-3.2444458,82.0
244,5.150015,1.0110931,0.5327339,-2.080481,0.630835,-3.1488647,82.0
245,4.105095,-0.0060577393,0.5266609,-2.080481,0.630835,-3.1488647,82.0
246,4.105095,-0.0060577393,0.5266609,-1.9742798,0.80819094,-2.6752076,82.0
247,3.1990662,0.06632233,0.42007446,-1.9742798,0.80819094,-2.6752076,82.0
248,3.1990662,0.06632233,0.42007446,-1.8797607,0.85704345,-2.4808595,82.0
249,1.5421638,0.0632782,0.087402344,-1.8797607,0.85704345,-2.4808595,82.0
250,1.5421638,0.0632782,0.087402344,-1.621692,0.79226077,-1.8202881,82.0
251,0.85100365,0.4015274,-0.01543045,-1.621692,0.79226077,-1.8202881,82.0
252,0.85100365,0.4015274,-0.01543045,-1.5930176,0.727478,-1.5547851,82.0
253,-0.02550888,0.5532074,-0.28813934,-1.5930176,0.727478,-1.5547851,82.0
254,-0.02550888,0.5532074,-0.28813934,-1.4050416,0.45454103,-0.59472656,82.0
255,-0.3406105,0.58457184,-0.13832474,-1.4050416,0.45454103,-0.59472656,82.0
256,-0.3406105,0.58457184,-0.13832474,-1.0641358,0.40144044,-0.4725952,82.0
257,-2.599722,1.7900238,0.19787216,-1.0641358,0.40144044,-0.4725952,82.0
258,-2.599722,1.7900238,0.19787216,0.63826907,-0.10938721,0.36427003,82.0
259,-2.6038504,1.858017,0.1588707,0.63826907,-0.10938721,0.36427003,82.0
260,-2.6038504,1.858017,0.1588707,1.44115,-0.26656494,0.725354,82.0
261,-0.85627365,2.187683,-0.2313652,1.44115,-0.26656494,0.725354,82.0
262,-0.85627365,2.187683,-0.2313652,2.541394,-0.53737795,1.5611572,82.0
263,0.07110882,1.706871,-0.32128525,2.541394,-0.53737795,1.5611572,82.0
264,0.07110882,1.706871,-0.32128525,2.4596193,-0.5256958,1.7480713,82.0
265,1.0103655,1.3198547,-0.40826035,2.4596193,-0.5256958,1.7480713,82.0
266,1.0103655,1.3198547,-0.40826035,2.1962402,-0.55755615,2.3449218,82.0
267,0.5604162,0.59461975,-0.23487473,2.1962402,-0.55755615,2.3449218,82.0
268,0.5604162,0.59461975,-0.23487473,2.3895264,-0.6149048,2.5074098,82.0
269,-0.31992912,-0.021766663,0.10459137,2.3895264,-0.6149048,2.5074098,82.0
270,-0.31992912,-0.021766663,0.10459137,3.175415,-0.63826907,2.817517,82.0
271,-0.6104727,-0.23739624,0.24944305,3.175415,-0.63826907,2.817517,82.0
272,-0.6104727,-0.23739624,0.24944305,3.268872,-0.5851685,2.9152222,82.0
273,-1.0468988,-0.04864502,0.37288284,3.268872,-0.5851685,2.9152222,82.0
274,-1.0468988,-0.04864502,0.37288284,3.1870973,-0.38657227,3.1255004,82.0
275,-1.5647774,0.13160706,0.45845032,3.1870973,-0.38657227,3.1255004,82.0
276,-1.5647774,0.13160706,0.45845032,2.893982,-0.07540283,3.2975464,82.0
277,-2.7142372,0.25982666,0.33369064,2.893982,-0.07540283,3.2975464,82.0
278,-2.7142372,0.25982666,0.33369064,2.2928834,0.25913087,3.531189,82.0
279,-2.9341707,-0.10368347,0.38025665,2.2928834,0.25913087,3.531189,82.0
280,-2.9341707,-0.10368347,0.38025665,2.1526978,0.3345337,3.5779176,82.0
281,-3.0735455,-0.70578766,0.26496124,2.1526978,0.3345337,3.5779176,82.0
282,-3.0735455,-0.70578766,0.26496124,2.1526978,0.3345337,3.5779176,83.0
283,-3.0735455,-0.70578766,0.26496124,2.0295045,0.4694092,3.4865844,83.0
284,-2.5255356,-1.1484756,0.49258423,2.0295045,0.4694092,3.4865844,83.0
285,-2.5255356,-1.1484756,0.49258423,2.0507448,0.50020754,3.3846314,83.0
286,-1.0819759,-1.9707108,0.7767067,2.0507448,0.50020754,3.3846314,83.0
287,-1.0819759,-1.9707108,0.7767067,2.0263183,0.5161377,3.1276245,83.0
288,0.6917553,-2.4738007,1.0260391,2.0263183,0.5161377,3.1276245,83.0
289,0.6917553,-2.4738007,1.0260391,1.9477295,0.4970215,2.806897,83.0
290,1.6939678,-2.1170425,1.1374207,1.9477295,0.4970215,2.806897,83.0
291,1.6939678,-2.1170425,1.1374207,1.6811646,0.5129517,2.3969605,83.0
292,0.9796257,-0.9272003,1.24469,1.6811646,0.5129517,2.3969605,83.0
293,0.9796257,-0.9272003,1.24469,1.0174073,0.5331299,2.085791,83.0
294,-0.6204138,0.318985,1.4834595,1.0174073,0.5331299,2.085791,83.0
295,-0.6204138,0.318985,1.4834595,0.48640138,0.4694092,1.7342652,83.0
296,-1.6096973,0.9492874,1.5036736,0.48640138,0.4694092,1.7342652,83.0
297,-1.6096973,0.9492874,1.5036736,0.12319336,0.42161867,1.2244996,83.0
298,-1.8666153,0.7645569,1.3038521,0.12319336,0.42161867,1.2244996,83.0
299,-1.8666153,0.7645569,1.3038521,-0.48640138,0.41418457,0.70198977,83.0
300,-1.2621031,-0.36327362,1.0116844,-0.48640138,0.41418457,0.70198977,83.0
301,-1.2621031,-0.36327362,1.0116844,-1.1331666,0.16673584,-0.009558106,83.0
302,-0.2191186,-1.8258591,0.71686935,-1.1331666,0.16673584,-0.009558106,83.0
303,-0.2191186,-1.8258591,0.71686935,-1.2223755,-0.004248047,-0.56392825,83.0
304,-0.28202105,-2.0676727,0.68494797,-1.2223755,-0.004248047,-0.56392825,83.0
305,-0.28202105,-2.0676727,0.68494797,-0.6446411,-0.29311523,-0.8995239,83.0
306,-1.6025944,-0.69947815,0.8502884,-0.6446411,-0.29311523,-0.8995239,83.0
307,-1.6025944,-0.69947815,0.8502884,-0.5957886,-0.42905274,-0.9260742,83.0
308,-2.2578688,0.8966675,0.7850647,-0.5957886,-0.42905274,-0.9260742,83.0
309,-2.2578688,0.8966675,0.7850647,-1.0545777,-0.41843262,-1.1629028,83.0
310,-1.0606289,1.1562347,0.3922348,-1.0545777,-0.41843262,-1.1629028,83.0
311,-1.0606289,1.1562347,0.3922348,-1.26698,-0.41949463,-1.6142578,83.0
312,0.9881177,0.05871582,-0.02570343,-1.26698,-0.41949463,-1.6142578,83.0
313,0.9881177,0.05871582,-0.02570343,-0.8315552,-0.4333008,-1.9413575,83.0
314,1.752738,-0.78476715,-0.38111877,-0.8315552,-0.4333008,-1.9413575,83.0
315,1.752738,-0.78476715,-0.38111877,-0.32603762,-0.4322388,-2.1293335,83.0
316,0.74636745,-0.25032043,-0.7282715,-0.32603762,-0.4322388,-2.1293335,83.0
317,0.74636745,-0.25032043,-0.7282715,-0.41312256,-0.2824951,-2.0741088,83.0
318,-0.70970535,1.0242996,-1.0455818,-0.41312256,-0.2824951,-2.0741088,83.0
319,-0.70970535,1.0242996,-1.0455818,-0.90695804,-0.13699952,-1.9944581,83.0
320,-1.5461946,1.8248367,-1.2635422,-0.90695804,-0.13699952,-1.9944581,83.0
321,-1.5461946,1.8248367,-1.2635422,-1.4740723,-0.016992187,-1.9721558,83.0
322,-1.6249561,1.7480927,-1.2922554,-1.4740723,-0.016992187,-1.9721558,83.0
323,-1.6249561,1.7480927,-1.2922554,-1.8202881,0.09133301,-2.0358765,83.0
324,-1.2389297,1.0725098,-1.2260628,-1.8202881,0.09133301,-2.0358765,83.0
325,-1.2389297,1.0725098,-1.2260628,-1.905249,0.17947999,-2.1070313,83.0
326,-0.5237975,0.2162323,-1.1568413,-1.905249,0.17947999,-2.1070313,83.0
327,-0.5237975,0.2162323,-1.1568413,-1.9243653,0.24213867,-2.166504,83.0
328,0.5508108,-0.3986969,-1.1289673,-1.9243653,0.24213867,-2.166504,83.0
329,0.5508108,-0.3986969,-1.1289673,-2.0156982,0.26975098,-2.167566,83.0
330,1.7625966,-0.64559174,-1.2014389,-2.0156982,0.26975098,-2.167566,83.0
331,1.7625966,-0.64559174,-1.2014389,-2.1176515,0.20921631,-2.1813722,83.0
332,2.8355656,-0.88384247,-1.2904739,-2.1176515,0.20921631,-2.1813722,83.0
333,2.8355656,-0.88384247,-1.2904739,-1.9126831,0.21346436,-2.1866822,83.0
334,3.5384111,-1.3210602,-1.0189743,-1.9126831,0.21346436,-2.1866822,83.0
335,3.5384111,-1.3210602,-1.0189743,-1.1894531,0.23045655,-2.1537597,83.0
336,3.5153484,-1.4166412,-0.2837715,-1.1894531,0.23045655,-2.1537597,83.0
337,3.5153484,-1.4166412,-0.2837715,-0.31860352,0.10938721,-2.1367676,83.0
338,2.9306135,-0.6611481,0.41557312,-0.31860352,0.10938721,-2.1367676,83.0
339,2.9306135,-0.6611481,0.41557312,-0.33134767,0.028674318,-2.0316284,83.0
340,2.3703938,0.44281006,0.63952637,-0.33134767,0.028674318,-2.0316284,83.0
341,2.3703938,0.44281006,0.63952637,-0.9260742,0.058410645,-1.8298463,83.0
342,1.9592056,0.93279266,0.34454346,-0.9260742,0.058410645,-1.8298463,83.0
343,1.9592056,0.93279266,0.34454346,-1.5133667,0.15080567,-1.5282348,83.0
344,1.2257385,0.79623413,-0.020812988,-1.5133667,0.15080567,-1.5282348,83.0
345,1.2257385,0.79623413,-0.020812988,-1.8351563,0.30373535,-1.0864381,83.0
346,0.4444456,0.46360016,-0.20845032,-1.8351563,0.30373535,-1.0864381,83.0
347,0.4444456,0.46360016,-0.20845032,-1.722583,0.32603762,-0.56605226,83.0
348,0.5543966,-0.19621277,-0.3598175,-1.722583,0.32603762,-0.56605226,83.0
349,0.5543966,-0.19621277,-0.3598175,-1.0630738,0.3090454,-0.21452637,83.0
350,0.82762337,-0.5693588,-0.5131378,-1.0630738,0.3090454,-0.21452637,83.0
351,0.82762337,-0.5693588,-0.5131378,0.19647217,0.22833252,-0.033984374,83.0
352,0.4117813,-0.19324493,-0.6791382,0.19647217,0.22833252,-0.033984374,83.0
353,0.4117813,-0.19324493,-0.6791382,1.3307008,0.008496094,0.5097656,83.0
354,0.2305851,0.6147766,-0.7758179,1.3307008,0.008496094,0.5097656,83.0
355,0.2305851,0.6147766,-0.7758179,2.1314576,-0.15186767,0.9345703,83.0
356,0.60784435,1.3613892,-0.692749,2.1314576,-0.15186767,0.9345703,83.0
357,0.60784435,1.3613892,-0.692749,2.080481,-0.18585205,1.2860962,83.0
358,0.9156456,1.6091537,-0.5155182,2.080481,-0.18585205,1.2860962,83.0
359,0.9156456,1.6091537,-0.5155182,1.5664673,-0.14974366,1.5675293,83.0
360,0.7077484,1.1769867,-0.29732895,1.5664673,-0.14974366,1.5675293,83.0
361,0.7077484,1.1769867,-0.29732895,1.3349488,-0.15823975,1.81073,83.0
362,2.6798248E-4,0.44996643,-0.08008957,1.3349488,-0.15823975,1.81073,83.0
363,2.6798248E-4,0.44996643,-0.08008957,1.3657471,-0.20603028,2.0114503,83.0
364,-0.8983574,0.052085876,0.087013245,1.3657471,-0.20603028,2.0114503,83.0
365,-0.8983574,0.052085876,0.087013245,1.3668091,-0.22833252,2.1452637,83.0
366,-1.8457365,0.13479614,0.19082642,1.3668091,-0.22833252,2.1452637,83.0
367,-1.8457365,0.13479614,0.19082642,1.2446778,-0.22408448,2.2089844,83.0
368,-2.854763,0.31977844,0.20050049,1.2446778,-0.22408448,2.2089844,83.0
369,-2.854763,0.31977844,0.20050049,1.0630738,-0.24320069,2.2291627,83.0
370,-3.6352272,0.2421875,0.23674393,1.0630738,-0.24320069,2.2291627,83.0
371,-3.6352272,0.2421875,0.23674393,1.2478638,-0.24744873,2.2291627,83.0
372,-3.7933502,-0.17944336,0.30958557,1.2478638,-0.24744873,2.2291627,83.0
373,-3.7933502,-0.17944336,0.30958557,1.9764038,-0.26868898,2.1643798,83.0
374,-3.3226194,-0.5469589,0.38514328,1.9764038,-0.26868898,2.1643798,83.0
375,-3.3226194,-0.5469589,0.38514328,2.8313234,-0.2824951,1.9615357,83.0
376,-2.2649803,-0.36253357,0.55700684,2.8313234,-0.2824951,1.9615357,83.0
377,-2.2649803,-0.36253357,0.55700684,3.444104,-0.21027832,1.6662964,83.0
378,-0.73023367,0.22788239,0.82795334,3.444104,-0.21027832,1.6662964,83.0
379,-0.73023367,0.22788239,0.82795334,3.617212,-0.06690674,1.442212,83.0
380,0.9259815,0.7206116,1.0937347,3.617212,-0.06690674,1.442212,83.0
381,0.9259815,0.7206116,1.0937347,3.259314,0.026550293,1.2436157,83.0
382,2.1893444,1.1152954,1.2439079,3.259314,0.026550293,1.2436157,83.0
383,2.1893444,1.1152954,1.2439079,2.447937,0.1178833,1.075818,83.0
384,2.4892197,1.5206146,1.2294617,2.447937,0.1178833,1.075818,83.0
385,2.4892197,1.5206146,1.2294617,1.5537232,0.16248779,0.88040775,83.0
386,1.7790222,1.8293228,1.0302963,1.5537232,0.16248779,0.88040775,83.0
387,1.7790222,1.8293228,1.0302963,0.901648,0.052038576,0.6064087,83.0
388,0.57836914,1.966507,0.83386993,0.901648,0.052038576,0.6064087,83.0
389,0.57836914,1.966507,0.83386993,0.6138428,-0.19222413,0.22727051,83.0
390,-0.34299278,1.6982574,0.9204254,0.6138428,-0.19222413,0.22727051,83.0
391,-0.34299278,1.6982574,0.9204254,0.35895997,-0.3355957,-0.21346436,83.0
392,-0.34299278,1.6982574,0.9204254,0.35895997,-0.3355957,-0.21346436,83.0
393,0.40401173,0.9082489,1.0917969,0.35895997,-0.3355957,-0.21346436,83.0
394,0.40401173,0.9082489,1.0917969,-0.36108398,-0.41737062,-0.5936646,83.0
395,2.0751991,0.04233551,0.81808853,-0.36108398,-0.41737062,-0.5936646,83.0
396,2.0751991,0.04233551,0.81808853,-1.3445069,-0.5161377,-1.1437867,83.0
397,1.8016758,-0.24079895,0.4172516,-1.3445069,-0.5161377,-1.1437867,83.0
398,1.8016758,-0.24079895,0.4172516,-1.5229248,-0.8506714,-1.5866455,83.0
399,0.26128674,-0.16889954,0.2738037,-1.5229248,-0.8506714,-1.5866455,83.0
400,0.26128674,-0.16889954,0.2738037,-1.0386475,-1.0991821,-1.7034668,83.0
401,0.03155136,0.07929993,0.17152023,-1.0386475,-1.0991821,-1.7034668,83.0
402,0.03155136,0.07929993,0.17152023,-0.97386473,-1.0598878,-1.9764038,83.0
403,0.6519375,0.56209564,-0.024772644,-0.97386473,-1.0598878,-1.9764038,83.0
404,0.6519375,0.56209564,-0.024772644,-1.449646,-0.9281983,-2.1484497,83.0
405,0.86663055,0.7925644,-0.36431122,-1.449646,-0.9281983,-2.1484497,83.0
406,0.86663055,0.7925644,-0.36431122,-1.5590333,-0.77102053,-2.173938,83.0
407,0.6742611,0.6519394,-0.86115265,-1.5590333,-0.77102053,-2.173938,83.0
408,0.6742611,0.6519394,-0.86115265,-1.3253907,-0.62764895,-2.2057984,83.0
409,0.2385788,0.6871033,-1.3190613,-1.3253907,-0.62764895,-2.2057984,83.0
410,0.2385788,0.6871033,-1.3190613,-1.5016845,-0.4619751,-2.1888063,83.0
411,-0.32560444,0.99025726,-1.5128403,-1.5016845,-0.4619751,-2.1888063,83.0
412,-0.32560444,0.99025726,-1.5128403,-2.061365,-0.3175415,-2.069861,83.0
413,-0.691453,0.9232483,-1.4319763,-2.061365,-0.3175415,-2.069861,83.0
414,-0.691453,0.9232483,-1.4319763,-2.5902467,-0.12531738,-2.0008302,83.0
415,-0.7645397,0.14363861,-1.2186279,-2.5902467,-0.12531738,-2.0008302,83.0
416,-0.7645397,0.14363861,-1.2186279,-2.7824707,0.078588866,-2.086853,83.0
417,-0.69020844,-0.74861145,-1.0327148,-2.7824707,0.078588866,-2.086853,83.0
418,-0.69020844,-0.74861145,-1.0327148,-2.5775025,0.17841797,-1.9976441,83.0
419,-0.4949894,-1.1473236,-0.8619156,-2.5775025,0.17841797,-1.9976441,83.0
420,-0.4949894,-1.1473236,-0.8619156,-2.0687988,0.17947999,-1.9211792,83.0
421,-0.19694424,-1.0035629,-0.6489296,-2.0687988,0.17947999,-1.9211792,83.0
422,-0.19694424,-1.0035629,-0.6489296,-1.9668458,0.30479738,-1.9732178,83.0
423,0.14876747,-0.6914749,-0.35790253,-1.9668458,0.30479738,-1.9732178,83.0
424,0.14876747,-0.6914749,-0.35790253,-2.0932252,0.42374268,-1.8563966,83.0
425,0.50470734,-0.75977325,-0.04397583,-2.0932252,0.42374268,-1.8563966,83.0
426,0.50470734,-0.75977325,-0.04397583,-2.1877441,0.54906005,-1.7332032,83.0
427,0.6696596,-1.0904312,0.16290283,-2.1877441,0.54906005,-1.7332032,83.0
428,0.6696596,-1.0904312,0.16290283,-2.0337524,0.5915405,-1.5271729,83.0
429,0.5092621,-1.2183075,0.22315979,-2.0337524,0.5915405,-1.5271729,83.0
430,0.5092621,-1.2183075,0.22315979,-1.5770874,0.52038574,-1.2414917,83.0
431,0.34245586,-1.1766968,0.2446518,-1.5770874,0.52038574,-1.2414917,83.0
432,0.34245586,-1.1766968,0.2446518,-1.0556396,0.4725952,-0.91757816,83.0
433,0.44592476,-1.1556015,0.284832,-1.0556396,0.4725952,-0.91757816,83.0
434,0.44592476,-1.1556015,0.284832,-0.38338622,0.40356445,-0.630835,83.0
435,0.54323864,-1.2554016,0.30103683,-0.38338622,0.40356445,-0.630835,83.0
436,0.54323864,-1.2554016,0.30103683,0.3345337,0.24320069,-0.36745605,83.0
437,0.3463583,-1.1749954,0.31147003,0.3345337,0.24320069,-0.36745605,83.0
438,0.3463583,-1.1749954,0.31147003,0.7327881,0.12213135,0.04460449,83.0
439,0.091612816,-0.6754379,0.32976532,0.7327881,0.12213135,0.04460449,83.0
440,0.091612816,-0.6754379,0.32976532,0.8219971,0.10407715,0.45666504,83.0
441,0.3515978,-0.23279572,0.2557907,0.8219971,0.10407715,0.45666504,83.0
442,0.3515978,-0.23279572,0.2557907,0.61915284,0.098767094,0.9165161,83.0
443,0.71271133,-0.04423523,0.104133606,0.61915284,0.098767094,0.9165161,83.0
444,0.71271133,-0.04423523,0.104133606,0.7508423,0.1731079,1.3370727,83.0
445,0.5373812,0.081100464,-0.13957977,0.7508423,0.1731079,1.3370727,83.0
446,0.5373812,0.081100464,-0.13957977,1.2818482,0.1529297,1.9445435,83.0
447,0.79360104,-0.15474701,-0.4765091,1.2818482,0.1529297,1.9445435,83.0
448,0.79360104,-0.15474701,-0.4765091,2.0326905,0.022302246,2.608301,83.0
449,2.2565851,-0.7033615,-0.67728806,2.0326905,0.022302246,2.608301,83.0
450,2.2565851,-0.7033615,-0.67728806,2.9088502,-0.15717773,3.1297486,83.0
451,3.843501,-0.9482727,-0.58332443,2.9088502,-0.15717773,3.1297486,83.0
452,3.843501,-0.9482727,-0.58332443,3.4058716,-0.19328614,3.5067627,83.0
453,4.239792,-0.6632843,-0.3029251,3.4058716,-0.19328614,3.5067627,83.0
454,4.239792,-0.6632843,-0.3029251,3.3856933,-0.07115479,3.8115602,83.0
455,3.2371826,-0.1860199,0.007904053,3.3856933,-0.07115479,3.8115602,83.0
456,3.2371826,-0.1860199,0.007904053,3.1817873,0.17841797,4.003784,83.0
457,1.2149658,0.08695984,0.33731842,3.1817873,0.17841797,4.003784,83.0
458,1.2149658,0.08695984,0.33731842,3.08302,0.3706421,4.152466,83.0
459,-1.1325684,-0.033081055,0.6572571,3.08302,0.3706421,4.152466,83.0
460,-1.1325684,-0.033081055,0.6572571,3.0065553,0.541626,4.248047,83.0
461,-3.0296755,-0.38084412,1.0048714,3.0065553,0.541626,4.248047,83.0
462,-3.0296755,-0.38084412,1.0048714,3.0575318,0.68074954,4.3043337,83.0
463,-4.250388,-0.6242523,1.2962952,3.0575318,0.68074954,4.3043337,83.0
464,-4.250388,-0.6242523,1.2962952,3.0277956,0.7657105,4.324512,83.0
465,-4.949774,-0.6973114,1.4132538,3.0277956,0.7657105,4.324512,83.0
466,-4.949774,-0.6973114,1.4132538,2.6667116,0.8591675,4.139722,83.0
467,-5.1221237,-0.6251831,1.4504242,2.6667116,0.8591675,4.139722,83.0
468,-5.1221237,-0.6251831,1.4504242,2.5721924,0.8294312,4.1014895,83.0
469,-4.8782654,-0.53544617,1.4713135,2.5721924,0.8294312,4.1014895,83.0
470,-4.8782654,-0.53544617,1.4713135,2.7697265,0.7805786,3.8614748,83.0
471,-4.482812,-0.46331024,1.4408073,2.7697265,0.7805786,3.8614748,83.0
472,-4.482812,-0.46331024,1.4408073,2.5148437,0.7848267,3.3655152,83.0
473,-3.912385,-0.28871155,1.3725662,2.5148437,0.7848267,3.3655152,83.0
474,-3.912385,-0.28871155,1.3725662,2.0560548,0.6701294,2.9258423,83.0
475,-2.8439708,-0.004951477,1.2608223,2.0560548,0.6701294,2.9258423,83.0
476,-2.8439708,-0.004951477,1.2608223,1.6046997,0.46622315,2.4521852,83.0
477,-1.1579528,0.41529846,1.2983818,1.6046997,0.46622315,2.4521852,83.0
478,-1.1579528,0.41529846,1.2983818,1.532483,0.5363159,1.8022339,83.0
479,0.27704334,0.88503265,1.277832,1.532483,0.5363159,1.8022339,83.0
480,0.27704334,0.88503265,1.277832,1.3476928,0.5501221,1.2563599,83.0
481,0.115018845,1.3136978,0.89178467,1.3476928,0.5501221,1.2563599,83.0
482,0.115018845,1.3136978,0.89178467,0.5936646,0.62552494,1.075818,83.0
483,-1.5273819,1.6171112,0.60988617,0.5936646,0.62552494,1.075818,83.0
484,-1.5273819,1.6171112,0.60988617,0.18903808,0.4715332,0.9228882,83.0
485,-3.2338076,1.7797623,0.78523636,0.18903808,0.4715332,0.9228882,83.0
486,-3.2338076,1.7797623,0.78523636,0.4970215,0.16142578,0.8050049,83.0
487,-3.4749246,1.7451706,1.2456932,0.4970215,0.16142578,0.8050049,83.0
488,-3.4749246,1.7451706,1.2456932,0.5894165,-0.13275146,0.27506104,83.0
489,-1.7964072,1.1591034,1.6491432,0.5894165,-0.13275146,0.27506104,83.0
490,-1.7964072,1.1591034,1.6491432,-0.38338622,-0.3419678,-0.26975098,83.0
491,-0.025516987,0.22751617,1.828579,-0.38338622,-0.3419678,-0.26975098,83.0
492,-0.025516987,0.22751617,1.828579,-0.38338622,-0.3419678,-0.26975098,83.0
493,-0.025516987,0.22751617,1.828579,-1.269104,-0.54693604,-0.73809814,83.0
494,-0.106107235,-0.565094,1.7936859,-1.269104,-0.54693604,-0.73809814,83.0
495,-0.106107235,-0.565094,1.7936859,-1.8648926,-0.7858887,-1.1522827,83.0
496,-1.1168318,-1.178688,1.5343971,-1.8648926,-0.7858887,-1.1522827,83.0
497,-1.1168318,-1.178688,1.5343971,-1.8171021,-1.1108643,-1.5537232,83.0
498,-1.2653403,-1.4087296,1.2112579,-1.8171021,-1.1108643,-1.5537232,83.0
499,-1.2653403,-1.4087296,1.2112579,-1.3816773,-1.4209718,-2.085791,83.0
500,-0.3915813,-1.0761185,0.9717407,-1.3816773,-1.4209718,-2.085791,83.0
501,-0.3915813,-1.0761185,0.9717407,-1.2563599,-1.6928467,-2.6348512,83.0
502,0.9207804,-0.5003586,0.6906738,-1.2563599,-1.6928467,-2.6348512,83.0
503,0.9207804,-0.5003586,0.6906738,-1.6004517,-1.7767457,-3.153113,83.0
504,2.3037262,-0.27658844,0.3036003,-1.6004517,-1.7767457,-3.153113,83.0
505,2.3037262,-0.27658844,0.3036003,-1.8914429,-1.7087768,-3.7276611,83.0
506,3.3103151,-0.4558258,-0.17202759,-1.8914429,-1.7087768,-3.7276611,83.0
507,3.3103151,-0.4558258,-0.17202759,-2.0624268,-1.5866455,-4.156714,83.0
508,3.679563,-0.3990097,-0.78095627,-2.0624268,-1.5866455,-4.156714,83.0
509,3.679563,-0.3990097,-0.78095627,-2.6210449,-1.3307008,-4.3903565,83.0
510,3.6692848,0.17082977,-1.4642563,-2.6210449,-1.3307008,-4.3903565,83.0
511,3.6692848,0.17082977,-1.4642563,-3.8200562,-0.84536135,-4.4901857,83.0
512,3.2655792,0.48325348,-1.9204407,-3.8200562,-0.84536135,-4.4901857,83.0
513,3.2655792,0.48325348,-1.9204407,-5.1932373,-0.1901001,-4.7684326,83.0
514,2.8433475,0.30835724,-2.6117058,-5.1932373,-0.1901001,-4.7684326,83.0
515,2.8433475,0.30835724,-2.6117058,-5.0095096,0.31116945,-4.7684326,83.0
516,2.1311598,-0.35486603,-2.9457626,-5.0095096,0.31116945,-4.7684326,83.0
517,2.1311598,-0.35486603,-2.9457626,-2.3693483,0.30267334,-4.2852173,83.0
518,1.9717493,-0.6846237,-2.813984,-2.3693483,0.30267334,-4.2852173,83.0
519,1.9717493,-0.6846237,-2.813984,-1.7300171,0.3812622,-4.2214966,83.0
520,10253.703,-5349.0703,2748.6763,-1.7300171,0.3812622,-4.2214966,83.0
521,10253.703,-5349.0703,2748.6763,-1.8457764,0.54906005,-3.2412598,83.0
522,-2047.6615,1069.7844,-551.4663,-1.8457764,0.54906005,-3.2412598,83.0
523,-2047.6615,1069.7844,-551.4663,-2.0061402,0.6531372,-2.5594482,83.0
524,-1637.9037,855.4234,-440.68213,-2.0061402,0.6531372,-2.5594482,83.0
525,-1637.9037,855.4234,-440.68213,-1.7969239,0.67225343,-2.3077514,83.0
526,-1310.438,683.62665,-351.98798,-1.7969239,0.67225343,-2.3077514,83.0
527,-1310.438,683.62665,-351.98798,-1.364685,0.6796875,-2.1303957,83.0
528,-1048.6807,545.822,-281.34482,-1.364685,0.6796875,-2.1303957,83.0
529,-1048.6807,545.822,-281.34482,-1.171399,0.7805786,-1.8139161,83.0
530,-839.4913,435.63052,-225.36954,-1.171399,0.7805786,-1.8139161,83.0
531,-839.4913,435.63052,-225.36954,-0.79226077,0.8379273,-1.3731812,83.0
532,-672.2982,348.14075,-180.85532,-0.79226077,0.8379273,-1.3731812,83.0
533,-672.2982,348.14075,-180.85532,0.019116212,0.725354,-0.86766356,83.0
534,-538.2697,278.63364,-145.1901,0.019116212,0.725354,-0.86766356,83.0
535,-538.2697,278.63364,-145.1901,0.6860596,0.58198243,-0.34833986,83.0
536,-430.1076,223.06766,-116.38776,0.6860596,0.58198243,-0.34833986,83.0
537,-430.1076,223.06766,-116.38776,1.3073364,0.3717041,0.44604492,83.0
538,-343.3962,179.00655,-92.92586,1.3073364,0.3717041,0.44604492,83.0
539,-343.3962,179.00655,-92.92586,2.0826051,0.25063476,0.95368654,83.0
540,-275.13226,144.66391,-74.10904,2.0826051,0.25063476,0.95368654,83.0
541,-275.13226,144.66391,-74.10904,2.4787354,0.2888672,1.3763672,83.0
542,-220.65065,117.27963,-59.422203,2.4787354,0.2888672,1.3763672,83.0
543,-220.65065,117.27963,-59.422203,2.2111084,0.31329346,2.0156982,83.0
544,-175.8523,94.28656,-47.8431,2.2111084,0.31329346,2.0156982,83.0
545,-175.8523,94.28656,-47.8431,2.0369384,0.25913087,2.4171388,83.0
546,-139.36247,74.86714,-38.374275,2.0369384,0.25913087,2.4171388,83.0
547,-139.36247,74.86714,-38.374275,2.5838745,0.1444336,2.8398194,83.0
548,-110.505486,59.295593,-30.535736,2.5838745,0.1444336,2.8398194,83.0
549,-110.505486,59.295593,-30.535736,3.158423,0.06265869,3.2497559,83.0
550,-88.101585,47.590065,-24.190659,3.158423,0.06265869,3.2497559,83.0
551,-88.101585,47.590065,-24.190659,3.2752442,0.12531738,3.4717164,83.0
552,-70.988655,38.87526,-19.058212,3.2752442,0.12531738,3.4717164,83.0
553,-70.988655,38.87526,-19.058212,2.991687,0.3154175,3.5906618,83.0
554,-57.999496,31.747177,-14.872398,2.991687,0.3154175,3.5906618,83.0
555,-57.999496,31.747177,-14.872398,2.6762695,0.48427734,3.7435913,83.0
556,-47.75143,25.32679,-11.581429,2.6762695,0.48427734,3.7435913,83.0
557,-47.75143,25.32679,-11.581429,2.5881226,0.5798584,3.885901,83.0
558,-39.12458,19.623238,-9.114571,2.5881226,0.5798584,3.885901,83.0
559,-39.12458,19.623238,-9.114571,2.7644165,0.6244629,3.9496217,83.0
560,-31.672173,15.012466,-7.2180595,2.7644165,0.6244629,3.9496217,83.0
561,-31.672173,15.012466,-7.2180595,3.0309815,0.62764895,3.9230714,83.0
562,-25.345783,11.638847,-5.5881195,3.0309815,0.62764895,3.9230714,83.0
563,-25.345783,11.638847,-5.5881195,3.2784302,0.62127686,3.8317382,83.0
564,-20.125553,9.29351,-4.1763077,3.2784302,0.62127686,3.8317382,83.0
565,-20.125553,9.29351,-4.1763077,3.349585,0.67225343,3.6596925,83.0
566,-16.181326,7.7332306,-3.002327,3.349585,0.67225343,3.6596925,83.0
567,-16.181326,7.7332306,-3.002327,3.1095703,0.8400513,3.4695923,83.0
568,-13.616461,6.7431564,-2.0235786,3.1095703,0.8400513,3.4695923,83.0
569,-13.616461,6.7431564,-2.0235786,2.712378,1.0588257,3.435608,83.0
570,-11.817106,6.0299225,-1.3677521,2.712378,1.0588257,3.435608,83.0
571,-11.817106,6.0299225,-1.3677521,2.2769532,1.1416626,3.4749024,83.0
572,-9.839306,5.663803,-1.2086678,2.2769532,1.1416626,3.4749024,83.0
573,-9.839306,5.663803,-1.2086678,1.6843506,1.0683838,3.2115235,83.0
574,-7.629855,5.7722473,-1.1151772,1.6843506,1.0683838,3.2115235,83.0
575,-7.629855,5.7722473,-1.1151772,0.81031495,1.1363525,2.799463,83.0
576,-6.0696564,5.6500244,-0.6850014,0.81031495,1.1363525,2.799463,83.0
577,-6.0696564,5.6500244,-0.6850014,-0.04885254,1.1055542,2.2302246,83.0
578,-6.091235,4.5430527,-0.40555573,-0.04885254,1.1055542,2.2302246,83.0
579,-6.091235,4.5430527,-0.40555573,-0.7699585,0.95581055,2.162256,83.0
580,-7.191799,2.9169235,-0.50735474,-0.7699585,0.95581055,2.162256,83.0
581,-7.191799,2.9169235,-0.50735474,-0.9674927,0.35046387,1.8956909,83.0
582,-7.4187717,1.48143,-0.34074783,-0.9674927,0.35046387,1.8956909,83.0
583,-7.4187717,1.48143,-0.34074783,-0.47471926,-0.2347046,1.1013062,83.0
584,-5.7277665,0.40026855,0.46122742,-0.47471926,-0.2347046,1.1013062,83.0
585,-5.7277665,0.40026855,0.46122742,0.26444092,-0.7880127,0.3355957,83.0
586,-3.4180412,0.059303284,1.4767838,0.26444092,-0.7880127,0.3355957,83.0
587,-3.4180412,0.059303284,1.4767838,0.5586182,-1.2361816,-0.13381349,83.0
588,-2.3010225,0.52760315,2.1541061,0.5586182,-1.2361816,-0.13381349,83.0
589,-2.3010225,0.52760315,2.1541061,0.19753419,-1.6206299,-0.35895997,83.0
590,-2.0971413,0.9796066,2.202362,0.19753419,-1.6206299,-0.35895997,83.0
591,-2.0971413,0.9796066,2.202362,0.020178223,-1.8776368,-0.6701294,83.0
592,-2.0971413,0.9796066,2.202362,0.020178223,-1.8776368,-0.6701294,84.0
593,-1.4704013,1.0347366,1.6902351,0.020178223,-1.8776368,-0.6701294,84.0
594,-1.4704013,1.0347366,1.6902351,-0.08920898,-2.0252564,-1.0290893,84.0
595,-0.4271021,1.002594,0.8761368,-0.08920898,-2.0252564,-1.0290893,84.0
596,-0.4271021,1.002594,0.8761368,-0.4439209,-2.0518067,-1.26167,84.0
597,0.26725388,0.8162384,0.1257782,-0.4439209,-2.0518067,-1.26167,84.0
598,0.26725388,0.8162384,0.1257782,-0.8092529,-2.0040162,-1.5016845,84.0
599,0.49900818,0.25814056,-0.47600174,-0.8092529,-2.0040162,-1.5016845,84.0
600,0.49900818,0.25814056,-0.47600174,-0.9345703,-1.9700317,-1.812854,84.0
601,0.61934805,-0.36463165,-0.9958534,-0.9345703,-1.9700317,-1.812854,84.0
602,0.61934805,-0.36463165,-0.9958534,-0.99510497,-1.9275513,-2.086853,84.0
603,0.8724923,-0.66726685,-1.2127724,-0.99510497,-1.9275513,-2.086853,84.0
604,0.8724923,-0.66726685,-1.2127724,-0.9122681,-1.8139161,-2.3778443,84.0
605,1.3056965,-0.63726807,-0.93569946,-0.9122681,-1.8139161,-2.3778443,84.0
606,1.3056965,-0.63726807,-0.93569946,-0.77102053,-1.6652344,-2.633789,84.0
607,1.7147598,-0.45680237,-0.3596077,-0.77102053,-1.6652344,-2.633789,84.0
608,1.7147598,-0.45680237,-0.3596077,-0.5809204,-1.5749635,-2.8568115,84.0
609,1.7893248,-0.1854477,0.25113297,-0.5809204,-1.5749635,-2.8568115,84.0
610,1.7893248,-0.1854477,0.25113297,-0.66269535,-1.5611572,-2.974695,84.0
611,1.6003685,0.047821045,0.82390213,-0.66269535,-1.5611572,-2.974695,84.0
612,1.6003685,0.047821045,0.82390213,-0.7678345,-1.6429322,-3.070276,84.0
613,1.6864104,0.0016479492,1.4672623,-0.7678345,-1.6429322,-3.070276,84.0
614,1.6864104,0.0016479492,1.4672623,-0.8782837,-1.5622193,-3.1626709,84.0
615,2.384883,-0.30106354,1.9182549,-0.8782837,-1.5622193,-3.1626709,84.0
616,2.384883,-0.30106354,1.9182549,-1.629126,-1.080066,-3.2168336,84.0
617,3.1375942,-0.75839233,1.616951,-1.629126,-1.080066,-3.2168336,84.0
618,3.1375942,-0.75839233,1.616951,-2.704944,-0.32922363,-3.2890503,84.0
619,3.344572,-1.376854,0.48361206,-2.704944,-0.32922363,-3.2890503,84.0
620,3.344572,-1.376854,0.48361206,-3.2338257,0.28674316,-3.0543458,84.0
621,3.0566025,-2.0227585,-0.838768,-3.2338257,0.28674316,-3.0543458,84.0
622,3.0566025,-2.0227585,-0.838768,-2.7389283,0.58410645,-2.6433473,84.0
623,2.4128847,-2.4585648,-1.743267,-2.7389283,0.58410645,-2.6433473,84.0
624,2.4128847,-2.4585648,-1.743267,-1.8489624,0.5798584,-1.8755127,84.0
625,1.3109102,-2.368431,-2.0691032,-1.8489624,0.5798584,-1.8755127,84.0
626,1.3109102,-2.368431,-2.0691032,-0.76358646,0.34090576,-0.87403566,84.0
627,0.17828178,-1.564827,-1.7552223,-0.76358646,0.34090576,-0.87403566,84.0
628,0.17828178,-1.564827,-1.7552223,0.30267334,0.115759276,-0.28461915,84.0
629,-0.04311657,-0.5808029,-1.2246742,0.30267334,0.115759276,-0.28461915,84.0
630,-0.04311657,-0.5808029,-1.2246742,0.9398804,0.029736329,-0.078588866,84.0
631,0.7862587,-0.5009308,-1.0360031,0.9398804,0.029736329,-0.078588866,84.0
632,0.7862587,-0.5009308,-1.0360031,0.9526245,0.095581055,0.4343628,84.0
633,0.94186115,-0.73604584,-1.0953941,0.9526245,0.095581055,0.4343628,84.0
634,0.94186115,-0.73604584,-1.0953941,1.2191895,0.26550293,0.6903076,84.0
635,-0.47706604,0.008720398,-1.2398148,1.2191895,0.26550293,0.6903076,84.0
636,-0.47706604,0.008720398,-1.2398148,1.8563966,0.24001466,1.3200806,84.0
637,-1.3209105,1.1696243,-1.478096,1.8563966,0.24001466,1.3200806,84.0
638,-1.3209105,1.1696243,-1.478096,2.4659913,0.10513916,1.8330323,84.0
639,-0.3215475,1.7117157,-1.6360168,2.4659913,0.10513916,1.8330323,84.0
640,-0.3215475,1.7117157,-1.6360168,2.9205322,0.015930176,2.095349,84.0
641,1.0802002,1.6838226,-1.4874763,2.9205322,0.015930176,2.095349,84.0
642,1.0802002,1.6838226,-1.4874763,3.2773683,0.014868164,2.3799684,84.0
643,1.52174,1.5236359,-1.0822525,3.2773683,0.014868164,2.3799684,84.0
644,1.52174,1.5236359,-1.0822525,3.43136,0.004248047,2.6380372,84.0
645,1.0642786,1.4974899,-0.52968216,3.43136,0.004248047,2.6380372,84.0
646,1.0642786,1.4974899,-0.52968216,3.3602052,0.027612304,2.792029,84.0
647,0.13490677,1.6667786,0.051193237,3.3602052,0.027612304,2.792029,84.0
648,0.13490677,1.6667786,0.051193237,3.08833,0.15823975,2.895044,84.0
649,-1.1043434,1.8997955,0.46726227,3.08833,0.15823975,2.895044,84.0
650,-1.1043434,1.8997955,0.46726227,2.443689,0.35683593,2.9438965,84.0
651,-2.5191193,1.887085,0.63666534,2.443689,0.35683593,2.9438965,84.0
652,-2.5191193,1.887085,0.63666534,1.7947998,0.4598511,3.0320435,84.0
653,-3.6931152,1.4607162,0.57478714,1.7947998,0.4598511,3.0320435,84.0
654,-3.6931152,1.4607162,0.57478714,1.5632813,0.41312256,3.0723999,84.0
655,-4.186902,0.815567,0.39738083,1.5632813,0.41312256,3.0723999,84.0
656,-4.186902,0.815567,0.39738083,1.7650635,0.3069214,3.0256715,84.0
657,-3.8858862,0.36777496,0.20029068,1.7650635,0.3069214,3.0256715,84.0
658,-3.8858862,0.36777496,0.20029068,1.902063,0.2166504,2.8599975,84.0
659,-2.802105,0.3371277,0.12883377,1.902063,0.2166504,2.8599975,84.0
660,-2.802105,0.3371277,0.12883377,1.8309082,0.22302246,2.5828125,84.0
661,-1.0903416,0.47483826,0.20990372,1.8309082,0.22302246,2.5828125,84.0
662,-1.0903416,0.47483826,0.20990372,1.6238159,0.34090576,2.2960694,84.0
663,0.87861776,0.57520294,0.2751007,1.6238159,0.34090576,2.2960694,84.0
664,0.87861776,0.57520294,0.2751007,1.355127,0.40462646,1.9795898,84.0
665,2.5862684,0.7450485,0.2205925,1.355127,0.40462646,1.9795898,84.0
666,2.5862684,0.7450485,0.2205925,1.0545777,0.42374268,1.7406372,84.0
667,2.8818693,1.1702576,0.118377686,1.0545777,0.42374268,1.7406372,84.0
668,2.8818693,1.1702576,0.118377686,0.70198977,0.452417,1.4358399,84.0
669,1.4333763,1.7583237,0.23187256,0.70198977,0.452417,1.4358399,84.0
670,1.4333763,1.7583237,0.23187256,0.3525879,0.28568116,1.1034302,84.0
671,-0.21169758,2.016327,0.55983734,0.3525879,0.28568116,1.1034302,84.0
672,-0.21169758,2.016327,0.55983734,0.015930176,0.098767094,0.65844727,84.0
673,-0.98654556,1.7368317,0.9467697,0.015930176,0.098767094,0.65844727,84.0
674,-0.98654556,1.7368317,0.9467697,-0.44073486,-0.04248047,0.16036378,84.0
675,-0.87743187,0.98122406,1.3319778,-0.44073486,-0.04248047,0.16036378,84.0
676,-0.87743187,0.98122406,1.3319778,-0.9547486,-0.18903808,-0.46728516,84.0
677,0.40668488,-0.21798706,1.3045578,-0.9547486,-0.18903808,-0.46728516,84.0
678,0.40668488,-0.21798706,1.3045578,-1.531421,-0.34727785,-1.0004151,84.0
679,1.3493471,-1.2640152,0.67646027,-1.531421,-0.34727785,-1.0004151,84.0
680,1.3493471,-1.2640152,0.67646027,-2.0443726,-0.34833986,-1.454956,84.0
681,0.16049576,-1.3625793,0.04723358,-2.0443726,-0.34833986,-1.454956,84.0
682,0.16049576,-1.3625793,0.04723358,-2.3024414,-0.5692383,-1.8022339,84.0
683,-1.483285,-0.7986679,-0.17621613,-2.3024414,-0.5692383,-1.8022339,84.0
684,-1.483285,-0.7986679,-0.17621613,-2.3056276,-0.6690674,-1.9944581,84.0
685,-1.3408632,-0.41692352,-0.15106583,-2.3056276,-0.6690674,-1.9944581,84.0
686,-1.3408632,-0.41692352,-0.15106583,-2.061365,-0.67437744,-2.3077514,84.0
687,0.11822796,-0.6453552,-0.13179016,-2.061365,-0.67437744,-2.3077514,84.0
688,0.11822796,-0.6453552,-0.13179016,-1.8309082,-0.6616333,-2.5934327,84.0
689,1.2229757,-1.1877823,-0.15225983,-1.8309082,-0.6616333,-2.5934327,84.0
690,1.2229757,-1.1877823,-0.15225983,-1.627002,-0.6180908,-2.8249512,84.0
691,1.3489008,-1.584671,-0.22576523,-1.627002,-0.6180908,-2.8249512,84.0
692,1.3489008,-1.584671,-0.22576523,-1.3838013,-0.55755615,-2.9332764,84.0
693,0.8499584,-1.5018768,-0.31393814,-1.3838013,-0.55755615,-2.9332764,84.0
694,0.8499584,-1.5018768,-0.31393814,-1.1246704,-0.4609131,-2.975757,84.0
695,0.16057014,-0.8568039,-0.31074524,-1.1246704,-0.4609131,-2.975757,84.0
696,0.16057014,-0.8568039,-0.31074524,-1.0577637,-0.3058594,-2.9226563,84.0
697,-0.4997053,0.01726532,-0.22235107,-1.0577637,-0.3058594,-2.9226563,84.0
698,-0.4997053,0.01726532,-0.22235107,-1.3158325,-0.11151123,-2.9322145,84.0
699,-1.0057211,0.5868225,-0.15956116,-1.3158325,-0.11151123,-2.9322145,84.0
700,-1.0057211,0.5868225,-0.15956116,-1.6578003,0.13699952,-3.0065553,84.0
701,-1.0057211,0.5868225,-0.15956116,-1.6578003,0.13699952,-3.0065553,84.0
702,-1.1354237,0.5595169,-0.16027832,-1.6578003,0.13699952,-3.0065553,84.0
703,-1.1354237,0.5595169,-0.16027832,-1.8585205,0.35046387,-3.0235474,84.0
704,-0.7047014,0.098098755,-0.18479156,-1.8585205,0.35046387,-3.0235474,84.0
705,-0.7047014,0.098098755,-0.18479156,-1.9402955,0.58623046,-3.0267334,84.0
706,0.05776024,-0.33602142,-0.21665955,-1.9402955,0.58623046,-3.0267334,84.0
707,0.05776024,-0.33602142,-0.21665955,-2.092163,0.8007569,-2.9332764,84.0
708,0.8762989,-0.62267303,-0.21799088,-2.092163,0.8007569,-2.9332764,84.0
709,0.8762989,-0.62267303,-0.21799088,-2.2843874,0.9505005,-2.6720216,84.0
710,1.7008314,-1.0349197,-0.15021133,-2.2843874,0.9505005,-2.6720216,84.0
711,1.7008314,-1.0349197,-0.15021133,-2.2281005,1.0142212,-2.2376587,84.0
712,2.158041,-1.4661789,-0.04730606,-2.2281005,1.0142212,-2.2376587,84.0
713,2.158041,-1.4661789,-0.04730606,-1.8617066,1.0301514,-1.8181641,84.0
714,1.650322,-1.5072327,0.041610718,-1.8617066,1.0301514,-1.8181641,84.0
715,1.650322,-1.5072327,0.041610718,-1.5016845,0.8581055,-1.3338867,84.0
716,0.64664936,-1.2383194,0.19968414,-1.5016845,0.8581055,-1.3338867,84.0
717,0.64664936,-1.2383194,0.19968414,-0.9791748,0.6074707,-0.77526855,84.0
718,0.12625504,-1.0746765,0.34303665,-0.9791748,0.6074707,-0.77526855,84.0
719,0.12625504,-1.0746765,0.34303665,-0.32285157,0.39613038,-0.40037844,84.0
720,-0.007285118,-1.0147324,0.22689438,-0.32285157,0.39613038,-0.40037844,84.0
721,-0.007285118,-1.0147324,0.22689438,-0.0010620117,0.18372802,-0.026550293,84.0
722,-0.185503,-0.722702,-0.074272156,-0.0010620117,0.18372802,-0.026550293,84.0
723,-0.185503,-0.722702,-0.074272156,0.24213867,-0.021240234,0.4619751,84.0
724,0.070640564,-0.4486847,-0.37643433,0.24213867,-0.021240234,0.4619751,84.0
725,0.070640564,-0.4486847,-0.37643433,0.50445557,-0.29736328,1.0375855,84.0
726,0.5781059,-0.19669342,-0.51190186,0.50445557,-0.29736328,1.0375855,84.0
727,0.5781059,-0.19669342,-0.51190186,1.2117554,-0.45029297,1.4655762,84.0
728,0.17762184,0.6728592,-0.5386734,1.2117554,-0.45029297,1.4655762,84.0
729,0.17762184,0.6728592,-0.5386734,2.163318,-0.5586182,1.9116211,84.0
730,-0.48121834,1.5865631,-0.73781204,2.163318,-0.5586182,1.9116211,84.0
731,-0.48121834,1.5865631,-0.73781204,2.5148437,-0.7104859,2.5095336,84.0
732,0.25016975,1.5195312,-0.9785576,2.5148437,-0.7104859,2.5095336,84.0
733,0.25016975,1.5195312,-0.9785576,2.797339,-0.85704345,2.899292,84.0
734,1.9394426,0.7195358,-0.99290466,2.797339,-0.85704345,2.899292,84.0
735,1.9394426,0.7195358,-0.99290466,3.256128,-0.83049315,3.1828492,84.0
736,2.9964638,0.16267395,-0.85037994,3.256128,-0.83049315,3.1828492,84.0
737,2.9964638,0.16267395,-0.85037994,3.528003,-0.814563,3.4005616,84.0
738,2.8553982,0.22758484,-0.7126274,3.528003,-0.814563,3.4005616,84.0
739,2.8553982,0.22758484,-0.7126274,3.270996,-0.6860596,3.5099487,84.0
740,1.7899218,0.65068054,-0.52457047,3.270996,-0.6860596,3.5099487,84.0
741,1.7899218,0.65068054,-0.52457047,2.6093628,-0.55755615,3.4993286,84.0
742,0.35256767,0.90922546,-0.21614075,2.6093628,-0.55755615,3.4993286,84.0
743,0.35256767,0.90922546,-0.21614075,2.2461548,-0.49383545,3.6554444,84.0
744,-1.0390148,0.7698593,0.09465408,2.2461548,-0.49383545,3.6554444,84.0
745,-1.0390148,0.7698593,0.09465408,2.4075806,-0.4258667,3.7743897,84.0
746,-2.2055283,0.5556717,0.24918365,2.4075806,-0.4258667,3.7743897,84.0
747,-2.2055283,0.5556717,0.24918365,2.4691772,-0.30373535,3.9634278,84.0
748,-3.0124454,0.45731354,0.26360703,2.4691772,-0.30373535,3.9634278,84.0
749,-3.0124454,0.45731354,0.26360703,1.9615357,-0.10938721,4.0069704,84.0
750,-3.3305502,0.29885864,0.28547287,1.9615357,-0.10938721,4.0069704,84.0
751,-3.3305502,0.29885864,0.28547287,1.2191895,0.011682129,4.1121097,84.0
752,-3.091649,-0.048362732,0.3181839,1.2191895,0.011682129,4.1121097,84.0
753,-3.091649,-0.048362732,0.3181839,0.9430664,0.07540283,4.1482177,84.0
754,-2.402213,-0.57982635,0.23273468,0.9430664,0.07540283,4.1482177,84.0
755,-2.402213,-0.57982635,0.23273468,0.8230591,0.20709229,4.049451,84.0
756,-1.9066582,-0.84443665,0.09712219,0.8230591,0.20709229,4.049451,84.0
757,-1.9066582,-0.84443665,0.09712219,0.83474123,0.19647217,3.9602418,84.0
758,-0.73697186,-1.0398407,-0.60902405,0.83474123,0.19647217,3.9602418,84.0
759,-0.73697186,-1.0398407,-0.60902405,0.36108398,0.070092775,3.335779,84.0
760,-0.6444969,-0.97811127,-0.61515045,0.36108398,0.070092775,3.335779,84.0
761,-0.6444969,-0.97811127,-0.61515045,0.14761963,0.0010620117,3.0341675,84.0
762,-0.7449064,-1.0741348,-0.08053589,0.14761963,0.0010620117,3.0341675,84.0
763,-0.7449064,-1.0741348,-0.08053589,-0.081774905,-0.107263185,2.2886353,84.0
764,-0.8410177,-1.2471771,0.26895905,-0.081774905,-0.107263185,2.2886353,84.0
765,-0.8410177,-1.2471771,0.26895905,-0.04460449,-0.124255374,1.991272,84.0
766,-0.82813644,-1.3149261,0.94095993,-0.04460449,-0.124255374,1.991272,84.0
767,-0.82813644,-1.3149261,0.94095993,-0.2824951,-0.025488282,1.0821899,84.0
768,-0.92118835,-0.8210983,0.8195038,-0.2824951,-0.025488282,1.0821899,84.0
769,-0.92118835,-0.8210983,0.8195038,-0.54906005,0.015930176,0.84111327,84.0
770,-1.6672363,0.3123932,0.99975586,-0.54906005,0.015930176,0.84111327,84.0
771,-1.6672363,0.3123932,0.99975586,-1.5239868,-0.025488282,-0.16036378,84.0
772,-1.2588744,0.03212738,0.66612625,-1.5239868,-0.025488282,-0.16036378,84.0
773,-1.2588744,0.03212738,0.66612625,-1.7756836,-0.05628662,-0.6425171,84.0
774,-0.24829865,-1.646759,-0.052474976,-1.7756836,-0.05628662,-0.6425171,84.0
775,-0.24829865,-1.646759,-0.052474976,-1.7087768,0.043542482,-1.4921265,84.0
776,-0.1847229,-1.822403,-0.20824051,-1.7087768,0.043542482,-1.4921265,84.0
777,-0.1847229,-1.822403,-0.20824051,-1.2807862,-0.047790527,-1.7077149,84.0
778,-1.1322999,-1.6414566,0.4071846,-1.2807862,-0.047790527,-1.7077149,84.0
779,-1.1322999,-1.6414566,0.4071846,-0.37595215,-0.270813,-2.256775,84.0
780,-0.6353073,-0.91734314,0.537735,-0.37595215,-0.270813,-2.256775,84.0
781,-0.6353073,-0.91734314,0.537735,-0.3175415,-0.26868898,-2.5074098,84.0
782,0.84370756,-0.063949585,0.6443596,-0.3175415,-0.26868898,-2.5074098,84.0
783,0.84370756,-0.063949585,0.6443596,-0.5055176,-0.24213867,-3.1817873,84.0
784,2.6789336,0.13674164,0.39567566,-0.5055176,-0.24213867,-3.1817873,84.0
785,2.6789336,0.13674164,0.39567566,-0.90695804,-0.13487549,-3.821118,84.0
786,3.500471,-0.051078796,0.1545639,-0.90695804,-0.13487549,-3.821118,84.0
787,3.500471,-0.051078796,0.1545639,-1.2552979,0.098767094,-4.171582,84.0
788,2.926817,-0.051368713,0.06797409,-1.2552979,0.098767094,-4.171582,84.0
789,2.926817,-0.051368713,0.06797409,-1.4050416,0.3440918,-4.257605,84.0
790,1.140111,0.53466034,-0.07634735,-1.4050416,0.3440918,-4.257605,84.0
791,1.140111,0.53466034,-0.07634735,-1.4326538,0.59897465,-4.2873416,84.0
792,0.6565466,0.99903107,-0.18443298,-1.4326538,0.59897465,-4.2873416,84.0
793,0.6565466,0.99903107,-0.18443298,-1.538855,0.69136965,-4.2151246,84.0
794,0.08625984,1.4954529,-0.4412117,-1.538855,0.69136965,-4.2151246,84.0
795,0.08625984,1.4954529,-0.4412117,-1.9456055,0.8772217,-4.1535277,84.0
796,0.045802116,1.694191,-0.6340103,-1.9456055,0.8772217,-4.1535277,84.0
797,0.045802116,1.694191,-0.6340103,-2.4139526,1.1990112,-4.1885743,84.0
798,-0.12379551,1.6263962,-0.6360283,-2.4139526,1.1990112,-4.1885743,84.0
799,-0.12379551,1.6263962,-0.6360283,-1.4740723,1.3009644,-3.7340333,84.0
800,-0.43287373,1.3713913,-0.6810036,-1.4740723,1.3009644,-3.7340333,84.0
801,-0.43287373,1.3713913,-0.6810036,0.033984374,1.0110352,-3.254004,84.0
802,-0.24886227,1.4829254,-0.70563126,0.033984374,1.0110352,-3.254004,84.0
803,-0.24886227,1.4829254,-0.70563126,0.20178223,0.7890747,-2.9768188,84.0
804,0.37791252,2.1626816,-0.29108047,0.20178223,0.7890747,-2.9768188,84.0
805,0.37791252,2.1626816,-0.29108047,-0.90908206,0.7869507,-2.5488281,84.0
806,1.4828596,2.1474915,0.25642776,-0.90908206,0.7869507,-2.5488281,84.0
807,1.4828596,2.1474915,0.25642776,-0.90908206,0.7869507,-2.5488281,85.0
808,1.4828596,2.1474915,0.25642776,-2.0603027,0.9409424,-2.3279297,85.0
809,2.4836874,0.5224762,0.5850105,-2.0603027,0.9409424,-2.3279297,85.0
810,2.4836874,0.5224762,0.5850105,-2.521216,1.1459106,-2.4033325,85.0
811,2.1893911,-1.4244995,0.67074203,-2.521216,1.1459106,-2.4033325,85.0
812,2.1893911,-1.4244995,0.67074203,-2.1495118,1.0407715,-2.092163,85.0
813,1.0202379,-2.3970718,0.34152603,-2.1495118,1.0407715,-2.092163,85.0
814,1.0202379,-2.3970718,0.34152603,-1.7629395,0.8612915,-1.4730103,85.0
815,0.19491291,-2.0289001,-0.17170334,-1.7629395,0.8612915,-1.4730103,85.0
816,0.19491291,-2.0289001,-0.17170334,-1.1490967,0.60322267,-0.98873293,85.0
817,-0.13878345,-0.8526001,-0.43014908,-1.1490967,0.60322267,-0.98873293,85.0
818,-0.13878345,-0.8526001,-0.43014908,-0.75721437,0.3993164,-0.7688965,85.0
819,-0.53528214,0.13417053,-0.32787323,-0.75721437,0.3993164,-0.7688965,85.0
820,-0.53528214,0.13417053,-0.32787323,-0.65419924,0.24213867,-0.542688,85.0
821,-0.8917389,0.09403992,-0.15835571,-0.65419924,0.24213867,-0.542688,85.0
822,-0.8917389,0.09403992,-0.15835571,-0.65207523,-0.008496094,-0.0063720704,85.0
823,-1.2089968,-0.4228363,-0.033763885,-0.65207523,-0.008496094,-0.0063720704,85.0
824,-1.2089968,-0.4228363,-0.033763885,-0.20921631,-0.14655761,0.47578126,85.0
825,-1.7162085,-0.17856598,-0.03074646,-0.20921631,-0.14655761,0.47578126,85.0
826,-1.7162085,-0.17856598,-0.03074646,0.6988037,-0.4800293,0.9897949,85.0
827,-1.2613945,0.58008575,-0.30624008,0.6988037,-0.4800293,0.9897949,85.0
828,-1.2613945,0.58008575,-0.30624008,1.6131958,-0.811377,1.632312,85.0
829,0.74388695,1.00811,-0.5863495,1.6131958,-0.811377,1.632312,85.0
830,0.74388695,1.00811,-0.5863495,2.1951783,-1.0014771,2.0656128,85.0
831,2.5629683,1.1732025,-0.5515137,2.1951783,-1.0014771,2.0656128,85.0
832,2.5629683,1.1732025,-0.5515137,2.3757203,-1.0535157,2.3385499,85.0
833,2.7608843,1.1910858,-0.34038162,2.3757203,-1.0535157,2.3385499,85.0
834,2.7608843,1.1910858,-0.34038162,2.3343017,-1.1193603,2.70813,85.0
835,1.9582796,0.97210693,-0.10628891,2.3343017,-1.1193603,2.70813,85.0
836,1.9582796,0.97210693,-0.10628891,2.529712,-1.1852051,2.988501,85.0
837,1.1580544,0.67793274,0.14121246,2.529712,-1.1852051,2.988501,85.0
838,1.1580544,0.67793274,0.14121246,2.9258423,-1.2021973,3.2805543,85.0
839,0.50831604,0.5130844,0.2651062,2.9258423,-1.2021973,3.2805543,85.0
840,0.50831604,0.5130844,0.2651062,3.1456788,-1.1151123,3.5237548,85.0
841,-0.144763,0.60879517,0.29013824,3.1456788,-1.1151123,3.5237548,85.0
842,-0.144763,0.60879517,0.29013824,2.8738039,-0.9483765,3.709607,85.0
843,-0.97478294,0.7834015,0.3265686,2.8738039,-0.9483765,3.709607,85.0
844,-0.97478294,0.7834015,0.3265686,2.7856567,-0.8326172,3.9921021,85.0
845,-1.9325609,0.5162964,0.26058197,2.7856567,-0.8326172,3.9921021,85.0
846,-1.9325609,0.5162964,0.26058197,3.2093995,-0.8071289,4.2873416,85.0
847,-2.5290327,-0.015426636,0.04492569,3.2093995,-0.8071289,4.2873416,85.0
848,-2.5290327,-0.015426636,0.04492569,3.350647,-0.6488892,4.245923,85.0
849,-2.4680138,-0.248703,-0.116039276,3.350647,-0.6488892,4.245923,85.0
850,-2.4680138,-0.248703,-0.116039276,3.256128,-0.40462646,4.4084105,85.0
851,-2.052658,-0.33548737,-0.18086624,3.256128,-0.40462646,4.4084105,85.0
852,-2.052658,-0.33548737,-0.18086624,2.8408813,-0.14761963,4.1365356,85.0
853,-1.5524778,-0.30027008,-0.14183807,2.8408813,-0.14761963,4.1365356,85.0
854,-1.5524778,-0.30027008,-0.14183807,1.6917847,0.06584473,3.4472902,85.0
855,-0.9156637,0.16591644,0.2162056,1.6917847,0.06584473,3.4472902,85.0
856,-0.9156637,0.16591644,0.2162056,1.2914063,0.15930176,2.799463,85.0
857,-0.35994816,0.567009,0.700531,1.2914063,0.15930176,2.799463,85.0
858,-0.35994816,0.567009,0.700531,1.4623902,0.4704712,1.7608155,85.0
859,-0.16308117,0.46162415,0.8390236,1.4623902,0.4704712,1.7608155,85.0
860,-0.16308117,0.46162415,0.8390236,0.5703003,0.7720825,0.8782837,85.0
861,0.09054279,0.08152008,0.5584755,0.5703003,0.7720825,0.8782837,85.0
862,0.09054279,0.08152008,0.5584755,-1.1575928,0.92713624,0.2516968,85.0
863,0.48730278,-0.49119568,0.15697479,-1.1575928,0.92713624,0.2516968,85.0
864,0.48730278,-0.49119568,0.15697479,-2.2865112,0.95368654,-0.22408448,85.0
865,0.42485237,-1.1455536,0.04087448,-2.2865112,0.95368654,-0.22408448,85.0
866,0.42485237,-1.1455536,0.04087448,-2.2206666,0.8400513,-0.6818115,85.0
867,0.6022234,-1.4907074,0.17237091,-2.2206666,0.8400513,-0.6818115,85.0
868,0.6022234,-1.4907074,0.17237091,-1.7310791,0.54906005,-1.3158325,85.0
869,1.4116983,-1.1480942,0.2159462,-1.7310791,0.54906005,-1.3158325,85.0
870,1.4116983,-1.1480942,0.2159462,-1.7501954,0.5012695,-1.7799317,85.0
871,1.0203257,-0.36989594,0.31656647,-1.7501954,0.5012695,-1.7799317,85.0
872,1.0203257,-0.36989594,0.31656647,-2.1250856,0.47365722,-2.0422485,85.0
873,-0.75848293,0.11444855,0.7527275,-2.1250856,0.47365722,-2.0422485,85.0
874,-0.75848293,0.11444855,0.7527275,-2.18562,0.26019287,-2.085791,85.0
875,-1.5215931,-0.032981873,1.0825195,-2.18562,0.26019287,-2.085791,85.0
876,-1.5215931,-0.032981873,1.0825195,-1.5813354,0.090270996,-2.083667,85.0
877,-0.25352955,-0.31780243,0.7700424,-1.5813354,0.090270996,-2.083667,85.0
878,-0.25352955,-0.31780243,0.7700424,-0.8400513,0.07752686,-2.252527,85.0
879,1.4947224,-0.26721954,-0.02803421,-0.8400513,0.07752686,-2.252527,85.0
880,1.4947224,-0.26721954,-0.02803421,-0.7327881,0.17629395,-2.4744873,85.0
881,1.8990498,-0.07286835,-0.7784958,-0.7327881,0.17629395,-2.4744873,85.0
882,1.8990498,-0.07286835,-0.7784958,-1.0991821,0.35152587,-2.6943238,85.0
883,0.78778267,-0.07203674,-1.1425133,-1.0991821,0.35152587,-2.6943238,85.0
884,0.78778267,-0.07203674,-1.1425133,-1.2138795,0.43967286,-2.6752076,85.0
885,-0.78160286,-0.14759827,-1.1237411,-1.2138795,0.43967286,-2.6752076,85.0
886,-0.78160286,-0.14759827,-1.1237411,-0.9154541,0.40037844,-2.6157348,85.0
887,-1.8628311,0.04599762,-0.89827347,-0.9154541,0.40037844,-2.6157348,85.0
888,-1.8628311,0.04599762,-0.89827347,-0.6786255,0.3345337,-2.6359131,85.0
889,-2.2007627,0.53878784,-0.67033005,-0.6786255,0.3345337,-2.6359131,85.0
890,-2.2007627,0.53878784,-0.67033005,-0.71154785,0.34940186,-2.7028198,85.0
891,-2.0228176,1.0523071,-0.5691986,-0.71154785,0.34940186,-2.7028198,85.0
892,-2.0228176,1.0523071,-0.5691986,-0.90695804,0.4163086,-2.7707887,85.0
893,-1.6564617,1.3185196,-0.58260345,-0.90695804,0.4163086,-2.7707887,85.0
894,-1.6564617,1.3185196,-0.58260345,-1.1915772,0.48640138,-2.8302612,85.0
895,-1.1200304,1.2204895,-0.5453682,-1.1915772,0.48640138,-2.8302612,85.0
896,-1.1200304,1.2204895,-0.5453682,-1.5707153,0.5320679,-2.8334472,85.0
897,-0.10082197,0.70186615,-0.38050842,-1.5707153,0.5320679,-2.8334472,85.0
898,-0.10082197,0.70186615,-0.38050842,-1.8648926,0.5522461,-2.802649,85.0
899,1.6233101,-0.20201874,-0.17856598,-1.8648926,0.5522461,-2.802649,85.0
900,1.6233101,-0.20201874,-0.17856598,-2.0114503,0.53950197,-2.7686646,85.0
901,3.6336823,-1.2360153,0.0058135986,-2.0114503,0.53950197,-2.7686646,85.0
902,3.6336823,-1.2360153,0.0058135986,-2.253589,0.67650145,-2.6603394,85.0
903,4.2021,-1.811142,0.18336105,-2.253589,0.67650145,-2.6603394,85.0
904,4.2021,-1.811142,0.18336105,-2.5562623,0.8517334,-2.6380372,85.0
905,2.4830666,-1.6901245,0.32239532,-2.5562623,0.8517334,-2.6380372,85.0
906,2.4830666,-1.6901245,0.32239532,-2.9300904,0.74022216,-2.0093262,85.0
907,0.39602375,-1.2186813,0.51880646,-2.9300904,0.74022216,-2.0093262,85.0
908,0.39602375,-1.2186813,0.51880646,-2.9300904,0.5968506,-1.1639649,85.0
909,-0.3322773,-0.6739807,0.8042908,-2.9300904,0.5968506,-1.1639649,85.0
910,-0.3322773,-0.6739807,0.8042908,-2.1983643,0.50870365,-0.75296634,85.0
911,-0.20315075,-0.31010437,0.8018074,-2.1983643,0.50870365,-0.75296634,85.0
912,-0.20315075,-0.31010437,0.8018074,-1.5685914,0.4322388,-0.7412842,85.0
913,0.22411346,-0.6442871,0.2807274,-1.5685914,0.4322388,-0.7412842,85.0
914,0.22411346,-0.6442871,0.2807274,-1.1926392,0.21240234,-0.29417726,85.0
915,0.81288433,-1.6742935,-0.35913467,-1.1926392,0.21240234,-0.29417726,85.0
916,0.81288433,-1.6742935,-0.35913467,-0.5012695,-0.025488282,0.1996582,85.0
917,0.3859644,-1.8480453,-0.6009674,-0.5012695,-0.025488282,0.1996582,85.0
918,0.3859644,-1.8480453,-0.6009674,0.9696167,-0.39400634,0.634021,85.0
919,-0.6903734,-0.3078766,-0.58786774,0.9696167,-0.39400634,0.634021,85.0
920,-0.6903734,-0.3078766,-0.58786774,2.0210083,-0.71154785,1.3668091,85.0
921,-0.49299717,1.5203018,-0.6015549,2.0210083,-0.71154785,1.3668091,85.0
922,-0.49299717,1.5203018,-0.6015549,2.084729,-0.814563,1.716211,85.0
923,0.75388145,2.1153107,-0.55350876,2.084729,-0.814563,1.716211,85.0
924,0.75388145,2.1153107,-0.55350876,1.8818848,-0.80606693,1.9785279,85.0
925,1.5456591,1.4607086,-0.39247894,1.8818848,-0.80606693,1.9785279,85.0
926,1.5456591,1.4607086,-0.39247894,2.1165893,-0.8963379,2.2992554,85.0
927,1.435111,0.60194397,-0.20922089,2.1165893,-0.8963379,2.2992554,85.0
928,1.435111,0.60194397,-0.20922089,2.6348512,-0.9653687,2.541394,85.0
929,0.74891853,0.35856628,-0.0945282,2.6348512,-0.9653687,2.541394,85.0
930,0.74891853,0.35856628,-0.0945282,3.0023072,-0.9494385,2.720874,85.0
931,-0.18353081,0.6488495,-0.08821106,3.0023072,-0.9494385,2.720874,85.0
932,-0.18353081,0.6488495,-0.08821106,2.8748658,-0.8326172,2.8621216,85.0
933,-0.18353081,0.6488495,-0.08821106,2.8748658,-0.8326172,2.8621216,86.0
934,-1.1427469,0.9629364,-0.05754471,2.8748658,-0.8326172,2.8621216,86.0
935,-1.1427469,0.9629364,-0.05754471,2.6380372,-0.7349121,2.998059,86.0
936,-2.0187988,0.91391754,0.0764122,2.6380372,-0.7349121,2.998059,86.0
937,-2.0187988,0.91391754,0.0764122,2.5775025,-0.6573853,3.1042602,86.0
938,-2.6986942,0.62818146,0.20386505,2.5775025,-0.6573853,3.1042602,86.0
939,-2.6986942,0.62818146,0.20386505,2.6837037,-0.60216063,3.255066,86.0
940,-2.99189,0.44280243,0.24430466,2.6837037,-0.60216063,3.255066,86.0
941,-2.99189,0.44280243,0.24430466,2.8132691,-0.50020754,3.4186158,86.0
942,-2.6334047,0.3738327,0.2182579,2.8132691,-0.50020754,3.4186158,86.0
943,-2.6334047,0.3738327,0.2182579,2.8461914,-0.3430298,3.4855225,86.0
944,-1.5810652,0.25003052,0.16252136,2.8461914,-0.3430298,3.4855225,86.0
945,-1.5810652,0.25003052,0.16252136,2.806897,-0.1731079,3.538623,86.0
946,-0.082406044,-0.0769043,0.13885498,2.806897,-0.1731079,3.538623,86.0
947,-0.082406044,-0.0769043,0.13885498,2.5976808,0.016992187,3.3262208,86.0
948,1.4743338,-0.30413818,0.19839859,2.5976808,0.016992187,3.3262208,86.0
949,1.4743338,-0.30413818,0.19839859,2.3905885,0.14337158,3.0320435,86.0
950,2.2141228,0.10371399,0.2492714,2.3905885,0.14337158,3.0320435,86.0
951,2.2141228,0.10371399,0.2492714,2.1548219,0.2442627,2.4755495,86.0
952,1.5393648,1.0639877,0.23334122,2.1548219,0.2442627,2.4755495,86.0
953,1.5393648,1.0639877,0.23334122,1.3062744,0.35577393,1.621692,86.0
954,0.22160435,1.7890778,0.19826889,1.3062744,0.35577393,1.621692,86.0
955,0.22160435,1.7890778,0.19826889,0.24638672,0.3706421,1.0131592,86.0
956,-0.7544546,1.5289688,0.14234161,0.24638672,0.3706421,1.0131592,86.0
957,-0.7544546,1.5289688,0.14234161,-0.93775636,0.3154175,0.45772704,86.0
958,-1.4020872,0.5277405,0.27793503,-0.93775636,0.3154175,0.45772704,86.0
959,-1.4020872,0.5277405,0.27793503,-1.7608155,0.28568116,-0.020178223,86.0
960,-1.3757839,-0.5387955,0.596138,-1.7608155,0.28568116,-0.020178223,86.0
961,-1.3757839,-0.5387955,0.596138,-2.0549927,0.121069334,-0.75509036,86.0
962,-0.2528124,-1.5250778,0.671978,-2.0549927,0.121069334,-0.75509036,86.0
963,-0.2528124,-1.5250778,0.671978,-2.4235108,0.18372802,-1.2000732,86.0
964,0.4213829,-1.8743362,0.5206146,-2.4235108,0.18372802,-1.2000732,86.0
965,0.4213829,-1.8743362,0.5206146,-2.2111084,0.2516968,-1.6747925,86.0
966,-0.21909523,-1.3667068,0.30933762,-2.2111084,0.2516968,-1.6747925,86.0
967,-0.21909523,-1.3667068,0.30933762,-1.8786987,-0.02442627,-2.1314576,86.0
968,-0.5758743,-0.85445404,0.07897568,-1.8786987,-0.02442627,-2.1314576,86.0
969,-0.5758743,-0.85445404,0.07897568,-1.6333741,-0.2166504,-2.446875,86.0
970,0.15849018,-0.91368103,0.007820129,-1.6333741,-0.2166504,-2.446875,86.0
971,0.15849018,-0.91368103,0.007820129,-1.0620117,-0.23258057,-2.802649,86.0
972,1.1223364,-1.2051163,0.17807007,-1.0620117,-0.23258057,-2.802649,86.0
973,1.1223364,-1.2051163,0.17807007,-0.34833986,-0.32922363,-3.1318727,86.0
974,1.6215382,-1.0204315,0.28232574,-0.34833986,-0.32922363,-3.1318727,86.0
975,1.6215382,-1.0204315,0.28232574,-0.04248047,-0.30161133,-3.240198,86.0
976,1.4182758,-0.04484558,0.087200165,-0.04248047,-0.30161133,-3.240198,86.0
977,1.4182758,-0.04484558,0.087200165,-0.34727785,-0.10620117,-3.256128,86.0
978,0.48806286,1.2448959,-0.2377739,-0.34727785,-0.10620117,-3.256128,86.0
979,0.48806286,1.2448959,-0.2377739,-1.0407715,0.12213135,-3.1977174,86.0
980,-0.76156425,2.0158768,-0.4666977,-1.0407715,0.12213135,-3.1977174,86.0
981,-0.76156425,2.0158768,-0.4666977,-1.5919555,0.31010744,-3.0352294,86.0
982,-1.8093491,1.955719,-0.51828,-1.5919555,0.31010744,-3.0352294,86.0
983,-1.8093491,1.955719,-0.51828,-1.7459472,0.41737062,-2.8451295,86.0
984,-2.2735043,1.428299,-0.44285583,-1.7459472,0.41737062,-2.8451295,86.0
985,-2.2735043,1.428299,-0.44285583,-1.6599244,0.47578126,-2.6667116,86.0
986,-1.9693165,0.9195938,-0.31267166,-1.6599244,0.47578126,-2.6667116,86.0
987,-1.9693165,0.9195938,-0.31267166,-1.5346069,0.542688,-2.5031617,86.0
988,-0.9986706,0.54016876,-0.21717834,-1.5346069,0.542688,-2.5031617,86.0
989,-0.9986706,0.54016876,-0.21717834,-1.4687623,0.5809204,-2.2981935,86.0
990,0.3770647,0.1483841,-0.13715744,-1.4687623,0.5809204,-2.2981935,86.0
991,0.3770647,0.1483841,-0.13715744,-1.3498169,0.5649902,-2.073047,86.0
992,1.7822666,-0.4287033,0.04522705,-1.3498169,0.5649902,-2.073047,86.0
993,1.7822666,-0.4287033,0.04522705,-1.2999023,0.5511841,-1.899939,86.0
994,2.5285845,-1.0341263,0.33135986,-1.2999023,0.5511841,-1.899939,86.0
995,2.5285845,-1.0341263,0.33135986,-1.3360108,0.59472656,-1.8192261,86.0
996,1.993742,-1.1656647,0.5839081,-1.3360108,0.59472656,-1.8192261,86.0
997,1.993742,-1.1656647,0.5839081,-1.3838013,0.5915405,-1.5855836,86.0
998,0.94406605,-0.8234024,0.66209793,-1.3838013,0.5915405,-1.5855836,86.0
999,0.94406605,-0.8234024,0.66209793,-1.4761963,0.5161377,-1.0630738,86.0
1000,0.58283997,-0.48088837,0.50335693,-1.4761963,0.5161377,-1.0630738,86.0
1001,0.58283997,-0.48088837,0.50335693,-1.7852417,0.48746338,-0.69986576,86.0
1002,0.72781944,-0.39712524,0.20156097,-1.7852417,0.48746338,-0.69986576,86.0
1003,0.72781944,-0.39712524,0.20156097,-2.0826051,0.452417,-0.38338622,86.0
1004,0.35625458,-0.44036102,0.08615112,-2.0826051,0.452417,-0.38338622,86.0
1005,0.35625458,-0.44036102,0.08615112,-1.8457764,0.3355957,-0.1178833,86.0
1006,-0.57494545,-0.46678925,0.1358757,-1.8457764,0.3355957,-0.1178833,86.0
1007,-0.57494545,-0.46678925,0.1358757,-1.4167236,0.15611573,0.12531738,86.0
1008,-0.62763214,-0.9335556,-0.039215088,-1.4167236,0.15611573,0.12531738,86.0
1009,-0.62763214,-0.9335556,-0.039215088,-1.1809571,0.015930176,0.634021,86.0
1010,-0.09789467,-1.4584885,-0.33721924,-1.1809571,0.015930176,0.634021,86.0
1011,-0.09789467,-1.4584885,-0.33721924,-0.61702883,-0.0021240234,0.7975708,86.0
1012,0.0017137527,-1.228775,-0.64585114,-0.61702883,-0.0021240234,0.7975708,86.0
1013,0.0017137527,-1.228775,-0.64585114,0.3727661,-0.3525879,1.3147706,86.0
1014,0.77880096,-0.76782227,-0.9502411,0.3727661,-0.3525879,1.3147706,86.0
1015,0.77880096,-0.76782227,-0.9502411,1.6875366,-0.66269535,1.7353271,86.0
1016,2.189044,-0.29843903,-1.055069,1.6875366,-0.66269535,1.7353271,86.0
1017,2.189044,-0.29843903,-1.055069,2.7676027,-0.85491943,1.8776368,86.0
1018,2.189044,-0.29843903,-1.055069,2.7676027,-0.85491943,1.8776368,86.0
1019,2.6638088,0.49549103,-0.8527069,2.7676027,-0.85491943,1.8776368,86.0
1020,2.6638088,0.49549103,-0.8527069,3.0384157,-0.9197022,2.1155274,86.0
1021,2.008171,1.2072678,-0.41993332,3.0384157,-0.9197022,2.1155274,86.0
1022,2.008171,1.2072678,-0.41993332,2.8376954,-0.8612915,2.34386,86.0
1023,0.83966637,1.5013809,0.06436157,2.8376954,-0.8612915,2.34386,86.0
1024,0.83966637,1.5013809,0.06436157,2.531836,-0.71579593,2.4882934,86.0
1025,-0.55729485,1.5209427,0.35375977,2.531836,-0.71579593,2.4882934,86.0
1026,-0.55729485,1.5209427,0.35375977,1.8882569,-0.56180423,2.6529052,86.0
1027,-1.9423561,1.3343048,0.43218994,1.8882569,-0.56180423,2.6529052,86.0
1028,-1.9423561,1.3343048,0.43218994,1.170337,-0.45772704,2.7867188,86.0
1029,-3.0835724,0.85583496,0.37452698,1.170337,-0.45772704,2.7867188,86.0
1030,-3.0835724,0.85583496,0.37452698,0.7890747,-0.41312256,2.9226563,86.0
1031,-3.8139896,0.20690918,0.19975281,0.7890747,-0.41312256,2.9226563,86.0
1032,-3.8139896,0.20690918,0.19975281,0.80606693,-0.4258667,3.0660279,86.0
1033,-3.9708204,-0.32450104,-0.030212402,0.80606693,-0.4258667,3.0660279,86.0
1034,-3.9708204,-0.32450104,-0.030212402,1.1214844,-0.46409914,3.1711671,86.0
1035,-3.4368858,-0.6944809,-0.2472763,1.1214844,-0.46409914,3.1711671,86.0
1036,-3.4368858,-0.6944809,-0.2472763,1.454956,-0.5140137,3.2051513,86.0
1037,-2.0636082,-1.0036926,-0.3796692,1.454956,-0.5140137,3.2051513,86.0
1038,-2.0636082,-1.0036926,-0.3796692,1.7236451,-0.5065796,3.1255004,86.0
1039,0.09576845,-1.3818283,-0.32948303,1.7236451,-0.5065796,3.1255004,86.0
1040,0.09576845,-1.3818283,-0.32948303,2.005078,-0.4333008,3.0267334,86.0
1041,2.4792767,-1.7064896,-0.11553955,2.005078,-0.4333008,3.0267334,86.0
1042,2.4792767,-1.7064896,-0.11553955,2.427759,-0.3345337,2.9332764,86.0
1043,3.6449327,-1.4533005,0.16135025,2.427759,-0.3345337,2.9332764,86.0
1044,3.6449327,-1.4533005,0.16135025,2.6444092,-0.13381349,2.5849366,86.0
1045,2.6619911,-0.41716003,0.4381485,2.6444092,-0.13381349,2.5849366,86.0
1046,2.6619911,-0.41716003,0.4381485,2.0709229,0.012744141,2.1930542,86.0
1047,0.6998806,0.7594147,0.697525,2.0709229,0.012744141,2.1930542,86.0
1048,0.6998806,0.7594147,0.697525,1.1321045,0.10301514,1.7002808,86.0
1049,-0.9001179,1.4420395,0.81711197,1.1321045,0.10301514,1.7002808,86.0
1050,-0.9001179,1.4420395,0.81711197,0.2538208,0.083898924,1.0450195,86.0
1051,-0.9001179,1.4420395,0.81711197,-0.5235718,-0.004248047,0.61915284,86.0
1052,-2.1730728,1.3570709,0.8714485,-0.5235718,-0.004248047,0.61915284,86.0
1053,-3.0092716,0.50362396,1.0507126,-0.5235718,-0.004248047,0.61915284,86.0
1054,-3.0092716,0.50362396,1.0507126,-0.9568726,-0.08071289,0.1529297,86.0
1055,-2.4453201,-0.5741501,1.0247383,-0.9568726,-0.08071289,0.1529297,86.0
1056,-2.4453201,-0.5741501,1.0247383,-1.0662597,-0.083898924,-0.59047854,86.0
1057,-0.8627987,-0.9635315,0.49651337,-1.0662597,-0.083898924,-0.59047854,86.0
1058,-0.8627987,-0.9635315,0.49651337,-1.2967163,0.06584473,-1.0460815,86.0
1059,-0.17562723,-0.37261963,-0.14536667,-1.2967163,0.06584473,-1.0460815,86.0
1060,-0.17562723,-0.37261963,-0.14536667,-1.4029175,-0.038232423,-1.5239868,86.0
1061,-0.4843979,0.16595459,-0.4718132,-1.4029175,-0.038232423,-1.5239868,86.0
1062,-0.4843979,0.16595459,-0.4718132,-1.6195679,-0.23045655,-1.9487915,86.0
1063,-0.0940609,-0.13885498,-0.41246033,-1.6195679,-0.23045655,-1.9487915,86.0
1064,-0.0940609,-0.13885498,-0.41246033,-1.357251,-0.32922363,-2.3682861,86.0
1065,1.3568921,-0.9584122,-0.09954834,-1.357251,-0.32922363,-2.3682861,86.0
1066,1.3568921,-0.9584122,-0.09954834,-0.91014403,-0.33984375,-2.794153,86.0
1067,2.6485023,-1.3959656,0.20718765,-0.91014403,-0.33984375,-2.794153,86.0
1068,2.6485023,-1.3959656,0.20718765,-0.7805786,-0.30479738,-3.1711671,86.0
1069,2.8074741,-0.87519836,0.2515869,-0.7805786,-0.30479738,-3.1711671,86.0
1070,2.8074741,-0.87519836,0.2515869,-1.0790039,-0.0998291,-3.3729494,86.0
1071,1.7922077,0.2849579,0.06342697,-1.0790039,-0.0998291,-3.3729494,86.0
1072,1.7922077,0.2849579,0.06342697,-1.5346069,0.1359375,-3.3846314,86.0
1073,0.11627388,1.3848114,-0.12164688,-1.5346069,0.1359375,-3.3846314,86.0
1074,0.11627388,1.3848114,-0.12164688,-1.8436524,0.3451538,-3.2826784,86.0
1075,-1.5351667,1.9573212,-0.23926163,-1.8436524,0.3451538,-3.2826784,86.0
1076,-1.5351667,1.9573212,-0.23926163,-1.9976441,0.50233155,-3.0893922,86.0
1077,-2.5063066,1.8832626,-0.39265442,-1.9976441,0.50233155,-3.0893922,86.0
1078,-2.5063066,1.8832626,-0.39265442,-2.170752,0.6435791,-2.9194703,86.0
1079,-2.5350504,1.3303909,-0.60461426,-2.170752,0.6435791,-2.9194703,86.0
1080,-2.5350504,1.3303909,-0.60461426,-1.9902099,0.77739257,-2.7845948,86.0
1081,-1.6814828,0.49460602,-0.72140884,-1.9902099,0.77739257,-2.7845948,86.0
1082,-1.6814828,0.49460602,-0.72140884,-1.719397,0.7678345,-2.7453003,86.0
1083,-0.096943855,-0.40183258,-0.62727356,-1.719397,0.7678345,-2.7453003,86.0
1084,-0.096943855,-0.40183258,-0.62727356,-1.3476928,0.72216797,-2.5424562,86.0
1085,1.8701134,-0.9823532,-0.39625168,-1.3476928,0.72216797,-2.5424562,86.0
1086,1.8701134,-0.9823532,-0.39625168,-1.0046631,0.6573853,-2.267395,86.0
1087,3.5039396,-1.144722,-0.19378662,-1.0046631,0.6573853,-2.267395,86.0
1088,3.5039396,-1.144722,-0.19378662,-0.8857178,0.6180908,-2.075171,86.0
1089,3.790371,-1.0007172,-0.005153656,-0.8857178,0.6180908,-2.075171,86.0
1090,3.790371,-1.0007172,-0.005153656,-1.002539,0.632959,-1.9190552,86.0
1091,2.6750212,-0.7158661,0.24591446,-1.002539,0.632959,-1.9190552,86.0
1092,2.6750212,-0.7158661,0.24591446,-1.2223755,0.5384399,-1.4560181,86.0
1093,1.4904928,-0.54003906,0.4311905,-1.2223755,0.5384399,-1.4560181,86.0
1094,1.4904928,-0.54003906,0.4311905,-1.2149414,0.4694092,-1.0736939,86.0
1095,0.9919548,-0.57118225,0.43585968,-1.2149414,0.4694092,-1.0736939,86.0
1096,0.9919548,-0.57118225,0.43585968,-1.170337,0.40462646,-0.817749,86.0
1097,0.5400486,-0.5858002,0.34467316,-1.170337,0.40462646,-0.817749,86.0
1098,0.5400486,-0.5858002,0.34467316,-0.7763306,0.27612305,-0.61702883,86.0
1099,-0.019914627,-0.4915619,0.1043129,-0.7763306,0.27612305,-0.61702883,86.0
1100,-0.019914627,-0.4915619,0.1043129,-0.31116945,0.0053100586,-0.1901001,86.0
1101,0.05568695,-0.4746704,-0.24217224,-0.31116945,0.0053100586,-0.1901001,86.0
1102,0.05568695,-0.4746704,-0.24217224,0.083898924,-0.087084964,0.2899292,86.0
1103,-0.05678177,-0.097457886,-0.50014496,0.083898924,-0.087084964,0.2899292,86.0
1104,-0.05678177,-0.097457886,-0.50014496,0.45029297,-0.09451904,0.55968016,86.0
1105,-0.90259075,0.72763824,-0.7271538,0.45029297,-0.09451904,0.55968016,86.0
1106,-0.90259075,0.72763824,-0.7271538,0.7720825,-0.26444092,1.1129884,86.0
1107,-0.9080467,1.0535812,-1.0135231,0.7720825,-0.26444092,1.1129884,86.0
1108,-0.9080467,1.0535812,-1.0135231,1.3678712,-0.49171144,1.5462891,86.0
1109,0.44462013,0.7665558,-1.1233406,1.3678712,-0.49171144,1.5462891,86.0
1110,0.44462013,0.7665558,-1.1233406,2.1941164,-0.6669434,1.8712647,86.0
1111,1.8064651,0.62286377,-0.9073639,2.1941164,-0.6669434,1.8712647,86.0
1112,1.8064651,0.62286377,-0.9073639,2.7304323,-0.7593384,2.151636,86.0
1113,2.0279121,0.94576263,-0.48018646,2.7304323,-0.7593384,2.151636,86.0
1114,2.0279121,0.94576263,-0.48018646,2.531836,-0.66481936,2.35979,86.0
1115,1.1481104,1.4387512,0.025741577,2.531836,-0.66481936,2.35979,86.0
1116,1.1481104,1.4387512,0.025741577,2.1197755,-0.5894165,2.5573242,86.0
1117,-0.2504568,1.6002808,0.41467285,2.1197755,-0.5894165,2.5573242,86.0
1118,-0.2504568,1.6002808,0.41467285,1.7693115,-0.51188964,2.7389283,86.0
1119,-1.6268673,1.3292236,0.55857086,1.7693115,-0.51188964,2.7389283,86.0
1120,-1.6268673,1.3292236,0.55857086,1.4305298,-0.43117675,2.8706176,86.0
1121,-2.6831226,0.84529877,0.5268707,1.4305298,-0.43117675,2.8706176,86.0
1122,-2.6831226,0.84529877,0.5268707,1.2744141,-0.37382814,3.085144,86.0
1123,-3.3501482,0.28418732,0.34202576,1.2744141,-0.37382814,3.085144,86.0
1124,-3.3501482,0.28418732,0.34202576,1.1172364,-0.3079834,3.178601,86.0
1125,-3.612443,-0.14478302,0.10954285,1.1172364,-0.3079834,3.178601,86.0
1126,-3.612443,-0.14478302,0.10954285,1.0375855,-0.35152587,3.2306397,86.0
1127,-3.612443,-0.14478302,0.10954285,1.0375855,-0.35152587,3.2306397,85.0
1128,-3.3598156,-0.5430832,-0.08525467,1.0375855,-0.35152587,3.2306397,85.0
1129,-3.3598156,-0.5430832,-0.08525467,1.357251,-0.43754885,3.245508,85.0
1130,-2.3929915,-1.059906,-0.2525673,1.357251,-0.43754885,3.245508,85.0
1131,-2.3929915,-1.059906,-0.2525673,1.7799317,-0.4609131,3.0384157,85.0
1132,-0.65158844,-1.4908447,-0.3069229,1.7799317,-0.4609131,3.0384157,85.0
1133,-0.65158844,-1.4908447,-0.3069229,2.1548219,-0.44923097,2.7474244,85.0
1134,1.4828672,-1.6174545,-0.1949768,2.1548219,-0.44923097,2.7474244,85.0
1135,1.4828672,-1.6174545,-0.1949768,2.4936035,-0.30373535,2.4075806,85.0
1136,2.9676542,-1.2322845,0.021007538,2.4936035,-0.30373535,2.4075806,85.0
1137,2.9676542,-1.2322845,0.021007538,2.5658205,-0.08283692,2.0114503,85.0
1138,2.7429218,-0.2951889,0.2864952,2.5658205,-0.08283692,2.0114503,85.0
1139,2.7429218,-0.2951889,0.2864952,1.9434814,0.12213135,1.5558472,85.0
1140,1.266737,0.7448578,0.5352287,1.9434814,0.12213135,1.5558472,85.0
1141,1.266737,0.7448578,0.5352287,0.95793456,0.20284425,1.1639649,85.0
1142,-0.015871048,1.3152084,0.60848236,0.95793456,0.20284425,1.1639649,85.0
1143,-0.015871048,1.3152084,0.60848236,0.11044922,0.19541016,0.7699585,85.0
1144,-0.58145905,1.1445999,0.58722305,0.11044922,0.19541016,0.7699585,85.0
1145,-0.58145905,1.1445999,0.58722305,-0.53100586,0.16885987,0.35895997,85.0
1146,-0.34227848,0.3577118,0.63388824,-0.53100586,0.16885987,0.35895997,85.0
1147,-0.34227848,0.3577118,0.63388824,-0.9802368,0.1083252,-0.13806152,85.0
1148,0.5886898,-0.6582794,0.5169983,-0.9802368,0.1083252,-0.13806152,85.0
1149,0.5886898,-0.6582794,0.5169983,-1.4369019,0.22196046,-0.6775635,85.0
1150,0.5546799,-1.0398407,0.29136658,-1.4369019,0.22196046,-0.6775635,85.0
1151,0.5546799,-1.0398407,0.29136658,-1.5781494,0.33134767,-1.0205933,85.0
1152,-1.031085,-0.4459381,0.16010666,-1.5781494,0.33134767,-1.0205933,85.0
1153,-1.031085,-0.4459381,0.16010666,-1.6546143,0.17735596,-1.2340577,85.0
1154,-2.182766,0.18652344,6.866455E-5,-1.6546143,0.17735596,-1.2340577,85.0
1155,-2.182766,0.18652344,6.866455E-5,-1.7342652,0.03079834,-1.4592041,85.0
1156,-1.4192476,-0.005935669,-0.18799591,-1.7342652,0.03079834,-1.4592041,85.0
1157,-1.4192476,-0.005935669,-0.18799591,-1.453894,-0.035046387,-1.7937378,85.0
1158,0.405447,-0.86483,-0.2653122,-1.453894,-0.035046387,-1.7937378,85.0
1159,0.405447,-0.86483,-0.2653122,-0.9897949,-0.04885254,-2.0942872,85.0
1160,1.4835863,-1.4135437,-0.17769241,-0.9897949,-0.04885254,-2.0942872,85.0
1161,1.4835863,-1.4135437,-0.17769241,-0.74022216,-0.032922365,-2.3831544,85.0
1162,1.1616001,-1.0216675,-0.060344696,-0.74022216,-0.032922365,-2.3831544,85.0
1163,1.1616001,-1.0216675,-0.060344696,-0.70305175,0.012744141,-2.5222778,85.0
1164,0.09638214,-0.02961731,-0.048542023,-0.70305175,0.012744141,-2.5222778,85.0
1165,0.09638214,-0.02961731,-0.048542023,-0.7455322,0.04991455,-2.627417,85.0
1166,-0.9890928,0.8838272,-0.15457153,-0.7455322,0.04991455,-2.627417,85.0
1167,-0.9890928,0.8838272,-0.15457153,-0.95581055,0.107263185,-2.7006958,85.0
1168,-1.7413969,1.3666229,-0.28804016,-0.95581055,0.107263185,-2.7006958,85.0
1169,-1.7413969,1.3666229,-0.28804016,-1.2499878,0.19116211,-2.7028198,85.0
1170,-1.9662008,1.3503265,-0.37519836,-1.2499878,0.19116211,-2.7028198,85.0
1171,-1.9662008,1.3503265,-0.37519836,-1.4262818,0.27612305,-2.7336183,85.0
1172,-1.6375723,0.9712906,-0.41469574,-1.4262818,0.27612305,-2.7336183,85.0
1173,-1.6375723,0.9712906,-0.41469574,-1.4199097,0.3536499,-2.7814088,85.0
1174,-0.8997917,0.5684738,-0.42786407,-1.4199097,0.3536499,-2.7814088,85.0
1175,-0.8997917,0.5684738,-0.42786407,-1.3795532,0.38338622,-2.7686646,85.0
1176,0.09233713,0.3507843,-0.39988327,-1.3795532,0.38338622,-2.7686646,85.0
1177,0.09233713,0.3507843,-0.39988327,-1.3498169,0.37382814,-2.6890137,85.0
1178,1.159502,0.2151947,-0.29003525,-1.3498169,0.37382814,-2.6890137,85.0
1179,1.159502,0.2151947,-0.29003525,-1.4145997,0.35683593,-2.5785644,85.0
1180,2.0363665,-0.07885742,-0.13574982,-1.4145997,0.35683593,-2.5785644,85.0
1181,2.0363665,-0.07885742,-0.13574982,-1.4262818,0.40993652,-2.3757203,85.0
1182,2.4056187,-0.564064,0.08094025,-1.4262818,0.40993652,-2.3757203,85.0
1183,2.4056187,-0.564064,0.08094025,-1.2032593,0.40462646,-2.081543,85.0
1184,2.430025,-0.99593353,0.38320923,-1.2032593,0.40462646,-2.081543,85.0
1185,2.430025,-0.99593353,0.38320923,-0.71579593,0.26019287,-1.6386842,85.0
1186,2.4435682,-1.0241623,0.67806244,-0.71579593,0.26019287,-1.6386842,85.0
1187,2.4435682,-1.0241623,0.67806244,-0.2081543,0.13275146,-1.273352,85.0
1188,2.221078,-0.48880005,0.79706573,-0.2081543,0.13275146,-1.273352,85.0
1189,2.221078,-0.48880005,0.79706573,-0.2442627,0.04991455,-1.0407715,85.0
1190,1.3860903,0.26457214,0.72670364,-0.2442627,0.04991455,-1.0407715,85.0
1191,1.3860903,0.26457214,0.72670364,-0.541626,0.060534667,-0.77739257,85.0
1192,0.6725311,0.39100647,0.5229416,-0.541626,0.060534667,-0.77739257,85.0
1193,0.6725311,0.39100647,0.5229416,-0.7869507,-0.05522461,-0.33878174,85.0
1194,0.78223896,-0.37261963,0.18415833,-0.7869507,-0.05522461,-0.33878174,85.0
1195,0.78223896,-0.37261963,0.18415833,-0.6467652,0.070092775,-0.04141846,85.0
1196,0.29657936,-0.71738434,-0.21665192,-0.6467652,0.070092775,-0.04141846,85.0
1197,0.29657936,-0.71738434,-0.21665192,-0.23258057,0.032922365,0.1996582,85.0
1198,-0.55553436,-0.26146698,-0.5778847,-0.23258057,0.032922365,0.1996582,85.0
1199,-0.55553436,-0.26146698,-0.5778847,0.43117675,-0.21346436,1.0790039,85.0
1200,0.17376137,0.078056335,-0.7762718,0.43117675,-0.21346436,1.0790039,85.0
1201,0.17376137,0.078056335,-0.7762718,1.4400879,-0.42374268,1.4167236,85.0
1202,1.3876171,0.5703049,-0.63552094,1.4400879,-0.42374268,1.4167236,85.0
1203,1.3876171,0.5703049,-0.63552094,1.8648926,-0.42799073,1.634436,85.0
1204,1.3523178,1.3383102,-0.26010132,1.8648926,-0.42799073,1.634436,85.0
1205,1.3523178,1.3383102,-0.26010132,1.5505371,-0.3971924,2.079419,85.0
1206,0.49421978,1.5272369,0.020397186,1.5505371,-0.3971924,2.079419,85.0
1207,0.49421978,1.5272369,0.020397186,1.1990112,-0.3355957,2.2737672,85.0
1208,-0.38300514,1.0744858,0.10992432,1.1990112,-0.3355957,2.2737672,85.0
1209,-0.38300514,1.0744858,0.10992432,0.9791748,-0.3164795,2.4946656,85.0
1210,-1.1401443,0.53396606,0.12442398,0.9791748,-0.3164795,2.4946656,85.0
1211,-1.1401443,0.53396606,0.12442398,0.9483765,-0.29099122,2.6964478,85.0
1212,-1.9661922,0.16978455,0.10373688,0.9483765,-0.29099122,2.6964478,85.0
1213,-1.9661922,0.16978455,0.10373688,0.71791995,-0.20284425,2.7612305,85.0
1214,-2.9005775,-0.018569946,0.03987503,0.71791995,-0.20284425,2.7612305,85.0
1215,-2.9005775,-0.018569946,0.03987503,0.54375,-0.1529297,2.9343383,85.0
1216,-3.6679106,-0.2744522,-0.04499054,0.54375,-0.1529297,2.9343383,85.0
1217,-3.6679106,-0.2744522,-0.04499054,0.7954468,-0.21240234,3.0543458,85.0
1218,-3.8889427,-0.6820297,-0.18862915,0.7954468,-0.21240234,3.0543458,85.0
1219,-3.8889427,-0.6820297,-0.18862915,1.450708,-0.3334717,3.1488647,85.0
1220,-3.3567104,-1.0003204,-0.46334457,1.450708,-0.3334717,3.1488647,85.0
1221,-3.3567104,-1.0003204,-0.46334457,1.8786987,-0.3536499,3.1817873,85.0
1222,-2.0351,-1.1202469,-0.7756958,1.8786987,-0.3536499,3.1817873,85.0
1223,-2.0351,-1.1202469,-0.7756958,2.0549927,-0.3451538,3.1010742,85.0
1224,-0.10416651,-1.325882,-0.8825836,2.0549927,-0.3451538,3.1010742,85.0
1225,-0.10416651,-1.325882,-0.8825836,2.151636,-0.2538208,2.8281372,85.0
1226,2.115446,-1.6790924,-0.7343521,2.151636,-0.2538208,2.8281372,85.0
1227,2.115446,-1.6790924,-0.7343521,2.3937745,-0.12000733,2.4851074,85.0
1228,3.6061506,-1.5245819,-0.4701233,2.3937745,-0.12000733,2.4851074,85.0
1229,3.6061506,-1.5245819,-0.4701233,2.4967897,0.12956543,2.156946,85.0
1230,3.0693197,-0.41703796,-0.16027832,2.4967897,0.12956543,2.156946,85.0
1231,3.0693197,-0.41703796,-0.16027832,1.7470093,0.39294434,1.7342652,85.0
1232,1.1161251,1.1729889,0.13840103,1.7470093,0.39294434,1.7342652,85.0
1233,1.1161251,1.1729889,0.13840103,0.56392825,0.5033936,1.2138795,85.0
1234,-0.6223831,2.2534943,0.3549347,0.56392825,0.5033936,1.2138795,85.0
1235,-0.6223831,2.2534943,0.3549347,-0.5915405,0.56180423,0.73703617,85.0
1236,-1.8132753,2.1785889,0.67048264,-0.5915405,0.56180423,0.73703617,85.0
1237,-1.8132753,2.1785889,0.67048264,-1.6609863,0.5331299,0.4609131,85.0
1238,-2.0361671,1.0144501,1.0809784,-1.6609863,0.5331299,0.4609131,85.0
1239,-2.0361671,1.0144501,1.0809784,-2.4851074,0.38338622,-0.078588866,85.0
1240,-0.4342804,-0.8656006,1.0916405,-2.4851074,0.38338622,-0.078588866,85.0
1241,-0.4342804,-0.8656006,1.0916405,-3.0214233,0.51932377,-0.69986576,85.0
1242,0.9977417,-2.4270477,0.81427765,-3.0214233,0.51932377,-0.69986576,85.0
1243,0.9977417,-2.4270477,0.81427765,-2.819641,0.8772217,-1.0513916,85.0
1244,0.23641396,-2.5462494,0.70082474,-2.819641,0.8772217,-1.0513916,85.0
1245,0.23641396,-2.5462494,0.70082474,-2.3013794,0.70305175,-1.4730103,85.0
1246,-0.9387007,-1.564537,0.44236374,-2.3013794,0.70305175,-1.4730103,85.0
1247,-0.9387007,-1.564537,0.44236374,-2.2312868,0.4704712,-1.7140869,85.0
1248,-0.9387007,-1.564537,0.44236374,-2.2312868,0.4704712,-1.7140869,84.0
1249,-0.50811386,-0.77129364,-0.04133606,-2.2312868,0.4704712,-1.7140869,84.0
1250,-0.50811386,-0.77129364,-0.04133606,-1.7618774,0.32603762,-2.0985353,84.0
1251,0.83955383,-1.0871658,-0.1881218,-1.7618774,0.32603762,-2.0985353,84.0
1252,0.83955383,-1.0871658,-0.1881218,-0.98873293,0.2347046,-2.6008668,84.0
1253,1.3980713,-1.7548904,0.019008636,-0.98873293,0.2347046,-2.6008668,84.0
1254,1.3980713,-1.7548904,0.019008636,-0.13487549,0.26868898,-2.9407105,84.0
1255,0.66202354,-1.4853973,0.059345245,-0.13487549,0.26868898,-2.9407105,84.0
1256,0.66202354,-1.4853973,0.059345245,0.18903808,0.39400634,-2.9343383,84.0
1257,-0.6770096,-0.116744995,-0.2211647,0.18903808,0.39400634,-2.9343383,84.0
1258,-0.6770096,-0.116744995,-0.2211647,0.0180542,0.45347902,-2.9513307,84.0
1259,-1.8676691,1.526268,-0.5562668,0.0180542,0.45347902,-2.9513307,84.0
1260,-1.8676691,1.526268,-0.5562668,-0.40144044,0.42374268,-2.9109743,84.0
1261,-1.9538889,2.0772247,-0.56588745,-0.40144044,0.42374268,-2.9109743,84.0
1262,-1.9538889,2.0772247,-0.56588745,-0.5894165,0.39294434,-2.8546875,84.0
1263,-2.2481942,2.4903488,-0.5180931,-0.5894165,0.39294434,-2.8546875,84.0
1264,-2.2481942,2.4903488,-0.5180931,-0.67225343,0.43967286,-2.7984009,84.0
1265,-1.6869707,2.1322174,-0.38735962,-0.67225343,0.43967286,-2.7984009,84.0
1266,-1.6869707,2.1322174,-0.38735962,-0.58623046,0.46622315,-2.799463,84.0
1267,-0.7909584,1.3276138,-0.38333893,-0.58623046,0.46622315,-2.799463,84.0
1268,-0.7909584,1.3276138,-0.38333893,-0.19116211,0.36108398,-2.6582153,84.0
1269,-0.18110657,1.1374588,-0.31558228,-0.19116211,0.36108398,-2.6582153,84.0
1270,-0.18110657,1.1374588,-0.31558228,-0.090270996,0.28568116,-2.6061769,84.0
1271,1.848743,0.47777557,-0.09616852,-0.090270996,0.28568116,-2.6061769,84.0
1272,1.848743,0.47777557,-0.09616852,-0.12531738,0.15080567,-2.3215578,84.0
1273,2.2848053,0.42832947,0.11502075,-0.12531738,0.15080567,-2.3215578,84.0
1274,2.2848053,0.42832947,0.11502075,-0.24001466,0.16992188,-2.1888063,84.0
1275,3.0685787,0.09261322,0.7451172,-0.24001466,0.16992188,-2.1888063,84.0
1276,3.0685787,0.09261322,0.7451172,-0.8963379,0.32285157,-1.7884277,84.0
1277,2.3706713,0.15270233,0.7455826,-0.8963379,0.32285157,-1.7884277,84.0
1278,2.3706713,0.15270233,0.7455826,-1.1437867,0.33240968,-1.5526612,84.0
1279,1.6003456,-0.011703491,0.67316055,-1.1437867,0.33240968,-1.5526612,84.0
1280,1.6003456,-0.011703491,0.67316055,-1.4390259,0.20284425,-0.8050049,84.0
1281,1.4539948,-0.18064117,0.5026398,-1.4390259,0.20284425,-0.8050049,84.0
1282,1.4539948,-0.18064117,0.5026398,-1.4655762,0.19116211,-0.6988037,84.0
1283,1.5069456,-0.5589752,0.42547607,-1.4655762,0.19116211,-0.6988037,84.0
1284,1.5069456,-0.5589752,0.42547607,-1.0120972,0.1178833,-0.4725952,84.0
1285,0.91534615,-0.52793884,0.38763428,-1.0120972,0.1178833,-0.4725952,84.0
1286,0.91534615,-0.52793884,0.38763428,-0.8623535,0.093457036,-0.43011475,84.0
1287,0.1250019,-1.0000153,0.10571289,-0.8623535,0.093457036,-0.43011475,84.0
1288,0.1250019,-1.0000153,0.10571289,-0.8071289,0.011682129,0.20603028,84.0
1289,0.13270378,-1.1791382,-0.13825989,-0.8071289,0.011682129,0.20603028,84.0
1290,0.13270378,-1.1791382,-0.13825989,-0.65207523,0.08602295,0.21240234,84.0
1291,-0.16379547,-1.1575546,-0.9085579,-0.65207523,0.08602295,0.21240234,84.0
1292,-0.16379547,-1.1575546,-0.9085579,0.6786255,-0.43117675,1.088562,84.0
1293,0.19049644,-0.84477997,-0.99074936,0.6786255,-0.43117675,1.088562,84.0
1294,0.19049644,-0.84477997,-0.99074936,1.4262818,-0.6669434,1.4570801,84.0
1295,1.9192066,-0.21385193,-1.0660095,1.4262818,-0.6669434,1.4570801,84.0
1296,1.9192066,-0.21385193,-1.0660095,2.7198122,-0.8527954,1.6514282,84.0
1297,3.0378313,0.95027924,-0.80983734,2.7198122,-0.8527954,1.6514282,84.0
1298,3.0378313,0.95027924,-0.80983734,2.8695557,-0.80606693,1.9041871,84.0
1299,2.1799355,2.2641144,-0.2614708,2.8695557,-0.80606693,1.9041871,84.0
1300,2.1799355,2.2641144,-0.2614708,2.1866822,-0.6796875,2.2748291,84.0
1301,1.3325596,1.7914505,-0.04234314,2.1866822,-0.6796875,2.2748291,84.0
1302,1.3325596,1.7914505,-0.04234314,1.9307374,-0.6159668,2.3204956,84.0
1303,-0.5391159,1.1395187,0.46496582,1.9307374,-0.6159668,2.3204956,84.0
1304,-0.5391159,1.1395187,0.46496582,1.9721558,-0.61702883,2.6645875,84.0
1305,-1.1485777,0.7175369,0.43391418,1.9721558,-0.61702883,2.6645875,84.0
1306,-1.1485777,0.7175369,0.43391418,1.9657837,-0.57242435,2.7718506,84.0
1307,-2.4212427,0.5892868,0.23101807,1.9657837,-0.57242435,2.7718506,84.0
1308,-2.4212427,0.5892868,0.23101807,1.724707,-0.44923097,2.8865478,84.0
1309,-3.4703188,0.6380539,-0.06713867,1.724707,-0.44923097,2.8865478,84.0
1310,-3.4703188,0.6380539,-0.06713867,1.2106934,-0.3462158,3.0585938,84.0
1311,-4.107126,0.42168427,-0.24383545,1.2106934,-0.3462158,3.0585938,84.0
1312,-4.107126,0.42168427,-0.24383545,1.0269654,-0.3802002,3.2295778,84.0
1313,-4.166402,-0.1816101,-0.35977936,1.0269654,-0.3802002,3.2295778,84.0
1314,-4.166402,-0.1816101,-0.35977936,1.4156617,-0.4959595,3.2901123,84.0
1315,-3.5592566,-0.8858032,-0.49096298,1.4156617,-0.4959595,3.2901123,84.0
1316,-3.5592566,-0.8858032,-0.49096298,1.9339234,-0.54693604,3.1913452,84.0
1317,-2.302435,-1.3660889,-0.5783539,1.9339234,-0.54693604,3.1913452,84.0
1318,-2.302435,-1.3660889,-0.5783539,2.1611938,-0.5586182,2.9598267,84.0
1319,-0.61471367,-1.6367188,-0.5202255,2.1611938,-0.5586182,2.9598267,84.0
1320,-0.61471367,-1.6367188,-0.5202255,2.3672242,-0.5171997,2.6444092,84.0
1321,1.0190444,-1.7006302,-0.3076477,2.3672242,-0.5171997,2.6444092,84.0
1322,1.0190444,-1.7006302,-0.3076477,2.6624634,-0.4333008,2.366162,84.0
1323,2.1136608,-1.3154831,-0.0073509216,2.6624634,-0.4333008,2.366162,84.0
1324,2.1136608,-1.3154831,-0.0073509216,2.6815796,-0.33028564,2.0072021,84.0
1325,2.3151836,-0.43024445,0.28899002,2.6815796,-0.33028564,2.0072021,84.0
1326,2.3151836,-0.43024445,0.28899002,2.2004883,-0.15611573,1.6524903,84.0
1327,1.6630602,0.5121994,0.54130936,2.2004883,-0.15611573,1.6524903,84.0
1328,1.6630602,0.5121994,0.54130936,1.4836304,-0.0010620117,1.2521118,84.0
1329,0.7765417,1.0733185,0.6534691,1.4836304,-0.0010620117,1.2521118,84.0
1330,0.7765417,1.0733185,0.6534691,0.6159668,0.115759276,0.77739257,84.0
1331,0.061797142,1.0442657,0.6360588,0.6159668,0.115759276,0.77739257,84.0
1332,0.061797142,1.0442657,0.6360588,-0.41737062,0.21558838,0.3440918,84.0
1333,0.061797142,1.0442657,0.6360588,-0.41737062,0.21558838,0.3440918,84.0
1334,0.17363262,0.16868591,0.4295845,-0.41737062,0.21558838,0.3440918,84.0
1335,0.17363262,0.16868591,0.4295845,-1.4092896,0.0998291,-0.28780517,84.0
1336,1.1156521,-1.2083969,0.0766983,-1.4092896,0.0998291,-0.28780517,84.0
1337,1.1156521,-1.2083969,0.0766983,-1.8659546,0.22408448,-0.8878418,84.0
1338,0.8120041,-1.6719437,-0.02017212,-1.8659546,0.22408448,-0.8878418,84.0
1339,0.8120041,-1.6719437,-0.02017212,-1.62594,0.27718505,-1.1947632,84.0
1340,-1.3815365,-0.65567017,0.24898529,-1.62594,0.27718505,-1.1947632,84.0
1341,-1.3815365,-0.65567017,0.24898529,-1.6248779,0.060534667,-1.2988404,84.0
1342,-3.03084,0.5191498,0.4499817,-1.6248779,0.060534667,-1.2988404,84.0
1343,-3.03084,0.5191498,0.4499817,-1.7916138,0.009558106,-1.4156617,84.0
1344,-2.246974,0.51584625,0.30410004,-1.7916138,0.009558106,-1.4156617,84.0
1345,-2.246974,0.51584625,0.30410004,-1.4772583,0.04991455,-1.81604,84.0
1346,0.28758907,-0.4333191,-0.042915344,-1.4772583,0.04991455,-1.81604,84.0
1347,0.28758907,-0.4333191,-0.042915344,-1.0970582,0.10938721,-2.1941164,84.0
1348,2.1008234,-1.0201797,-0.26421738,-1.0970582,0.10938721,-2.1941164,84.0
1349,2.1008234,-1.0201797,-0.26421738,-0.90802,0.17735596,-2.4861696,84.0
1350,1.541584,-0.6896515,-0.23067474,-0.90802,0.17735596,-2.4861696,84.0
1351,1.541584,-0.6896515,-0.23067474,-0.9228882,0.21346436,-2.5424562,84.0
1352,-0.35141277,0.16114807,-0.059185028,-0.9228882,0.21346436,-2.5424562,84.0
1353,-0.35141277,0.16114807,-0.059185028,-0.79119873,0.124255374,-2.626355,84.0
1354,-1.5537014,1.0223312,0.019618988,-0.79119873,0.124255374,-2.626355,84.0
1355,-1.5537014,1.0223312,0.019618988,-0.76358646,0.09451904,-2.7229981,84.0
1356,-1.4287281,1.5282898,-0.01568985,-0.76358646,0.09451904,-2.7229981,84.0
1357,-1.4287281,1.5282898,-0.01568985,-0.9897949,0.12319336,-2.7622926,84.0
1358,-0.60162544,1.5244751,-0.020328522,-0.9897949,0.12319336,-2.7622926,84.0
1359,-0.60162544,1.5244751,-0.020328522,-1.3710572,0.1709839,-2.7867188,84.0
1360,0.13805962,1.0910645,0.026546478,-1.3710572,0.1709839,-2.7867188,84.0
1361,0.13805962,1.0910645,0.026546478,-1.7236451,0.2793091,-2.8472536,84.0
1362,0.5913439,0.44039154,0.079452515,-1.7236451,0.2793091,-2.8472536,84.0
1363,0.5913439,0.44039154,0.079452515,-1.7916138,0.3727661,-2.8589356,84.0
1364,1.1432657,-0.20200348,0.1134758,-1.7916138,0.3727661,-2.8589356,84.0
1365,1.1432657,-0.20200348,0.1134758,-1.4793824,0.4067505,-2.6762695,84.0
1366,1.9359503,-0.5542908,0.21844101,-1.4793824,0.4067505,-2.6762695,84.0
1367,1.9359503,-0.5542908,0.21844101,-0.8729736,0.43861085,-2.5159059,84.0
1368,2.363494,-0.44571686,0.47676468,-0.8729736,0.43861085,-2.5159059,84.0
1369,2.363494,-0.44571686,0.47676468,-0.5777344,0.5012695,-2.345984,84.0
1370,2.1007805,-0.14766693,0.6825104,-0.5777344,0.5012695,-2.345984,84.0
1371,2.1007805,-0.14766693,0.6825104,-0.60109866,0.55968016,-2.075171,84.0
1372,1.4592743,0.005012512,0.69407654,-0.60109866,0.55968016,-2.075171,84.0
1373,1.4592743,0.005012512,0.69407654,-0.40993652,0.5957886,-1.9243653,84.0
1374,1.4592743,0.005012512,0.69407654,-0.17416993,0.51082766,-1.6716064,84.0
1375,0.75168514,0.0062332153,0.54673004,-0.17416993,0.51082766,-1.6716064,84.0
1376,0.25471687,-4.5776367E-4,0.4043274,-0.17416993,0.51082766,-1.6716064,84.0
1377,0.25471687,-4.5776367E-4,0.4043274,0.053100586,0.38444826,-1.3370727,84.0
1378,0.0064105988,0.12864685,0.3570938,0.053100586,0.38444826,-1.3370727,84.0
1379,0.0064105988,0.12864685,0.3570938,0.16461182,0.3334717,-0.8973999,84.0
1380,-0.008897781,0.43933105,0.2947197,0.16461182,0.3334717,-0.8973999,84.0
1381,-0.008897781,0.43933105,0.2947197,-0.0053100586,0.27293703,-0.42374268,84.0
1382,0.31994534,0.56783295,0.19206238,-0.0053100586,0.27293703,-0.42374268,84.0
1383,0.31994534,0.56783295,0.19206238,-0.124255374,0.31860352,0.0180542,84.0
1384,0.09982872,0.4725876,0.04949951,-0.124255374,0.31860352,0.0180542,84.0
1385,0.09982872,0.4725876,0.04949951,0.26975098,0.40356445,0.35046387,84.0
1386,-0.82570267,0.45814514,-0.4192047,0.26975098,0.40356445,0.35046387,84.0
1387,-0.82570267,0.45814514,-0.4192047,1.1480347,0.2347046,0.9897949,84.0
1388,-0.84413147,0.6804733,-1.0478516,1.1480347,0.2347046,0.9897949,84.0
1389,-0.84413147,0.6804733,-1.0478516,2.176062,0.026550293,1.5855836,84.0
1390,0.34163857,1.2844391,-1.3289185,2.176062,0.026550293,1.5855836,84.0
1391,0.34163857,1.2844391,-1.3289185,2.347046,-0.004248047,1.9668458,84.0
1392,1.4162798,2.0385132,-1.1453247,2.347046,-0.004248047,1.9668458,84.0
1393,1.4162798,2.0385132,-1.1453247,1.5919555,0.06265869,2.2950075,84.0
1394,1.4704504,2.3766327,-0.7069473,1.5919555,0.06265869,2.2950075,84.0
1395,1.4704504,2.3766327,-0.7069473,0.72854006,0.115759276,2.5445802,84.0
1396,0.5684986,2.0473862,-0.24060822,0.72854006,0.115759276,2.5445802,84.0
1397,0.5684986,2.0473862,-0.24060822,0.08920898,0.07646485,2.7304323,84.0
1398,-0.6733751,1.1915741,0.034233093,0.08920898,0.07646485,2.7304323,84.0
1399,-0.6733751,1.1915741,0.034233093,-0.38338622,-0.010620117,2.811145,84.0
1400,-1.735734,0.22392273,0.17887497,-0.38338622,-0.010620117,2.811145,84.0
1401,-1.735734,0.22392273,0.17887497,-0.47471926,-0.081774905,2.8461914,84.0
1402,-2.3319464,-0.46679688,0.28570175,-0.47471926,-0.081774905,2.8461914,84.0
1403,-2.3319464,-0.46679688,0.28570175,-0.19753419,-0.15717773,2.9290283,84.0
1404,-2.3573418,-0.6889038,0.33122253,-0.19753419,-0.15717773,2.9290283,84.0
1405,-2.3573418,-0.6889038,0.33122253,0.22939454,-0.18372802,2.9555786,84.0
1406,-2.054782,-0.3186493,0.30974197,0.22939454,-0.18372802,2.9555786,84.0
1407,-2.054782,-0.3186493,0.30974197,0.84323734,-0.22302246,2.800525,84.0
1408,-1.6089258,0.2942276,0.17237854,0.84323734,-0.22302246,2.800525,84.0
1409,-1.6089258,0.2942276,0.17237854,1.3402588,-0.20603028,2.636975,84.0
1410,-0.94610023,0.41096497,-0.0115356445,1.3402588,-0.20603028,2.636975,84.0
1411,-0.94610023,0.41096497,-0.0115356445,1.4825684,-0.12319336,2.5052857,84.0
1412,-0.08668995,0.043174744,-0.06309891,1.4825684,-0.12319336,2.5052857,84.0
1413,-0.08668995,0.043174744,-0.06309891,1.5898316,-0.04885254,2.3258057,84.0
1414,0.7629967,-0.11277008,0.040096283,1.5898316,-0.04885254,2.3258057,84.0
1415,0.7629967,-0.11277008,0.040096283,1.6142578,0.07327881,2.0528686,84.0
1416,1.2324677,0.2873993,0.19490814,1.6142578,0.07327881,2.0528686,84.0
1417,1.2324677,0.2873993,0.19490814,1.2287476,0.20603028,1.6206299,84.0
1418,1.2200804,0.7950897,0.2700615,1.2287476,0.20603028,1.6206299,84.0
1419,1.2200804,0.7950897,0.2700615,0.3355957,0.26125488,1.2223755,84.0
1420,1.1517363,0.66365814,0.2143898,0.3355957,0.26125488,1.2223755,84.0
1421,1.1517363,0.66365814,0.2143898,-0.80181885,0.29099122,0.90908206,84.0
1422,1.0549097,-0.18495941,0.13209534,-0.80181885,0.29099122,0.90908206,84.0
1423,1.0549097,-0.18495941,0.13209534,-1.5590333,0.28568116,0.5140137,84.0
1424,0.53123283,-1.2535095,0.13441086,-1.5590333,0.28568116,0.5140137,84.0
1425,0.53123283,-1.2535095,0.13441086,-1.6790406,0.25913087,-0.02442627,84.0
1426,0.32912445,-2.2610016,0.074459076,-1.6790406,0.25913087,-0.02442627,84.0
1427,0.32912445,-2.2610016,0.074459076,-1.6450561,0.1274414,-0.67225343,84.0
1428,1.0520325,-3.0015411,-0.21317673,-1.6450561,0.1274414,-0.67225343,84.0
1429,1.0520325,-3.0015411,-0.21317673,-1.7640015,0.15823975,-1.177771,84.0
1430,0.9777708,-2.899849,-0.39484787,-1.7640015,0.15823975,-1.177771,84.0
1431,0.9777708,-2.899849,-0.39484787,-1.5813354,0.13487549,-1.7385132,84.0
1432,-0.6177473,-2.0779648,-0.17115021,-1.5813354,0.13487549,-1.7385132,84.0
1433,-0.6177473,-2.0779648,-0.17115021,-1.4252198,-0.010620117,-1.8266602,84.0
1434,-1.8458214,-1.139885,0.19683456,-1.4252198,-0.010620117,-1.8266602,84.0
1435,-1.8458214,-1.139885,0.19683456,-0.903772,-0.08283692,-1.9116211,84.0
1436,-1.427865,-0.42274475,0.21595001,-0.903772,-0.08283692,-1.9116211,84.0
1437,-1.427865,-0.42274475,0.21595001,-0.63720703,-0.070092775,-2.1325195,84.0
1438,-1.427865,-0.42274475,0.21595001,-0.63720703,-0.070092775,-2.1325195,83.0
1439,1.8882751E-4,-0.08670807,-0.10640335,-0.63720703,-0.070092775,-2.1325195,83.0
1440,1.8882751E-4,-0.08670807,-0.10640335,-0.86978763,0.009558106,-2.3279297,83.0
1441,1.0103197,-0.16029358,-0.40493774,-0.86978763,0.009558106,-2.3279297,83.0
1442,1.0103197,-0.16029358,-0.40493774,-1.1055542,0.11682129,-2.4967897,83.0
1443,0.9467325,-0.42814636,-0.5140381,-1.1055542,0.11682129,-2.4967897,83.0
1444,0.9467325,-0.42814636,-0.5140381,-1.0280274,0.16142578,-2.537146,83.0
1445,0.17882156,-0.39274597,-0.46583557,-1.0280274,0.16142578,-2.537146,83.0
1446,0.17882156,-0.39274597,-0.46583557,-0.7657105,0.16461182,-2.537146,83.0
1447,-0.6697607,0.22971344,-0.33454514,-0.7657105,0.16461182,-2.537146,83.0
1448,-0.6697607,0.22971344,-0.33454514,-0.6414551,0.14761963,-2.5105958,83.0
1449,-1.2342825,1.0756454,-0.2316246,-0.6414551,0.14761963,-2.5105958,83.0
1450,-1.2342825,1.0756454,-0.2316246,-0.81987303,0.19541016,-2.3767822,83.0
1451,-1.4465694,1.5221863,-0.2020607,-0.81987303,0.19541016,-2.3767822,83.0
1452,-1.4465694,1.5221863,-0.2020607,-1.1172364,0.31223145,-2.265271,83.0
1453,-1.4627609,1.415245,-0.24396133,-1.1172364,0.31223145,-2.265271,83.0
1454,-1.4627609,1.415245,-0.24396133,-1.2096313,0.4078125,-2.1165893,83.0
1455,-1.308197,1.0313034,-0.2641983,-1.2096313,0.4078125,-2.1165893,83.0
1456,-1.308197,1.0313034,-0.2641983,-0.83898926,0.35789797,-1.9806519,83.0
1457,-0.7264652,0.66724396,-0.19013214,-0.83898926,0.35789797,-1.9806519,83.0
1458,-0.7264652,0.66724396,-0.19013214,-0.46409914,0.2824951,-1.8330323,83.0
1459,0.24164295,0.5051422,-0.010673523,-0.46409914,0.2824951,-1.8330323,83.0
1460,0.24164295,0.5051422,-0.010673523,-0.540564,0.3175415,-1.7746216,83.0
1461,1.1383343,0.38326263,0.23336792,-0.540564,0.3175415,-1.7746216,83.0
1462,1.1383343,0.38326263,0.23336792,-1.0312134,0.4333008,-1.7523193,83.0
1463,1.751585,0.040512085,0.3517456,-1.0312134,0.4333008,-1.7523193,83.0
1464,1.751585,0.040512085,0.3517456,-1.6758546,0.5968506,-1.8139161,83.0
1465,2.2520494,-0.54198456,0.308815,-1.6758546,0.5968506,-1.8139161,83.0
1466,2.2520494,-0.54198456,0.308815,-2.175,0.73703617,-1.8001099,83.0
1467,2.2520494,-0.54198456,0.308815,-2.1335816,0.80819094,-1.7735596,83.0
1468,2.730216,-1.2808762,0.24652863,-2.1335816,0.80819094,-1.7735596,83.0
1469,1.8190231,-1.7148361,0.6213074,-2.1335816,0.80819094,-1.7735596,83.0
1470,1.8190231,-1.7148361,0.6213074,-1.8627685,0.7763306,-1.6949707,83.0
1471,1.8190231,-1.7148361,0.6213074,-1.6578003,0.6690674,-1.4294678,83.0
1472,1.8190231,-1.7148361,0.6213074,-1.5770874,0.39082032,-0.7858887,83.0
1473,1.1378727,-1.4313278,0.74920654,-1.5770874,0.39082032,-0.7858887,83.0
1474,1.1378727,-1.4313278,0.74920654,-1.0768799,0.42692873,-0.54906005,83.0
1475,-0.377141,-0.73838806,0.657177,-1.0768799,0.42692873,-0.54906005,83.0
1476,-0.377141,-0.73838806,0.657177,-0.6287109,0.20603028,0.04248047,83.0
1477,-1.7391148,0.5169296,0.36188507,-0.6287109,0.20603028,0.04248047,83.0
1478,-1.7391148,0.5169296,0.36188507,-0.08496094,-0.12531738,1.0067872,83.0
1479,-1.1307945,1.1803131,-0.012615204,-0.08496094,-0.12531738,1.0067872,83.0
1480,-1.1307945,1.1803131,-0.012615204,0.34833986,-0.33878174,1.5346069,83.0
1481,0.37580872,0.9438095,-0.24184418,0.34833986,-0.33878174,1.5346069,83.0
1482,0.37580872,0.9438095,-0.24184418,0.004248047,-0.4333008,1.9615357,83.0
1483,1.0845089,0.252388,-0.26094437,0.004248047,-0.4333008,1.9615357,83.0
1484,1.0845089,0.252388,-0.26094437,-0.39506838,-0.542688,2.2939453,83.0
1485,0.8080492,-0.643631,-0.17811584,-0.39506838,-0.542688,2.2939453,83.0
1486,0.8080492,-0.643631,-0.17811584,-0.027612304,-0.7051758,2.5201538,83.0
1487,0.14866066,-1.2418213,-0.14707947,-0.027612304,-0.7051758,2.5201538,83.0
1488,0.14866066,-1.2418213,-0.14707947,0.83686525,-0.9398804,2.6762695,83.0
1489,-0.40623093,-1.1667252,-0.23798752,0.83686525,-0.9398804,2.6762695,83.0
1490,-0.40623093,-1.1667252,-0.23798752,1.4730103,-1.0482056,2.788843,83.0
1491,-0.92575455,-0.6599045,-0.34719086,1.4730103,-1.0482056,2.788843,83.0
1492,-0.92575455,-0.6599045,-0.34719086,1.6992188,-1.0174073,2.8706176,83.0
1493,-1.6273956,-0.08919525,-0.38819885,1.6992188,-1.0174073,2.8706176,83.0
1494,-1.6273956,-0.08919525,-0.38819885,1.7788696,-0.9791748,3.064966,83.0
1495,-2.4129763,0.34391785,-0.40008545,1.7788696,-0.9791748,3.064966,83.0
1496,-2.4129763,0.34391785,-0.40008545,2.1303957,-0.9239502,3.3124146,83.0
1497,-2.9092999,0.6524887,-0.46409988,2.1303957,-0.9239502,3.3124146,83.0
1498,-2.9092999,0.6524887,-0.46409988,2.2174804,-0.72323,3.5768554,83.0
1499,-2.7037458,0.8711777,-0.66407776,2.2174804,-0.72323,3.5768554,83.0
1500,-2.7037458,0.8711777,-0.66407776,1.5537232,-0.49277344,3.8487306,83.0
1501,-1.7501545,0.7681351,-1.0221176,1.5537232,-0.49277344,3.8487306,83.0
1502,-1.7501545,0.7681351,-1.0221176,0.8336792,-0.42055663,3.886963,83.0
1503,-0.4244523,-0.0659256,-1.2718315,0.8336792,-0.42055663,3.886963,83.0
1504,-0.4244523,-0.0659256,-1.2718315,0.2177124,-0.49489745,3.5938478,83.0
1505,1.0192633,-1.389679,-1.0237999,0.2177124,-0.49489745,3.5938478,83.0
1506,1.0192633,-1.389679,-1.0237999,-0.06796875,-0.6202149,2.9938111,83.0
1507,2.269683,-2.4012833,-0.18167496,-0.06796875,-0.6202149,2.9938111,83.0
1508,2.269683,-2.4012833,-0.18167496,0.38444826,-0.50445557,2.451123,83.0
1509,2.497778,-2.3633728,0.79878616,0.38444826,-0.50445557,2.451123,83.0
1510,2.497778,-2.3633728,0.79878616,0.5214478,-0.14337158,2.2015502,83.0
1511,1.6140671,-1.2039032,1.2359009,0.5214478,-0.14337158,2.2015502,83.0
1512,1.6140671,-1.2039032,1.2359009,-0.23789063,0.08920898,1.8043579,83.0
1513,0.1590519,0.108177185,1.0675049,-0.23789063,0.08920898,1.8043579,83.0
1514,0.1590519,0.108177185,1.0675049,-0.9834229,0.2527588,1.2138795,83.0
1515,-1.5985279,0.40569305,0.8186798,-0.9834229,0.2527588,1.2138795,83.0
1516,-1.5985279,0.40569305,0.8186798,-1.1554688,0.2793091,0.6180908,83.0
1517,-2.4850235,-0.77272034,0.51955414,-1.1554688,0.2793091,0.6180908,83.0
1518,-2.4850235,-0.77272034,0.51955414,-1.0184692,0.11151123,-0.20284425,83.0
1519,-1.3293514,-2.6434326,-0.03604126,-1.0184692,0.11151123,-0.20284425,83.0
1520,-1.3293514,-2.6434326,-0.03604126,-0.95368654,0.015930176,-1.1437867,83.0
1521,-0.14868641,-3.1680527,-0.24565125,-0.95368654,0.015930176,-1.1437867,83.0
1522,-0.14868641,-3.1680527,-0.24565125,-0.37489015,0.004248047,-1.6939087,83.0
1523,-0.86513996,-1.6346359,0.23366928,-0.37489015,0.004248047,-1.6939087,83.0
1524,-0.86513996,-1.6346359,0.23366928,-0.31223145,-0.22514649,-1.8330323,83.0
1525,-1.6911964,0.41130066,0.7467003,-0.31223145,-0.22514649,-1.8330323,83.0
1526,-1.6911964,0.41130066,0.7467003,-0.26550293,-0.22727051,-1.8245362,83.0
1527,-0.45464182,1.1788712,0.60910034,-0.26550293,-0.22727051,-1.8245362,83.0
1528,-0.45464182,1.1788712,0.60910034,0.02442627,-0.15611573,-2.2886353,83.0
1529,2.2807693,0.5009384,0.013595581,0.02442627,-0.15611573,-2.2886353,83.0
1530,2.2807693,0.5009384,0.013595581,0.17523193,0.087084964,-2.6125488,83.0
1531,3.6726255,-0.12004089,-0.4493866,0.17523193,0.087084964,-2.6125488,83.0
1532,3.6726255,-0.12004089,-0.4493866,0.11151123,0.39506838,-2.6900756,83.0
1533,2.129507,0.18684387,-0.5451927,0.11151123,0.39506838,-2.6900756,83.0
1534,2.129507,0.18684387,-0.5451927,-0.08602295,0.5511841,-2.541394,83.0
1535,-0.7256546,1.1710205,-0.40716553,-0.08602295,0.5511841,-2.541394,83.0
1536,-0.7256546,1.1710205,-0.40716553,0.014868164,0.4885254,-2.439441,83.0
1537,-2.6605043,2.114746,-0.2985611,0.014868164,0.4885254,-2.439441,83.0
1538,-2.6605043,2.114746,-0.2985611,-0.18266602,0.42799073,-2.34917,83.0
1539,-3.0301123,2.3861847,-0.28599167,-0.18266602,0.42799073,-2.34917,83.0
1540,-3.0301123,2.3861847,-0.28599167,-0.8867798,0.5161377,-2.2971313,83.0
1541,-2.3373222,1.792984,-0.3560028,-0.8867798,0.5161377,-2.2971313,83.0
1542,-2.3373222,1.792984,-0.3560028,-1.6100098,0.67650145,-2.2344728,83.0
1543,-1.303,0.6822891,-0.42794037,-1.6100098,0.67650145,-2.2344728,83.0
1544,-1.303,0.6822891,-0.42794037,-1.4761963,0.7986328,-2.18031,83.0
1545,-0.33610106,-0.17398071,-0.38223267,-1.4761963,0.7986328,-2.18031,83.0
1546,-0.33610106,-0.17398071,-0.38223267,-0.9165161,0.7763306,-2.3151855,83.0
1547,0.61562824,-0.3707657,-0.17883301,-0.9165161,0.7763306,-2.3151855,83.0
1548,0.61562824,-0.3707657,-0.17883301,-0.7763306,0.7954468,-2.353418,83.0
1549,1.7053566,-0.42648315,0.104213715,-0.7763306,0.7954468,-2.353418,83.0
1550,1.7053566,-0.42648315,0.104213715,-1.0099732,0.84323734,-2.3215578,83.0
1551,2.676077,-0.8525162,0.3311844,-1.0099732,0.84323734,-2.3215578,83.0
1552,2.676077,-0.8525162,0.3311844,-1.0970582,0.95368654,-2.3874023,83.0
1553,2.7304974,-1.2172623,0.4089775,-1.0970582,0.95368654,-2.3874023,83.0
1554,2.7304974,-1.2172623,0.4089775,-1.0970582,0.95368654,-2.3874023,83.0
1555,2.7304974,-1.2172623,0.4089775,-0.817749,0.9802368,-2.3109376,83.0
1556,1.7817249,-1.074791,0.4070511,-0.817749,0.9802368,-2.3109376,83.0
1557,1.7817249,-1.074791,0.4070511,-0.35683593,0.7943848,-1.8723267,83.0
1558,0.99034595,-0.5384674,0.44150925,-0.35683593,0.7943848,-1.8723267,83.0
1559,0.99034595,-0.5384674,0.44150925,0.10513916,0.62340087,-1.3944215,83.0
1560,0.9190836,0.0639801,0.46588898,0.10513916,0.62340087,-1.3944215,83.0
1561,0.9190836,0.0639801,0.46588898,0.28568116,0.38444826,-0.8772217,83.0
1562,0.9141731,0.5859604,0.482769,0.28568116,0.38444826,-0.8772217,83.0
1563,0.9141731,0.5859604,0.482769,0.27718505,0.16248779,-0.4619751,83.0
1564,0.7322054,0.89250946,0.46167755,0.27718505,0.16248779,-0.4619751,83.0
1565,0.7322054,0.89250946,0.46167755,0.14230958,-0.06903076,-0.0361084,83.0
1566,1.0298071,0.48845673,0.32688522,0.14230958,-0.06903076,-0.0361084,83.0
1567,1.0298071,0.48845673,0.32688522,0.057348635,-0.08602295,0.3536499,83.0
1568,0.6064997,0.07335663,0.13830185,0.057348635,-0.08602295,0.3536499,83.0
1569,0.6064997,0.07335663,0.13830185,0.5171997,-0.07115479,0.3334717,83.0
1570,-0.9919729,0.27120972,-0.16190338,0.5171997,-0.07115479,0.3334717,83.0
1571,-0.9919729,0.27120972,-0.16190338,1.1915772,-0.38338622,1.0790039,83.0
1572,-0.82778263,0.2403183,-0.47393417,1.1915772,-0.38338622,1.0790039,83.0
1573,-0.82778263,0.2403183,-0.47393417,2.0507448,-0.69136965,1.6121339,83.0
1574,1.8292894,-0.0055618286,-0.58161163,2.0507448,-0.69136965,1.6121339,83.0
1575,1.8292894,-0.0055618286,-0.58161163,2.9513307,-0.7965088,1.7831177,83.0
1576,3.9951572,0.3976822,-0.439106,2.9513307,-0.7965088,1.7831177,83.0
1577,3.9951572,0.3976822,-0.439106,3.0331056,-0.7890747,1.9307374,83.0
1578,3.8391552,1.31147,-0.093105316,3.0331056,-0.7890747,1.9307374,83.0
1579,3.8391552,1.31147,-0.093105316,2.5222778,-0.71791995,2.1155274,83.0
1580,2.1604843,1.9525833,0.33132553,2.5222778,-0.71791995,2.1155274,83.0
1581,2.1604843,1.9525833,0.33132553,2.2684572,-0.6690674,2.3321779,83.0
1582,0.08710289,2.101326,0.58520126,2.2684572,-0.6690674,2.3321779,83.0
1583,0.08710289,2.101326,0.58520126,1.9572877,-0.49383545,2.5647583,83.0
1584,-1.9342003,2.0328827,0.54379654,1.9572877,-0.49383545,2.5647583,83.0
1585,-1.9342003,2.0328827,0.54379654,1.2308716,-0.2984253,2.8493774,83.0
1586,-3.6493492,1.6947632,0.32682037,1.2308716,-0.2984253,2.8493774,83.0
1587,-3.6493492,1.6947632,0.32682037,0.7423462,-0.21027832,3.1924074,83.0
1588,-4.784446,0.94688416,0.041007996,0.7423462,-0.21027832,3.1924074,83.0
1589,-4.784446,0.94688416,0.041007996,0.6701294,-0.22833252,3.4249878,83.0
1590,-5.0571833,0.028785706,-0.21031952,0.6701294,-0.22833252,3.4249878,83.0
1591,-5.0571833,0.028785706,-0.21031952,0.8612915,-0.3175415,3.5917237,83.0
