,accx,accy,accz,gyrox,gyroy,gyroz,heart rate
0,walk,walk,walk,walk,walk,walk,walk
1,-7.761133,-60.92018,36.409863,0.0,0.0,0.0,0.0
2,-7.761133,-60.92018,36.409863,0.36745605,-0.08071289,-0.69349366,0.0
3,-7.761133,-60.92018,36.409863,0.11044922,-0.057348635,-0.6244629,0.0
4,-6.0335646,-48.619236,28.649279,0.11044922,-0.057348635,-0.6244629,0.0
5,-4.7399254,-38.945854,22.682728,0.11044922,-0.057348635,-0.6244629,0.0
6,-4.7399254,-38.945854,22.682728,-0.08496094,-0.06478272,-0.6223389,0.0
7,-3.7818089,-31.333149,18.210379,-0.08496094,-0.06478272,-0.6223389,0.0
8,-3.7818089,-31.333149,18.210379,-0.26868898,-0.07434082,-0.62340087,0.0
9,-3.0186844,-25.237518,14.719963,-0.26868898,-0.07434082,-0.62340087,0.0
10,-3.0186844,-25.237518,14.719963,-0.45454103,-0.0361084,-0.60959476,0.0
11,-2.3699522,-20.396412,11.820076,-0.45454103,-0.0361084,-0.60959476,0.0
12,-2.3699522,-20.396412,11.820076,-0.45029297,-0.019116212,-0.5734863,0.0
13,-1.8149805,-16.537918,9.384174,-0.45029297,-0.019116212,-0.5734863,0.0
14,-1.8149805,-16.537918,9.384174,-0.29948732,-0.047790527,-0.541626,0.0
15,-1.3832588,-13.308594,7.449795,-0.29948732,-0.047790527,-0.541626,0.0
16,-1.3832588,-13.308594,7.449795,-0.20921631,-0.09451904,-0.5012695,0.0
17,-1.0877471,-10.583366,5.9861794,-0.20921631,-0.09451904,-0.5012695,0.0
18,-1.0877471,-10.583366,5.9861794,-0.20284425,-0.15611573,-0.41737062,0.0
19,-0.8970413,-8.430267,4.8784103,-0.20284425,-0.15611573,-0.41737062,0.0
20,-0.8970413,-8.430267,4.8784103,-0.18160401,-0.22302246,-0.31116945,0.0
21,-0.77594566,-6.7676163,4.0089645,-0.18160401,-0.22302246,-0.31116945,0.0
22,-0.77594566,-6.7676163,4.0089645,-0.14974366,-0.24638672,-0.23258057,0.0
23,-0.77594566,-6.7676163,4.0089645,-0.14974366,-0.24638672,-0.23258057,98.0
24,-0.6533003,-5.423935,3.3050957,-0.14974366,-0.24638672,-0.23258057,98.0
25,-0.6533003,-5.423935,3.3050957,-0.095581055,-0.23789063,-0.19328614,98.0
26,-0.47128487,-4.2926865,2.7230911,-0.095581055,-0.23789063,-0.19328614,98.0
27,-0.47128487,-4.2926865,2.7230911,-0.07965088,-0.19328614,-0.19753419,98.0
28,-0.21495533,-3.3922272,2.254387,-0.07965088,-0.19328614,-0.19753419,98.0
29,-0.21495533,-3.3922272,2.254387,-0.083898924,-0.13487549,-0.22302246,98.0
30,-0.21495533,-3.3922272,2.254387,-0.10407715,-0.07965088,-0.21452637,98.0
31,0.06144619,-2.758232,1.8896408,-0.10407715,-0.07965088,-0.21452637,98.0
32,0.23895168,-2.228447,1.5314522,-0.10407715,-0.07965088,-0.21452637,98.0
33,0.23895168,-2.228447,1.5314522,-0.20496826,-0.013806152,-0.20072022,98.0
34,0.26113224,-1.6561966,1.1466599,-0.20496826,-0.013806152,-0.20072022,98.0
35,0.26113224,-1.6561966,1.1466599,-0.3695801,0.058410645,-0.21452637,98.0
36,0.17667866,-1.2569656,0.8223686,-0.3695801,0.058410645,-0.21452637,98.0
37,0.17667866,-1.2569656,0.8223686,-0.34940186,0.0637207,-0.22089843,98.0
38,0.09737301,-1.1524353,0.6223335,-0.34940186,0.0637207,-0.22089843,98.0
39,0.09737301,-1.1524353,0.6223335,-0.26762697,0.0541626,-0.2262085,98.0
40,0.08525944,-1.1501236,0.4813385,-0.26762697,0.0541626,-0.2262085,98.0
41,0.08525944,-1.1501236,0.4813385,-0.17947999,0.038232423,-0.20390625,98.0
42,0.12268734,-1.0514603,0.28614807,-0.17947999,0.038232423,-0.20390625,98.0
43,0.12268734,-1.0514603,0.28614807,-0.13168946,0.009558106,-0.16779785,98.0
44,0.11913395,-0.84386444,0.060325623,-0.13168946,0.009558106,-0.16779785,98.0
45,0.11913395,-0.84386444,0.060325623,-0.08283692,-0.03186035,-0.14230958,98.0
46,0.0221138,-0.6373596,-0.07539749,-0.08283692,-0.03186035,-0.14230958,98.0
47,0.0221138,-0.6373596,-0.07539749,-0.019116212,-0.07646485,-0.13168946,98.0
48,-0.10137653,-0.49837494,-0.07588196,-0.019116212,-0.07646485,-0.13168946,98.0
49,-0.10137653,-0.49837494,-0.07588196,-0.013806152,-0.10620117,-0.10938721,98.0
50,-0.18913364,-0.4110031,-0.026245117,-0.013806152,-0.10620117,-0.10938721,98.0
51,-0.18913364,-0.4110031,-0.026245117,-0.047790527,-0.11151123,-0.081774905,98.0
52,-0.24207878,-0.3316574,-0.04449463,-0.047790527,-0.11151123,-0.081774905,98.0
53,-0.24207878,-0.3316574,-0.04449463,-0.04141846,-0.1178833,-0.040356446,98.0
54,-0.272398,-0.24972534,-0.11517334,-0.04141846,-0.1178833,-0.040356446,98.0
55,-0.272398,-0.24972534,-0.11517334,0.004248047,-0.13699952,0.0,98.0
56,-0.272398,-0.24972534,-0.11517334,0.04460449,-0.15717773,0.012744141,98.0
57,-0.30438042,-0.19065857,-0.12602615,0.04460449,-0.15717773,0.012744141,98.0
58,-0.28487396,-0.1515274,-0.060440063,0.04460449,-0.15717773,0.012744141,98.0
59,-0.28487396,-0.1515274,-0.060440063,0.04141846,-0.14018555,0.022302246,98.0
60,-0.19760132,-0.0954895,-0.012817383,0.04141846,-0.14018555,0.022302246,98.0
61,-0.19760132,-0.0954895,-0.012817383,-0.057348635,-0.107263185,0.0180542,98.0
62,-0.15200233,-0.03907776,-0.016235352,-0.057348635,-0.107263185,0.0180542,98.0
63,-0.15200233,-0.03907776,-0.016235352,-0.1529297,-0.09133301,0.04885254,98.0
64,-0.1685257,-0.04058838,-0.002002716,-0.1529297,-0.09133301,0.04885254,98.0
65,-0.1685257,-0.04058838,-0.002002716,-0.14761963,-0.08920898,0.10407715,98.0
66,-0.19959164,-0.09233093,0.07594681,-0.14761963,-0.08920898,0.10407715,98.0
67,-0.19959164,-0.09233093,0.07594681,-0.10513916,-0.09664307,0.14230958,98.0
68,-0.20187283,-0.11566162,0.18309784,-0.10513916,-0.09664307,0.14230958,98.0
69,-0.20187283,-0.11566162,0.18309784,-0.08283692,-0.060534667,0.15080567,98.0
70,-0.14898586,-0.0752182,0.25517273,-0.08283692,-0.060534667,0.15080567,98.0
71,-0.14898586,-0.0752182,0.25517273,-0.05628662,-0.0031860352,0.1359375,98.0
72,-0.05717659,0.014175415,0.21761322,-0.05628662,-0.0031860352,0.1359375,98.0
73,-0.05717659,0.014175415,0.21761322,-0.07327881,0.057348635,0.11257324,98.0
74,0.025316238,0.09855652,0.10538864,-0.07327881,0.057348635,0.11257324,98.0
75,0.025316238,0.09855652,0.10538864,-0.10195313,0.098767094,0.10407715,98.0
76,0.06783581,0.12448883,0.0034637451,-0.10195313,0.098767094,0.10407715,98.0
77,0.06783581,0.12448883,0.0034637451,-0.09133301,0.10513916,0.121069334,98.0
78,0.08511639,0.11437225,-0.06526184,-0.09133301,0.10513916,0.121069334,98.0
79,0.08511639,0.11437225,-0.06526184,-0.083898924,0.09770508,0.12531738,98.0
80,0.11129379,0.067489624,-0.11583328,-0.083898924,0.09770508,0.12531738,98.0
81,0.11129379,0.067489624,-0.11583328,-0.08496094,0.09451904,0.11257324,98.0
82,0.11129379,0.067489624,-0.11583328,-0.06796875,0.08283692,0.09239502,98.0
83,0.13764286,-0.006111145,-0.12722397,-0.06796875,0.08283692,0.09239502,98.0
84,0.15399837,-0.045463562,-0.119529724,-0.06796875,0.08283692,0.09239502,98.0
85,0.15399837,-0.045463562,-0.119529724,-0.098767094,0.06796875,0.06478272,98.0
86,0.14291286,-0.05305481,-0.097343445,-0.098767094,0.06796875,0.06478272,98.0
87,0.14291286,-0.05305481,-0.097343445,-0.12531738,0.05522461,0.03717041,98.0
88,0.103588104,-0.07873535,-0.06341934,-0.12531738,0.05522461,0.03717041,98.0
89,0.103588104,-0.07873535,-0.06341934,-0.11469727,0.027612304,0.027612304,98.0
90,0.07972145,-0.09700775,-0.048599243,-0.11469727,0.027612304,0.027612304,98.0
91,0.07972145,-0.09700775,-0.048599243,-0.10407715,0.0021240234,0.010620117,98.0
92,0.088142395,-0.095588684,-0.039016724,-0.10407715,0.0021240234,0.010620117,98.0
93,0.088142395,-0.095588684,-0.039016724,-0.060534667,-0.019116212,-0.0010620117,98.0
94,0.087530136,-0.09673309,-0.027332306,-0.060534667,-0.019116212,-0.0010620117,98.0
95,0.087530136,-0.09673309,-0.027332306,-0.04248047,-0.022302246,-0.004248047,98.0
96,0.08368397,-0.04296112,-0.05848694,-0.04248047,-0.022302246,-0.004248047,98.0
97,0.08368397,-0.04296112,-0.05848694,-0.0722168,-0.025488282,-0.015930176,98.0
98,0.06807041,0.05516815,-0.11998367,-0.0722168,-0.025488282,-0.015930176,98.0
99,0.06807041,0.05516815,-0.11998367,-0.081774905,-0.04460449,-0.022302246,98.0
100,0.0407238,0.10128784,-0.13176346,-0.081774905,-0.04460449,-0.022302246,98.0
101,0.0407238,0.10128784,-0.13176346,-0.06265869,-0.06478272,-0.028674318,98.0
102,-0.0057144165,0.079422,-0.08427048,-0.06265869,-0.06478272,-0.028674318,98.0
103,-0.0057144165,0.079422,-0.08427048,-0.045666505,-0.08283692,-0.026550293,98.0
104,-0.05303383,0.03781891,-0.041160583,-0.045666505,-0.08283692,-0.026550293,98.0
105,-0.05303383,0.03781891,-0.041160583,-0.03717041,-0.08814698,-0.047790527,98.0
106,-0.06265354,0.028617859,-0.050689697,-0.03717041,-0.08814698,-0.047790527,98.0
107,-0.06265354,0.028617859,-0.050689697,-0.025488282,-0.07752686,-0.08814698,98.0
108,-0.026745796,0.016044617,-0.10097885,-0.025488282,-0.07752686,-0.08814698,98.0
109,-0.026745796,0.016044617,-0.10097885,-0.025488282,-0.07115479,-0.11682129,98.0
110,0.012160301,0.014572144,-0.14427185,-0.025488282,-0.07115479,-0.11682129,98.0
111,0.012160301,0.014572144,-0.14427185,-0.059472658,-0.06478272,-0.13062744,98.0
112,0.12603664,0.11748505,-0.14089203,-0.059472658,-0.06478272,-0.13062744,98.0
113,0.12603664,0.11748505,-0.14089203,-0.2888672,-0.09133301,0.078588866,98.0
114,0.13538742,0.20054626,-0.16337204,-0.2888672,-0.09133301,0.078588866,98.0
115,0.13538742,0.20054626,-0.16337204,-0.2538208,-0.06478272,-0.12000733,98.0
116,0.0075531006,0.15631104,-0.2168274,-0.2538208,-0.06478272,-0.12000733,98.0
117,0.0075531006,0.15631104,-0.2168274,-0.18054199,-0.087084964,-0.16779785,98.0
118,0.04938984,0.07550812,-0.20475006,-0.18054199,-0.087084964,-0.16779785,98.0
119,0.04938984,0.07550812,-0.20475006,-0.1274414,-0.1263794,-0.1359375,98.0
120,0.15857887,0.03678131,-0.13340378,-0.1274414,-0.1263794,-0.1359375,98.0
121,0.15857887,0.03678131,-0.13340378,-0.0998291,-0.12319336,-0.107263185,98.0
122,0.15857887,0.03678131,-0.13340378,-0.0998291,-0.12319336,-0.107263185,98.0
123,0.19964123,0.05731964,-0.011108398,-0.0998291,-0.12319336,-0.107263185,98.0
124,0.19964123,0.05731964,-0.011108398,-0.06796875,-0.11044922,-0.10301514,98.0
125,0.17608261,0.069107056,0.14886475,-0.06796875,-0.11044922,-0.10301514,98.0
126,0.17608261,0.069107056,0.14886475,-0.06584473,-0.090270996,-0.0998291,98.0
127,0.16123962,0.047828674,0.25483322,-0.06584473,-0.090270996,-0.0998291,98.0
128,0.16123962,0.047828674,0.25483322,-0.12000733,-0.043542482,-0.078588866,98.0
129,0.16409874,0.063308716,0.23604202,-0.12000733,-0.043542482,-0.078588866,98.0
130,0.16409874,0.063308716,0.23604202,-0.18797608,0.013806152,-0.07327881,98.0
131,0.14567089,0.13185883,0.12368393,-0.18797608,0.013806152,-0.07327881,98.0
132,0.14567089,0.13185883,0.12368393,-0.20284425,0.038232423,-0.070092775,98.0
133,0.12165165,0.22895813,-0.026626587,-0.20284425,0.038232423,-0.070092775,98.0
134,0.12165165,0.22895813,-0.026626587,-0.1985962,0.025488282,-0.058410645,98.0
135,0.11410618,0.32666016,-0.15771484,-0.1985962,0.025488282,-0.058410645,98.0
136,0.11410618,0.32666016,-0.15771484,-0.20390625,-0.0180542,-0.053100586,98.0
137,0.14133358,0.3662567,-0.21335602,-0.20390625,-0.0180542,-0.053100586,98.0
138,0.14133358,0.3662567,-0.21335602,-0.1901001,-0.058410645,-0.038232423,98.0
139,0.19943142,0.2946396,-0.15149689,-0.1901001,-0.058410645,-0.038232423,98.0
140,0.19943142,0.2946396,-0.15149689,-0.18160401,-0.09133301,-0.010620117,98.0
141,0.21265793,0.15477753,-0.028621674,-0.18160401,-0.09133301,-0.010620117,98.0
142,0.21265793,0.15477753,-0.028621674,-0.18054199,-0.095581055,0.032922365,98.0
143,0.13597107,0.077301025,0.037036896,-0.18054199,-0.095581055,0.032922365,98.0
144,0.13597107,0.077301025,0.037036896,-0.15717773,-0.083898924,0.05628662,98.0
145,0.033862114,0.14105225,0.0020523071,-0.15717773,-0.083898924,0.05628662,98.0
146,0.033862114,0.14105225,0.0020523071,-0.15505372,-0.05628662,0.053100586,98.0
147,-0.040146828,0.26830292,-0.111442566,-0.15505372,-0.05628662,0.053100586,98.0
148,-0.040146828,0.26830292,-0.111442566,-0.1529297,-0.029736329,0.03717041,98.0
149,-0.07097244,0.32502747,-0.22117233,-0.1529297,-0.029736329,0.03717041,98.0
150,-0.07097244,0.32502747,-0.22117233,-0.1083252,-0.022302246,0.039294433,98.0
151,-0.07970238,0.31430817,-0.2476883,-0.1083252,-0.022302246,0.039294433,98.0
152,-0.07970238,0.31430817,-0.2476883,-0.078588866,0.0,0.046728518,98.0
153,-0.08243847,0.29566956,-0.2059784,-0.078588866,0.0,0.046728518,98.0
154,-0.08243847,0.29566956,-0.2059784,-0.05628662,0.033984374,0.023364259,98.0
155,-0.070687294,0.21173096,-0.13887787,-0.05628662,0.033984374,0.023364259,98.0
156,-0.070687294,0.21173096,-0.13887787,-0.016992187,0.07434082,0.0021240234,98.0
157,-0.022675514,0.041152954,-0.06585312,-0.016992187,0.07434082,0.0021240234,98.0
158,-0.022675514,0.041152954,-0.06585312,0.025488282,0.10620117,-0.0031860352,98.0
159,0.08862209,-0.15274811,-0.0071640015,0.025488282,0.10620117,-0.0031860352,98.0
160,0.08862209,-0.15274811,-0.0071640015,0.07434082,0.14124756,-0.0031860352,98.0
161,0.1971674,-0.3285675,0.025348663,0.07434082,0.14124756,-0.0031860352,98.0
162,0.1971674,-0.3285675,0.025348663,0.14974366,0.15186767,-0.004248047,98.0
163,0.22376156,-0.41477966,0.03907776,0.14974366,0.15186767,-0.004248047,98.0
164,0.22376156,-0.41477966,0.03907776,0.23682861,0.16354981,-0.0021240234,98.0
165,0.14334011,-0.27529144,0.06995773,0.23682861,0.16354981,-0.0021240234,98.0
166,0.14334011,-0.27529144,0.06995773,0.23789063,0.13699952,0.12213135,98.0
167,-0.14192009,-0.017204285,0.14418793,0.23789063,0.13699952,0.12213135,98.0
168,-0.14192009,-0.017204285,0.14418793,0.2262085,0.06265869,0.14337158,98.0
169,-0.5278301,-0.02431488,0.3212204,0.2262085,0.06265869,0.14337158,98.0
170,-0.5278301,-0.02431488,0.3212204,0.29311523,0.13168946,-0.19541016,98.0
171,-0.46607494,-0.30177307,0.6872368,0.29311523,0.13168946,-0.19541016,98.0
172,-0.46607494,-0.30177307,0.6872368,0.23045655,0.35046387,-0.45135498,98.0
173,0.18409824,-0.31195068,0.999424,0.23045655,0.35046387,-0.45135498,98.0
174,0.18409824,-0.31195068,0.999424,-0.3058594,0.5533081,-0.39613038,98.0
175,0.56558895,0.05303955,0.76605606,-0.3058594,0.5533081,-0.39613038,98.0
176,0.56558895,0.05303955,0.76605606,-0.77951664,0.5320679,-0.16779785,98.0
177,0.12042713,0.37937927,0.0721817,-0.77951664,0.5320679,-0.16779785,98.0
178,0.12042713,0.37937927,0.0721817,-0.6467652,0.3079834,0.046728518,98.0
179,-0.5354214,0.4769287,-0.45947647,-0.6467652,0.3079834,0.046728518,98.0
180,-0.5354214,0.4769287,-0.45947647,-0.3695801,0.15717773,0.10938721,98.0
181,-0.7838297,0.3067627,-0.5460243,-0.3695801,0.15717773,0.10938721,98.0
182,-0.7838297,0.3067627,-0.5460243,-0.2347046,0.14124756,0.107263185,98.0
183,6.8430414,61.11752,-35.72979,-0.2347046,0.14124756,0.107263185,98.0
184,6.8430414,61.11752,-35.72979,-0.057348635,0.11363526,0.14230958,98.0
185,-2.35855,-12.831696,6.8111763,-0.057348635,0.11363526,0.14230958,98.0
186,-2.35855,-12.831696,6.8111763,0.24532472,0.06265869,0.13487549,98.0
187,-1.9474235,-10.382103,5.47493,0.24532472,0.06265869,0.13487549,98.0
188,-1.9474235,-10.382103,5.47493,0.44498292,0.032922365,0.045666505,98.0
189,-1.396965,-8.025497,4.1958885,0.44498292,0.032922365,0.045666505,98.0
190,-1.396965,-8.025497,4.1958885,0.34727785,0.057348635,-0.06690674,98.0
191,-0.93909264,-6.100891,3.007492,0.34727785,0.057348635,-0.06690674,98.0
192,-0.93909264,-6.100891,3.007492,0.07434082,0.05522461,-0.15717773,98.0
193,-0.81714344,-4.8669586,2.046482,0.07434082,0.05522461,-0.15717773,98.0
194,-0.81714344,-4.8669586,2.046482,-0.16779785,-0.007434082,-0.22089843,98.0
195,-0.90061474,-4.234398,1.4289818,-0.16779785,-0.007434082,-0.22089843,98.0
196,-0.90061474,-4.234398,1.4289818,-0.22727051,-0.08496094,-0.29630128,98.0
197,-0.7926235,-3.811821,1.1263504,-0.22727051,-0.08496094,-0.29630128,98.0
198,-0.7926235,-3.811821,1.1263504,-0.31329346,-0.121069334,-0.32922363,98.0
199,-0.4159956,-3.3196259,5.1105385,-0.31329346,-0.121069334,-0.32922363,98.0
200,-0.4159956,-3.3196259,5.1105385,-0.40250245,-0.17735596,-0.3164795,98.0
201,-0.013289452,-2.6683578,-0.23442078,-0.40250245,-0.17735596,-0.3164795,98.0
202,-0.013289452,-2.6683578,-0.23442078,-0.36745605,-0.2803711,-0.3090454,98.0
203,0.26486874,-1.8412018,-0.51337814,-0.36745605,-0.2803711,-0.3090454,98.0
204,0.26486874,-1.8412018,-0.51337814,-0.33771974,-0.362146,-0.3334717,98.0
205,0.41394615,-1.0580063,-0.78215027,-0.33771974,-0.362146,-0.3334717,98.0
206,0.41394615,-1.0580063,-0.78215027,-0.39294434,-0.38869628,-0.35789797,98.0
207,0.4301195,-0.51364136,-0.9150162,-0.39294434,-0.38869628,-0.35789797,98.0
208,0.4301195,-0.51364136,-0.9150162,-0.48215333,-0.4088745,-0.42161867,98.0
209,0.34799004,-0.15995789,-0.93065643,-0.48215333,-0.4088745,-0.42161867,98.0
210,0.34799004,-0.15995789,-0.93065643,-0.59472656,-0.4343628,-0.55543214,98.0
211,0.27862358,0.054122925,-0.84845734,-0.59472656,-0.4343628,-0.55543214,98.0
212,0.27862358,0.054122925,-0.84845734,-0.73809814,-0.4322388,-0.7391602,98.0
213,0.32924652,-0.052513123,-0.6562309,-0.73809814,-0.4322388,-0.7391602,98.0
214,0.32924652,-0.052513123,-0.6562309,-0.8591675,-0.3462158,-0.8729736,98.0
215,0.4867611,-0.4884491,-0.45937347,-0.8591675,-0.3462158,-0.8729736,98.0
216,0.4867611,-0.4884491,-0.45937347,-0.8400513,-0.3334717,-0.97386473,98.0
217,0.7055712,-0.75146484,-0.3736534,-0.8400513,-0.3334717,-0.97386473,98.0
218,0.7055712,-0.75146484,-0.3736534,-0.7805786,-0.39082032,-1.1374146,98.0
219,0.9991245,-0.5721817,-0.3924408,-0.7805786,-0.39082032,-1.1374146,98.0
220,0.9991245,-0.5721817,-0.3924408,-0.817749,-0.452417,-1.3689331,98.0
221,1.3316846,-0.2738495,-0.44403076,-0.817749,-0.452417,-1.3689331,98.0
222,1.3316846,-0.2738495,-0.44403076,-0.99510497,-0.44179687,-1.6567383,98.0
223,1.6902623,-0.24976349,-0.49390793,-0.99510497,-0.44179687,-1.6567383,98.0
224,1.6902623,-0.24976349,-0.49390793,-1.2595459,-0.34090576,-1.9647217,98.0
225,2.0908208,-0.46085358,-0.58148193,-1.2595459,-0.34090576,-1.9647217,98.0
226,2.0908208,-0.46085358,-0.58148193,-1.5770874,-0.21346436,-2.3321779,98.0
227,2.5161257,-0.5487976,-0.84571457,-1.5770874,-0.21346436,-2.3321779,98.0
228,2.5161257,-0.5487976,-0.84571457,-1.9710938,-0.1083252,-2.7484863,98.0
229,2.9203467,-0.3515625,-1.3006439,-1.9710938,-0.1083252,-2.7484863,98.0
230,2.9203467,-0.3515625,-1.3006439,-2.456433,-0.023364259,-3.2232056,98.0
231,3.3010116,-0.049621582,-1.7417107,-2.456433,-0.023364259,-3.2232056,98.0
232,3.3010116,-0.049621582,-1.7417107,-3.0150514,0.021240234,-3.8901489,98.0
233,3.8892224,0.108291626,-1.936924,-3.0150514,0.021240234,-3.8901489,98.0
234,3.8892224,0.108291626,-1.936924,-3.6448243,0.060534667,-4.669666,98.0
235,4.8651867,0.12699127,-1.922905,-3.6448243,0.060534667,-4.669666,98.0
236,4.8651867,0.12699127,-1.922905,-4.3680544,0.09664307,-5.244214,98.0
237,5.8260484,0.27786255,-1.9845772,-4.3680544,0.09664307,-5.244214,98.0
238,5.8260484,0.27786255,-1.9845772,-5.177307,0.20921631,-5.550073,98.0
239,6.0590076,0.6827545,-2.21447,-5.177307,0.20921631,-5.550073,98.0
240,6.0590076,0.6827545,-2.21447,-5.177307,0.20921631,-5.550073,98.0
241,6.0590076,0.6827545,-2.21447,-5.810266,0.34833986,-5.7401733,98.0
242,5.454897,1.1184616,-2.4079666,-5.810266,0.34833986,-5.7401733,98.0
243,5.454897,1.1184616,-2.4079666,-5.956824,0.2793091,-5.782654,98.0
244,4.346498,1.6095123,-2.3914719,-5.956824,0.2793091,-5.782654,98.0
245,4.346498,1.6095123,-2.3914719,-5.8357544,0.083898924,-5.689197,98.0
246,3.008302,2.2176285,-2.0574417,-5.8357544,0.083898924,-5.689197,98.0
247,3.008302,2.2176285,-2.0574417,-5.5744996,-0.25594482,-5.4555545,98.0
248,1.699049,2.7145462,-1.41148,-5.5744996,-0.25594482,-5.4555545,98.0
249,1.699049,2.7145462,-1.41148,-5.0296874,-0.5703003,-5.160315,98.0
250,0.6411972,2.8560257,-0.5506439,-5.0296874,-0.5703003,-5.160315,98.0
251,0.6411972,2.8560257,-0.5506439,-4.0929933,-0.88359374,-4.7631226,98.0
252,0.050628662,2.4963684,0.3274765,-4.0929933,-0.88359374,-4.7631226,98.0
253,0.050628662,2.4963684,0.3274765,-2.6560915,-0.991919,-4.324512,98.0
254,-0.16833496,1.824173,0.7828064,-2.6560915,-0.991919,-4.324512,98.0
255,-0.16833496,1.824173,0.7828064,-0.8995239,-0.9526245,-3.8147461,98.0
256,-0.49763203,1.493393,0.46638107,-0.8995239,-0.9526245,-3.8147461,98.0
257,-0.49763203,1.493393,0.46638107,0.2984253,-0.7890747,-3.2964845,98.0
258,-1.0752053,1.9731598,-0.54053116,0.2984253,-0.7890747,-3.2964845,98.0
259,-1.0752053,1.9731598,-0.54053116,0.31435546,-0.54587406,-2.7792847,98.0
260,-1.6259725,2.913597,-1.6509666,0.31435546,-0.54587406,-2.7792847,98.0
261,-1.6259725,2.913597,-1.6509666,-0.47578126,-0.118945315,-2.4203248,98.0
262,-2.0891082,3.7062225,-2.0554276,-0.47578126,-0.118945315,-2.4203248,98.0
263,-2.0891082,3.7062225,-2.0554276,-1.5962037,0.11363526,-2.1643798,98.0
264,-2.3077123,3.9149399,-1.5908394,-1.5962037,0.11363526,-2.1643798,98.0
265,-2.3077123,3.9149399,-1.5908394,-2.5594482,0.26444092,-1.9445435,98.0
266,-2.0521145,3.4199524,-0.74312973,-2.5594482,0.26444092,-1.9445435,98.0
267,-2.0521145,3.4199524,-0.74312973,-3.160547,0.41949463,-1.6716064,98.0
268,-1.5708055,2.4879303,-0.010227203,-3.160547,0.41949463,-1.6716064,98.0
269,-1.5708055,2.4879303,-0.010227203,-3.3899415,0.5214478,-1.4560181,98.0
270,-1.186271,1.6229935,0.40301132,-3.3899415,0.5214478,-1.4560181,98.0
271,-1.186271,1.6229935,0.40301132,-3.448352,0.5299439,-1.2871583,98.0
272,-0.9595636,1.059166,0.59708023,-3.448352,0.5299439,-1.2871583,98.0
273,-0.9595636,1.059166,0.59708023,-3.4228637,0.5171997,-1.179895,98.0
274,-0.8884151,0.62898254,0.7869415,-3.4228637,0.5171997,-1.179895,98.0
275,-0.8884151,0.62898254,0.7869415,-3.1424928,0.43967286,-1.083252,98.0
276,-0.9982077,0.29587555,1.0342293,-3.1424928,0.43967286,-1.083252,98.0
277,-0.9982077,0.29587555,1.0342293,-2.619983,0.30161133,-1.0195312,98.0
278,-1.1916203,0.16265106,1.2588043,-2.619983,0.30161133,-1.0195312,98.0
279,-1.1916203,0.16265106,1.2588043,-1.9509156,0.07965088,-0.96643066,98.0
280,-1.2038335,0.12955475,1.4171867,-1.9509156,0.07965088,-0.96643066,98.0
281,-1.2038335,0.12955475,1.4171867,-1.2351197,-0.13699952,-0.9122681,98.0
282,-0.9048392,0.08244324,1.4646568,-1.2351197,-0.13699952,-0.9122681,98.0
283,-0.9048392,0.08244324,1.4646568,-0.5522461,-0.31223145,-0.7880127,98.0
284,-0.429865,0.101242065,1.4180145,-0.5522461,-0.31223145,-0.7880127,98.0
285,-0.429865,0.101242065,1.4180145,-0.2166504,-0.3982544,-0.6149048,98.0
286,0.13835895,0.16400146,1.3618507,-0.2166504,-0.3982544,-0.6149048,98.0
287,0.13835895,0.16400146,1.3618507,-0.12531738,-0.46516114,-0.4364868,98.0
288,0.95576775,0.105148315,1.3224525,-0.12531738,-0.46516114,-0.4364868,98.0
289,0.95576775,0.105148315,1.3224525,-0.1083252,-0.47684327,-0.28674316,98.0
290,1.8676782,-0.122779846,1.275917,-0.1083252,-0.47684327,-0.28674316,98.0
291,1.8676782,-0.122779846,1.275917,0.029736329,-0.35789797,-0.07646485,98.0
292,2.0823872,-0.28004456,1.1104317,0.029736329,-0.35789797,-0.07646485,98.0
293,2.0823872,-0.28004456,1.1104317,0.2782471,-0.21877442,0.3090454,98.0
294,1.2064981,0.041877747,0.68793106,0.2782471,-0.21877442,0.3090454,98.0
295,1.2064981,0.041877747,0.68793106,0.47790527,-0.24320069,0.77951664,98.0
296,0.079395294,0.7479172,0.08060455,0.47790527,-0.24320069,0.77951664,98.0
297,0.079395294,0.7479172,0.08060455,0.70092773,-0.38232422,1.2043213,98.0
298,-0.18001401,1.167717,-0.42904663,0.70092773,-0.38232422,1.2043213,98.0
299,-0.18001401,1.167717,-0.42904663,1.1448487,-0.49383545,1.5887696,98.0
300,0.43391848,1.0342941,-0.69613266,1.1448487,-0.49383545,1.5887696,98.0
301,0.43391848,1.0342941,-0.69613266,1.7767457,-0.5150757,1.9753418,98.0
302,1.0894444,0.72561646,-0.91565704,1.7767457,-0.5150757,1.9753418,98.0
303,1.0894444,0.72561646,-0.91565704,2.3321779,-0.5256958,2.3141236,98.0
304,1.295164,0.57497406,-1.2681351,2.3321779,-0.5256958,2.3141236,98.0
305,1.295164,0.57497406,-1.2681351,2.732556,-0.45454103,2.5923707,98.0
306,1.2445664,0.6861725,-1.580574,2.732556,-0.45454103,2.5923707,98.0
307,1.2445664,0.6861725,-1.580574,2.9269044,-0.31966552,2.8153932,98.0
308,1.1441517,1.1405869,-1.6026192,2.9269044,-0.31966552,2.8153932,98.0
309,1.1441517,1.1405869,-1.6026192,2.5626342,-0.093457036,2.8759277,98.0
310,0.82741857,1.5881042,-1.3415298,2.5626342,-0.093457036,2.8759277,98.0
311,0.82741857,1.5881042,-1.3415298,1.8818848,0.14549561,2.8302612,98.0
312,0.15042353,1.5212631,-1.0027046,1.8818848,0.14549561,2.8302612,98.0
313,0.15042353,1.5212631,-1.0027046,1.2489258,0.2814331,2.72937,98.0
314,-0.6003399,0.94125366,-0.7886276,1.2489258,0.2814331,2.72937,98.0
315,-0.6003399,0.94125366,-0.7886276,0.71154785,0.32285157,2.5934327,98.0
316,-0.9403305,0.25954437,-0.7403641,0.71154785,0.32285157,2.5934327,98.0
317,-0.9403305,0.25954437,-0.7403641,0.32391357,0.3419678,2.4489992,98.0
318,-0.72617793,-0.18661499,-0.78902054,0.32391357,0.3419678,2.4489992,98.0
319,-0.72617793,-0.18661499,-0.78902054,-0.007434082,0.35152587,2.247217,98.0
320,-0.24012208,-0.3883667,-0.89944077,-0.007434082,0.35152587,2.247217,98.0
321,-0.24012208,-0.3883667,-0.89944077,-0.10407715,0.36639404,1.9848999,98.0
322,0.15480173,-0.5085373,-1.0020218,-0.10407715,0.36639404,1.9848999,98.0
323,0.15480173,-0.5085373,-1.0020218,0.06159668,0.36427003,1.6546143,98.0
324,0.41131687,-0.5875702,-1.0227737,0.06159668,0.36427003,1.6546143,98.0
325,0.41131687,-0.5875702,-1.0227737,0.3058594,0.36639404,1.355127,98.0
326,0.6772225,-0.55744934,-0.9625435,0.3058594,0.36639404,1.355127,98.0
327,0.6772225,-0.55744934,-0.9625435,0.42799073,0.38763428,1.0620117,98.0
328,0.827569,-0.48697662,-0.8428383,0.42799073,0.38763428,1.0620117,98.0
329,0.827569,-0.48697662,-0.8428383,0.4991455,0.39294434,0.76464844,98.0
330,0.77531195,-0.44973755,-0.65781784,0.4991455,0.39294434,0.76464844,98.0
331,0.77531195,-0.44973755,-0.65781784,0.5363159,0.37595215,0.43967286,98.0
332,0.788316,-0.46500397,-0.40732193,0.5363159,0.37595215,0.43967286,98.0
333,0.788316,-0.46500397,-0.40732193,0.5065796,0.29099122,0.11682129,98.0
334,1.0519786,-0.54145813,-0.120155334,0.5065796,0.29099122,0.11682129,98.0
335,1.0519786,-0.54145813,-0.120155334,0.43754885,0.22408448,-0.21240234,98.0
336,1.35003,-0.6001587,0.18710327,0.43754885,0.22408448,-0.21240234,98.0
337,1.35003,-0.6001587,0.18710327,0.40462646,0.15717773,-0.541626,98.0
338,1.3245673,-0.46564484,0.47690582,0.40462646,0.15717773,-0.541626,98.0
339,1.3245673,-0.46564484,0.47690582,0.3154175,0.07540283,-0.8729736,98.0
340,0.97905064,-0.20366669,0.7920723,0.3154175,0.07540283,-0.8729736,98.0
341,0.97905064,-0.20366669,0.7920723,0.20496826,0.026550293,-1.1883911,98.0
342,0.97905064,-0.20366669,0.7920723,0.20496826,0.026550293,-1.1883911,98.0
343,0.93732977,-0.032821655,0.9736252,0.20496826,0.026550293,-1.1883911,98.0
344,0.93732977,-0.032821655,0.9736252,0.046728518,-0.11363526,-1.5579712,98.0
345,1.3622293,0.16522217,0.72702026,0.046728518,-0.11363526,-1.5579712,98.0
346,1.3622293,0.16522217,0.72702026,-0.37807617,-0.20709229,-1.8776368,98.0
347,1.1966438,0.35395813,0.40343094,-0.37807617,-0.20709229,-1.8776368,98.0
348,1.1966438,0.35395813,0.40343094,-0.8294312,-0.2984253,-2.0964112,98.0
349,0.32914162,0.15997314,0.5861473,-0.8294312,-0.2984253,-2.0964112,98.0
350,0.32914162,0.15997314,0.5861473,-0.82836914,-0.4619751,-2.3215578,98.0
351,-0.07407665,-0.4293213,1.2358627,-0.82836914,-0.4619751,-2.3215578,98.0
352,-0.07407665,-0.4293213,1.2358627,-0.5979126,-0.44604492,-2.4150147,98.0
353,-0.06673193,-0.98854065,1.8894577,-0.5979126,-0.44604492,-2.4150147,98.0
354,-0.06673193,-0.98854065,1.8894577,-0.17841797,-0.3462158,-2.2450929,98.0
355,-0.46368837,-1.0510483,1.99366,-0.17841797,-0.3462158,-2.2450929,98.0
356,-0.46368837,-1.0510483,1.99366,0.21558838,-0.2984253,-1.993396,98.0
357,-1.2918615,-0.39315796,1.3012276,0.21558838,-0.2984253,-1.993396,98.0
358,-1.2918615,-0.39315796,1.3012276,0.3355957,-0.28674316,-1.7597535,98.0
359,-2.0286431,0.59867096,0.19369125,0.3355957,-0.28674316,-1.7597535,98.0
360,-2.0286431,0.59867096,0.19369125,0.29948732,-0.22408448,-1.5303589,98.0
361,-2.350124,1.3748856,-0.62968063,0.29948732,-0.22408448,-1.5303589,98.0
362,-2.350124,1.3748856,-0.62968063,-0.011682129,-0.12956543,-1.2999023,98.0
363,-2.3345668,1.7176208,-0.87212753,-0.011682129,-0.12956543,-1.2999023,98.0
364,-2.3345668,1.7176208,-0.87212753,-0.632959,-0.004248047,-1.1395386,98.0
365,-2.159597,1.588913,-0.7371559,-0.632959,-0.004248047,-1.1395386,98.0
366,-2.159597,1.588913,-0.7371559,-1.3243287,0.17629395,-1.0545777,98.0
367,-2.0428386,1.0838852,-0.5034447,-1.3243287,0.17629395,-1.0545777,98.0
368,-2.0428386,1.0838852,-0.5034447,-1.7438233,0.33984375,-1.0004151,98.0
369,-2.055316,0.5038605,-0.2804184,-1.7438233,0.33984375,-1.0004151,98.0
370,-2.055316,0.5038605,-0.2804184,-1.8436524,0.40250245,-0.9696167,98.0
371,-2.022976,0.13287354,-0.06273651,-1.8436524,0.40250245,-0.9696167,98.0
372,-2.022976,0.13287354,-0.06273651,-1.7969239,0.40462646,-0.97386473,98.0
373,-1.7859099,-0.03362274,0.13647842,-1.7969239,0.40462646,-0.97386473,98.0
374,-1.7859099,-0.03362274,0.13647842,-1.6811646,0.3971924,-0.9876709,98.0
375,-1.407744,-0.14437866,0.3047638,-1.6811646,0.3971924,-0.9876709,98.0
376,-1.407744,-0.14437866,0.3047638,-1.4666382,0.3536499,-1.0120972,98.0
377,-1.0854726,-0.22570801,0.4284668,-1.4666382,0.3536499,-1.0120972,98.0
378,-1.0854726,-0.22570801,0.4284668,-1.2223755,0.28780517,-1.0577637,98.0
379,-0.8999577,-0.25654602,0.52598953,-1.2223755,0.28780517,-1.0577637,98.0
380,-0.8999577,-0.25654602,0.52598953,-1.0099732,0.21558838,-1.1406006,98.0
381,-0.8468705,-0.2950592,0.67076874,-1.0099732,0.21558838,-1.1406006,98.0
382,-0.8468705,-0.2950592,0.67076874,-0.7508423,0.11151123,-1.2298096,98.0
383,-0.86869514,-0.42192078,0.8864937,-0.7508423,0.11151123,-1.2298096,98.0
384,-0.86869514,-0.42192078,0.8864937,-0.4088745,-0.0063720704,-1.3083985,98.0
385,-0.8668189,-0.6308136,1.111454,-0.4088745,-0.0063720704,-1.3083985,98.0
386,-0.8668189,-0.6308136,1.111454,0.019116212,-0.11469727,-1.2829102,98.0
387,-0.7996441,-0.82836914,1.2486,0.019116212,-0.11469727,-1.2829102,98.0
388,-0.7996441,-0.82836914,1.2486,0.4694092,-0.17523193,-1.1459106,98.0
389,-0.57949805,-0.94958496,1.254509,0.4694092,-0.17523193,-1.1459106,98.0
390,-0.57949805,-0.94958496,1.254509,0.9122681,-0.21346436,-0.9143921,98.0
391,0.2462039,-1.0982056,1.1880455,0.9122681,-0.21346436,-0.9143921,98.0
392,0.2462039,-1.0982056,1.1880455,1.4209718,-0.19541016,-0.74659425,98.0
393,2.2896266,-1.458252,1.1842499,1.4209718,-0.19541016,-0.74659425,98.0
394,2.2896266,-1.458252,1.1842499,2.1144655,-0.11257324,-0.62977296,98.0
395,4.610925,-1.2070541,1.0454483,2.1144655,-0.11257324,-0.62977296,98.0
396,4.610925,-1.2070541,1.0454483,1.9541016,0.13168946,-0.13487549,98.0
397,4.9379954,0.2348175,0.41945267,1.9541016,0.13168946,-0.13487549,98.0
398,4.9379954,0.2348175,0.41945267,0.7338501,0.38763428,0.36108398,98.0
399,3.1594176,1.574585,-0.5210037,0.7338501,0.38763428,0.36108398,98.0
400,3.1594176,1.574585,-0.5210037,-0.08496094,0.42374268,0.817749,98.0
401,1.3222852,1.8736954,-1.0891914,-0.08496094,0.42374268,0.817749,98.0
402,1.3222852,1.8736954,-1.0891914,-0.33134767,0.41206056,1.3423828,98.0
403,0.50251794,1.4555969,-0.9587326,-0.33134767,0.41206056,1.3423828,98.0
404,0.50251794,1.4555969,-0.9587326,-0.20178223,0.32497558,1.8436524,98.0
405,0.34564233,0.8295059,-0.6095505,-0.20178223,0.32497558,1.8436524,98.0
406,0.34564233,0.8295059,-0.6095505,0.19541016,0.20603028,2.2174804,98.0
407,0.28798842,0.32968903,-0.6073532,0.19541016,0.20603028,2.2174804,98.0
408,0.28798842,0.32968903,-0.6073532,0.57561034,0.10089111,2.5488281,98.0
409,0.11320329,0.067337036,-0.946846,0.57561034,0.10089111,2.5488281,98.0
410,0.11320329,0.067337036,-0.946846,0.7943848,0.06903076,2.8578737,98.0
411,-0.18302155,-0.0060043335,-1.2929382,0.7943848,0.06903076,2.8578737,98.0
412,-0.18302155,-0.0060043335,-1.2929382,0.95793456,0.0722168,3.0479736,98.0
413,-0.563617,0.038520813,-1.3817863,0.95793456,0.0722168,3.0479736,98.0
414,-0.563617,0.038520813,-1.3817863,1.0715698,0.10195313,3.0723999,98.0
415,-0.9476099,0.09651184,-1.22258,1.0715698,0.10195313,3.0723999,98.0
416,-0.9476099,0.09651184,-1.22258,1.088562,0.14549561,3.0012453,98.0
417,-1.221833,0.052597046,-1.012146,1.088562,0.14549561,3.0012453,98.0
418,-1.221833,0.052597046,-1.012146,1.0205933,0.1709839,2.8684938,98.0
419,-1.2499396,-0.094444275,-0.9704094,1.0205933,0.1709839,2.8684938,98.0
420,-1.2499396,-0.094444275,-0.9704094,0.9611206,0.14549561,2.7399902,98.0
421,-0.9519048,-0.2543106,-1.1194687,0.9611206,0.14549561,2.7399902,98.0
422,-0.9519048,-0.2543106,-1.1194687,0.92501223,0.13699952,2.5052857,98.0
423,-0.43324018,-0.3747406,-1.3121758,0.92501223,0.13699952,2.5052857,98.0
424,-0.43324018,-0.3747406,-1.3121758,0.94412845,0.13381349,2.2004883,98.0
425,0.11451626,-0.4547348,-1.3900375,0.94412845,0.13381349,2.2004883,98.0
426,0.11451626,-0.4547348,-1.3900375,0.90908206,0.18054199,1.8702027,98.0
427,0.5483024,-0.54403687,-1.3230171,0.90908206,0.18054199,1.8702027,98.0
428,0.5483024,-0.54403687,-1.3230171,0.91757816,0.21558838,1.5229248,98.0
429,0.88006043,-0.59542084,-1.1819725,0.91757816,0.21558838,1.5229248,98.0
430,0.88006043,-0.59542084,-1.1819725,0.8294312,0.28355715,1.2075074,98.0
431,1.136812,-0.53074646,-0.98735046,0.8294312,0.28355715,1.2075074,98.0
432,1.136812,-0.53074646,-0.98735046,0.6223389,0.3419678,0.87191164,98.0
433,1.301039,-0.45230865,-0.7549057,0.6223389,0.3419678,0.87191164,98.0
434,1.301039,-0.45230865,-0.7549057,0.4067505,0.35046387,0.49064943,98.0
435,1.4586778,-0.4386139,-0.4665947,0.4067505,0.35046387,0.49064943,98.0
436,1.4586778,-0.4386139,-0.4665947,0.19434814,0.30267334,0.12531738,98.0
437,1.6141224,-0.4349823,-0.1240921,0.19434814,0.30267334,0.12531738,98.0
438,1.6141224,-0.4349823,-0.1240921,-0.06478272,0.19647217,-0.19541016,98.0
439,1.6141224,-0.4349823,-0.1240921,-0.06478272,0.19647217,-0.19541016,99.0
440,1.6013565,-0.3667755,0.20542526,-0.06478272,0.19647217,-0.19541016,99.0
441,1.6013565,-0.3667755,0.20542526,-0.36002198,0.059472658,-0.4800293,99.0
442,1.3064146,-0.2683258,0.5526581,-0.36002198,0.059472658,-0.4800293,99.0
443,1.3064146,-0.2683258,0.5526581,-0.58410645,-0.07752686,-0.77526855,99.0
444,1.1348534,-0.27469635,1.011219,-0.58410645,-0.07752686,-0.77526855,99.0
445,1.1348534,-0.27469635,1.011219,-0.6149048,-0.19541016,-1.2064453,99.0
446,1.4742155,-0.35281372,1.3457298,-0.6149048,-0.19541016,-1.2064453,99.0
447,1.4742155,-0.35281372,1.3457298,-0.62127686,-0.34940186,-1.6439942,99.0
448,1.6678734,-0.26013184,1.3636322,-0.62127686,-0.34940186,-1.6439942,99.0
449,1.6678734,-0.26013184,1.3636322,-0.8517334,-0.46516114,-1.9785279,99.0
450,1.0527802,-0.120285034,1.4600945,-0.8517334,-0.46516114,-1.9785279,99.0
451,1.0527802,-0.120285034,1.4600945,-0.9791748,-0.5479981,-2.3045654,99.0
452,0.2477417,-0.25465393,1.9737396,-0.9791748,-0.5479981,-2.3045654,99.0
453,0.2477417,-0.25465393,1.9737396,-0.79332274,-0.5671143,-2.541394,99.0
454,-0.2170291,-0.51329803,2.632679,-0.79332274,-0.5671143,-2.541394,99.0
455,-0.2170291,-0.51329803,2.632679,-0.43861085,-0.52888185,-2.5020998,99.0
456,-0.7748318,-0.5553894,2.8571815,-0.43861085,-0.52888185,-2.5020998,99.0
457,-0.7748318,-0.5553894,2.8571815,-0.095581055,-0.49277344,-2.2854493,99.0
458,-1.6602588,-0.30660248,2.3031998,-0.095581055,-0.49277344,-2.2854493,99.0
459,-1.6602588,-0.30660248,2.3031998,0.3355957,-0.46622315,-1.9264892,99.0
460,-2.5343719,0.1647644,1.18079,0.3355957,-0.46622315,-1.9264892,99.0
461,-2.5343719,0.1647644,1.18079,0.65207523,-0.43861085,-1.4815063,99.0
462,-3.0069776,0.8325577,-0.011081696,0.65207523,-0.43861085,-1.4815063,99.0
463,-3.0069776,0.8325577,-0.011081696,0.61065674,-0.35471192,-1.0598878,99.0
464,-3.003507,1.5275421,-0.91391754,0.61065674,-0.35471192,-1.0598878,99.0
465,-3.003507,1.5275421,-0.91391754,0.12000733,-0.17841797,-0.7519043,99.0
466,-2.7504497,1.9028397,-1.4188156,0.12000733,-0.17841797,-0.7519043,99.0
467,-2.7504497,1.9028397,-1.4188156,-0.5140137,0.022302246,-0.5979126,99.0
468,-2.4473445,1.7324905,-1.5690498,-0.5140137,0.022302246,-0.5979126,99.0
469,-2.4473445,1.7324905,-1.5690498,-0.9133301,0.14974366,-0.5522461,99.0
470,-2.0558615,1.1623459,-1.4686813,-0.9133301,0.14974366,-0.5522461,99.0
471,-2.0558615,1.1623459,-1.4686813,-1.0524536,0.22408448,-0.52888185,99.0
472,-1.5239251,0.55438995,-1.2284851,-1.0524536,0.22408448,-0.52888185,99.0
473,-1.5239251,0.55438995,-1.2284851,-1.0110352,0.27506104,-0.5065796,99.0
474,-0.95992374,0.14868927,-0.9001732,-1.0110352,0.27506104,-0.5065796,99.0
475,-0.95992374,0.14868927,-0.9001732,-0.9876709,0.32497558,-0.49383545,99.0
476,-0.5013496,-0.07445526,-0.52433777,-0.9876709,0.32497558,-0.49383545,99.0
477,-0.5013496,-0.07445526,-0.52433777,-1.0864381,0.37807617,-0.46728516,99.0
478,-0.17347962,-0.25846863,-0.13651276,-1.0864381,0.37807617,-0.46728516,99.0
479,-0.17347962,-0.25846863,-0.13651276,-1.2871583,0.4248047,-0.43754885,99.0
480,0.14614062,-0.4276657,0.23565292,-1.2871583,0.4248047,-0.43754885,99.0
481,0.14614062,-0.4276657,0.23565292,-1.4889405,0.44073486,-0.44710693,99.0
482,0.4852841,-0.49360657,0.56360626,-1.4889405,0.44073486,-0.44710693,99.0
483,0.4852841,-0.49360657,0.56360626,-1.6333741,0.46834716,-0.49489745,99.0
484,0.62794894,-0.37303162,0.8480797,-1.6333741,0.46834716,-0.49489745,99.0
485,0.62794894,-0.37303162,0.8480797,-1.7671875,0.43967286,-0.5331299,99.0
486,0.50826734,-0.15139008,0.97418976,-1.7671875,0.43967286,-0.5331299,99.0
487,0.50826734,-0.15139008,0.97418976,-1.8001099,0.40144044,-0.54906005,99.0
488,0.33664316,-0.12324524,1.106453,-1.8001099,0.40144044,-0.54906005,99.0
489,0.33664316,-0.12324524,1.106453,-1.4082276,0.16036378,-0.62764895,99.0
490,0.24562067,-0.07559967,1.0672684,-1.4082276,0.16036378,-0.62764895,99.0
491,0.24562067,-0.07559967,1.0672684,-1.1098022,0.0541626,-0.6616333,99.0
492,0.54167473,-0.1762619,1.0309258,-1.1098022,0.0541626,-0.6616333,99.0
493,0.54167473,-0.1762619,1.0309258,-0.24320069,-0.26444092,-0.73703617,99.0
494,0.6418115,-0.20585632,0.87966156,-0.24320069,-0.26444092,-0.73703617,99.0
495,0.6418115,-0.20585632,0.87966156,0.013806152,-0.34727785,-0.7688965,99.0
496,2.5207734,-0.834671,1.0286446,0.013806152,-0.34727785,-0.7688965,99.0
497,2.5207734,-0.834671,1.0286446,0.83474123,-0.4885254,-0.8464233,99.0
498,2.8303273,-1.0280075,0.8781395,0.83474123,-0.4885254,-0.8464233,99.0
499,2.8303273,-1.0280075,0.8781395,1.0343994,-0.46516114,-0.8092529,99.0
500,3.0441813,-0.72177124,0.7460289,1.0343994,-0.46516114,-0.8092529,99.0
501,3.0441813,-0.72177124,0.7460289,0.80819094,-0.2262085,-0.40250245,99.0
502,1.6392026,-0.24037933,0.37389755,0.80819094,-0.2262085,-0.40250245,99.0
503,1.6392026,-0.24037933,0.37389755,0.6690674,-0.21134034,-0.24638672,99.0
504,-1.8120387,0.9619217,-0.25585175,0.6690674,-0.21134034,-0.24638672,99.0
505,-1.8120387,0.9619217,-0.25585175,0.540564,-0.19753419,0.24851075,99.0
506,-2.0657566,0.9215851,-0.32753372,0.540564,-0.19753419,0.24851075,99.0
507,-2.0657566,0.9215851,-0.32753372,0.5809204,-0.18903808,0.40250245,99.0
508,-1.9282645,0.6775131,-0.21496964,0.5809204,-0.18903808,0.40250245,99.0
509,-1.9282645,0.6775131,-0.21496964,0.7890747,-0.08071289,0.7742066,99.0
510,-1.3411101,0.40348816,-0.2408371,0.7890747,-0.08071289,0.7742066,99.0
511,-1.3411101,0.40348816,-0.2408371,0.8028809,-0.023364259,0.8708496,99.0
512,-0.7763672,0.2666397,-0.6158371,0.8028809,-0.023364259,0.8708496,99.0
513,-0.7763672,0.2666397,-0.6158371,0.6552612,0.12956543,1.1352905,99.0
514,-0.42778325,0.2343216,-0.7638626,0.6552612,0.12956543,1.1352905,99.0
515,-0.42778325,0.2343216,-0.7638626,0.5766724,0.19116211,1.2202514,99.0
516,-0.15327406,0.38881683,-1.0161667,0.5766724,0.19116211,1.2202514,99.0
517,-0.15327406,0.38881683,-1.0161667,0.38551027,0.30373535,1.3530029,99.0
518,-0.16195023,0.5295105,-1.0469055,0.38551027,0.30373535,1.3530029,99.0
519,-0.16195023,0.5295105,-1.0469055,0.20921631,0.35471192,1.4262818,99.0
520,-0.39407432,0.48952484,-0.9520035,0.20921631,0.35471192,1.4262818,99.0
521,-0.39407432,0.48952484,-0.9520035,0.18160401,0.34090576,1.453894,99.0
522,-0.57739323,0.28388977,-0.8316231,0.18160401,0.34090576,1.453894,99.0
523,-0.57739323,0.28388977,-0.8316231,0.24001466,0.31329346,1.4772583,99.0
524,-0.41927546,-0.07672119,-0.8100128,0.24001466,0.31329346,1.4772583,99.0
525,-0.41927546,-0.07672119,-0.8100128,0.5341919,0.25700685,1.448584,99.0
526,-0.011995077,-0.23475647,-0.7808609,0.5341919,0.25700685,1.448584,99.0
527,-0.011995077,-0.23475647,-0.7808609,0.65844727,0.24638672,1.4369019,99.0
528,0.6030748,-0.34848785,-0.90042114,0.65844727,0.24638672,1.4369019,99.0
529,0.6030748,-0.34848785,-0.90042114,0.84111327,0.26019287,1.3869873,99.0
530,1.059413,-0.28575897,-1.0249901,0.84111327,0.26019287,1.3869873,99.0
531,1.059413,-0.28575897,-1.0249901,0.8995239,0.29417726,1.3052124,99.0
532,1.2081017,-0.11808777,-1.0536842,0.8995239,0.29417726,1.3052124,99.0
533,1.2081017,-0.11808777,-1.0536842,0.77314454,0.362146,1.1958252,99.0
534,1.0002217,0.050117493,-0.97312164,0.77314454,0.362146,1.1958252,99.0
535,1.0002217,0.050117493,-0.97312164,0.5586182,0.40993652,1.080066,99.0
536,0.6411443,0.13182831,-0.81266403,0.5586182,0.40993652,1.080066,99.0
537,0.6411443,0.13182831,-0.81266403,0.3345337,0.43967286,0.94731444,99.0
538,0.44653368,0.14303589,-0.6263771,0.3345337,0.43967286,0.94731444,99.0
539,0.44653368,0.14303589,-0.6263771,0.11682129,0.41737062,0.77739257,99.0
540,0.5617435,0.08465576,-0.46385956,0.11682129,0.41737062,0.77739257,99.0
541,0.5617435,0.08465576,-0.46385956,-0.0722168,0.37807617,0.59897465,99.0
542,0.806829,-0.011062622,-0.29154587,-0.0722168,0.37807617,0.59897465,99.0
543,0.806829,-0.011062622,-0.29154587,-0.22089843,0.3079834,0.42374268,99.0
544,0.806829,-0.011062622,-0.29154587,-0.22089843,0.3079834,0.42374268,99.0
545,0.9217572,-0.15760803,-0.05224228,-0.22089843,0.3079834,0.42374268,99.0
546,0.9217572,-0.15760803,-0.05224228,-0.27718505,0.2081543,0.26444092,99.0
547,0.96493244,-0.3118286,0.2885666,-0.27718505,0.2081543,0.26444092,99.0
548,0.96493244,-0.3118286,0.2885666,-0.21240234,0.0998291,0.039294433,99.0
549,1.5761938,-0.46152496,0.68460083,-0.21240234,0.0998291,0.039294433,99.0
550,1.5761938,-0.46152496,0.68460083,-0.107263185,0.015930176,-0.37595215,99.0
551,2.835833,-0.4637375,0.95329666,-0.107263185,0.015930176,-0.37595215,99.0
552,2.835833,-0.4637375,0.95329666,-0.2623169,-0.040356446,-0.8358032,99.0
553,3.2711082,-0.20568085,0.9972458,-0.2623169,-0.040356446,-0.8358032,99.0
554,3.2711082,-0.20568085,0.9972458,-0.8527954,-0.12850343,-1.268042,99.0
555,2.1732464,-0.004119873,1.1330643,-0.8527954,-0.12850343,-1.268042,99.0
556,2.1732464,-0.004119873,1.1330643,-1.4103516,-0.28674316,-1.6078857,99.0
557,0.7017441,-0.17706299,1.7457962,-1.4103516,-0.28674316,-1.6078857,99.0
558,0.7017441,-0.17706299,1.7457962,-1.5505371,-0.362146,-1.6524903,99.0
559,-0.55585337,-0.4527588,2.6079178,-1.5505371,-0.362146,-1.6524903,99.0
560,-0.55585337,-0.4527588,2.6079178,-1.2818482,-0.38338622,-1.44646,99.0
561,-1.842742,-0.51776886,2.9025955,-1.2818482,-0.38338622,-1.44646,99.0
562,-1.842742,-0.51776886,2.9025955,-0.6531372,-0.47896728,-1.1374146,99.0
563,-2.9672723,-0.37256622,2.1349564,-0.6531372,-0.47896728,-1.1374146,99.0
564,-2.9672723,-0.37256622,2.1349564,0.36639404,-0.6425171,-0.81031495,99.0
565,-3.381069,-0.043403625,0.73215866,0.36639404,-0.6425171,-0.81031495,99.0
566,-3.381069,-0.043403625,0.73215866,1.3349488,-0.7327881,-0.4609131,99.0
567,-2.9897184,0.568985,-0.53787994,1.3349488,-0.7327881,-0.4609131,99.0
568,-2.9897184,0.568985,-0.53787994,1.536731,-0.67331547,-0.121069334,99.0
569,-2.2794824,1.266983,-1.340519,1.536731,-0.67331547,-0.121069334,99.0
570,-2.2794824,1.266983,-1.340519,1.1427246,-0.52675784,0.1083252,99.0
571,-1.7115619,1.6525726,-1.7092323,1.1427246,-0.52675784,0.1083252,99.0
572,-1.7115619,1.6525726,-1.7092323,0.4970215,-0.3175415,0.19541016,99.0
573,-1.4207877,1.5594025,-1.7075844,0.4970215,-0.3175415,0.19541016,99.0
574,-1.4207877,1.5594025,-1.7075844,-0.058410645,-0.13168946,0.14124756,99.0
575,-1.3042572,1.1430206,-1.4199982,-0.058410645,-0.13168946,0.14124756,99.0
576,-1.3042572,1.1430206,-1.4199982,-0.3802002,-0.027612304,0.014868164,99.0
577,-1.155271,0.6849747,-1.0271606,-0.3802002,-0.027612304,0.014868164,99.0
578,-1.155271,0.6849747,-1.0271606,-0.61915284,0.014868164,-0.14549561,99.0
579,-0.89843553,0.29585648,-0.6765251,-0.61915284,0.014868164,-0.14549561,99.0
580,-0.89843553,0.29585648,-0.6765251,-0.7412842,0.015930176,-0.3419678,99.0
581,-0.5874618,-0.12113953,-0.3489113,-0.7412842,0.015930176,-0.3419678,99.0
582,-0.5874618,-0.12113953,-0.3489113,-0.7954468,0.027612304,-0.5278198,99.0
583,-0.2663684,-0.586853,0.03484726,-0.7954468,0.027612304,-0.5278198,99.0
584,-0.2663684,-0.586853,0.03484726,-0.7954468,0.008496094,-0.68712157,99.0
585,0.053397,-0.98669434,0.36177444,-0.7954468,0.008496094,-0.68712157,99.0
586,0.053397,-0.98669434,0.36177444,-0.6945557,-0.009558106,-0.8485474,99.0
587,0.29143587,-1.1791,0.5484886,-0.6945557,-0.009558106,-0.8485474,99.0
588,0.29143587,-1.1791,0.5484886,-0.52888185,-0.050976563,-0.9791748,99.0
589,0.29939625,-1.1284103,0.68875504,-0.52888185,-0.050976563,-0.9791748,99.0
590,0.29939625,-1.1284103,0.68875504,-0.38763428,-0.14230958,-1.081128,99.0
591,0.21051311,-0.99502563,0.85985565,-0.38763428,-0.14230958,-1.081128,99.0
592,0.21051311,-0.99502563,0.85985565,-0.13062744,-0.24107666,-1.171399,99.0
593,0.25696027,-0.9554901,1.006073,-0.13062744,-0.24107666,-1.171399,99.0
594,0.25696027,-0.9554901,1.006073,0.29630128,-0.31966552,-1.2234375,99.0
595,0.364223,-1.0048676,1.0203629,0.29630128,-0.31966552,-1.2234375,99.0
596,0.364223,-1.0048676,1.0203629,0.75721437,-0.36533204,-1.177771,99.0
597,0.38182032,-1.0114975,0.8249817,0.75721437,-0.36533204,-1.177771,99.0
598,0.38182032,-1.0114975,0.8249817,1.075818,-0.4078125,-1.0673218,99.0
599,0.75482154,-1.0382385,0.46931076,1.075818,-0.4078125,-1.0673218,99.0
600,0.75482154,-1.0382385,0.46931076,1.363623,-0.4354248,-1.0057251,99.0
601,1.892761,-1.177208,0.1599083,1.363623,-0.4354248,-1.0057251,99.0
602,1.892761,-1.177208,0.1599083,1.6110718,-0.31329346,-0.8421753,99.0
603,2.8973875,-1.1895447,0.024520874,1.6110718,-0.31329346,-0.8421753,99.0
604,2.8973875,-1.1895447,0.024520874,1.5027466,-0.011682129,-0.48109132,99.0
605,2.6975853,-0.99394226,-0.13953781,1.5027466,-0.011682129,-0.48109132,99.0
606,2.6975853,-0.99394226,-0.13953781,1.3869873,0.19116211,-0.10089111,99.0
607,1.5612786,-0.6238632,-0.59944916,1.3869873,0.19116211,-0.10089111,99.0
608,1.5612786,-0.6238632,-0.59944916,1.5282348,0.13275146,0.3430298,99.0
609,0.5317011,-0.02922821,-1.1595993,1.5282348,0.13275146,0.3430298,99.0
610,0.5317011,-0.02922821,-1.1595993,1.6875366,0.09770508,0.83686525,99.0
611,0.11609554,0.5263138,-1.450737,1.6875366,0.09770508,0.83686525,99.0
612,0.11609554,0.5263138,-1.450737,1.8510865,0.11044922,1.2797241,99.0
613,-0.055268288,0.7794647,-1.5195999,1.8510865,0.11044922,1.2797241,99.0
614,-0.055268288,0.7794647,-1.5195999,1.8723267,0.14549561,1.5813354,99.0
615,-0.41276932,0.7364044,-1.6289482,1.8723267,0.14549561,1.5813354,99.0
616,-0.41276932,0.7364044,-1.6289482,1.7820557,0.17947999,1.7491333,99.0
617,-0.8717315,0.50315094,-1.7528152,1.7820557,0.17947999,1.7491333,99.0
618,-0.8717315,0.50315094,-1.7528152,1.5962037,0.2516968,1.8818848,99.0
619,-1.2734349,0.27583313,-1.6578789,1.5962037,0.2516968,1.8818848,99.0
620,-1.2734349,0.27583313,-1.6578789,1.1618408,0.3451538,2.0199463,99.0
621,-1.6219461,0.22389984,-1.3571396,1.1618408,0.3451538,2.0199463,99.0
622,-1.6219461,0.22389984,-1.3571396,0.47684327,0.44710693,2.095349,99.0
623,-1.8665633,0.15978241,-1.0311356,0.47684327,0.44710693,2.095349,99.0
624,-1.8665633,0.15978241,-1.0311356,-0.13806152,0.52038574,2.1165893,99.0
625,-1.8727306,-0.09371948,-0.8061714,-0.13806152,0.52038574,2.1165893,99.0
626,-1.8727306,-0.09371948,-0.8061714,-0.48533937,0.43861085,2.0974731,99.0
627,-1.6200961,-0.46679688,-0.74064255,-0.48533937,0.43861085,2.0974731,99.0
628,-1.6200961,-0.46679688,-0.74064255,-0.39400634,0.28461915,2.0326905,99.0
629,-1.1655593,-0.80501556,-0.7837143,-0.39400634,0.28461915,2.0326905,99.0
630,-1.1655593,-0.80501556,-0.7837143,-0.026550293,0.12956543,1.893567,99.0
631,-0.6062511,-1.0014496,-0.8732376,-0.026550293,0.12956543,1.893567,99.0
632,-0.6062511,-1.0014496,-0.8732376,0.51188964,0.0053100586,1.6779785,99.0
633,-0.030533135,-1.095604,-0.962883,0.51188964,0.0053100586,1.6779785,99.0
634,-0.030533135,-1.095604,-0.962883,1.0917481,-0.06159668,1.4050416,99.0
635,0.6000608,-1.1480637,-0.9284477,1.0917481,-0.06159668,1.4050416,99.0
636,0.6000608,-1.1480637,-0.9284477,1.6142578,-0.046728518,1.0768799,99.0
637,1.294636,-1.1825104,-0.64559174,1.6142578,-0.046728518,1.0768799,99.0
638,1.294636,-1.1825104,-0.64559174,1.9466676,0.10938721,0.7104859,99.0
639,1.8911898,-1.1690445,-0.12587357,1.9466676,0.10938721,0.7104859,99.0
640,1.8911898,-1.1690445,-0.12587357,2.0103881,0.41099855,0.34727785,99.0
641,2.18844,-1.0532455,0.39521027,2.0103881,0.41099855,0.34727785,99.0
642,2.18844,-1.0532455,0.39521027,1.7565674,0.6786255,0.0180542,99.0
643,2.3246412,-0.70012665,0.51839066,1.7565674,0.6786255,0.0180542,99.0
644,2.3246412,-0.70012665,0.51839066,1.084314,0.80181885,-0.23045655,99.0
645,2.426632,-0.08283234,0.17248917,1.084314,0.80181885,-0.23045655,99.0
646,2.426632,-0.08283234,0.17248917,0.115759276,0.85385746,-0.3971924,99.0
647,2.2304292,0.5591736,-0.1884613,0.115759276,0.85385746,-0.3971924,99.0
648,2.2304292,0.5591736,-0.1884613,-0.8251831,0.817749,-0.45454103,99.0
649,1.6066089,0.9652939,-0.045337677,-0.8251831,0.817749,-0.45454103,99.0
650,1.6066089,0.9652939,-0.045337677,-1.5112427,0.7540283,-0.40037844,99.0
651,1.6066089,0.9652939,-0.045337677,-1.5112427,0.7540283,-0.40037844,99.0
652,1.0074306,1.0685349,0.6975174,-1.5112427,0.7540283,-0.40037844,99.0
653,1.0074306,1.0685349,0.6975174,-1.8946289,0.61702883,-0.36851808,99.0
654,0.8815794,0.9338074,1.3944054,-1.8946289,0.61702883,-0.36851808,99.0
655,0.8815794,0.9338074,1.3944054,-2.080481,0.31435546,-0.40356445,99.0
656,0.97579575,0.58467865,1.4954796,-2.080481,0.31435546,-0.40356445,99.0
657,0.97579575,0.58467865,1.4954796,-2.0199463,0.016992187,-0.43967286,99.0
658,0.5014739,0.17784882,1.3504868,-2.0199463,0.016992187,-0.43967286,99.0
659,0.5014739,0.17784882,1.3504868,-1.7788696,-0.2081543,-0.56392825,99.0
660,-0.5479908,-0.19544983,1.4304733,-1.7788696,-0.2081543,-0.56392825,99.0
661,-0.5479908,-0.19544983,1.4304733,-1.3434448,-0.3791382,-0.76358646,99.0
662,-1.3645158,-0.6285248,1.7152786,-1.3434448,-0.3791382,-0.76358646,99.0
663,-1.3645158,-0.6285248,1.7152786,-0.52250975,-0.5533081,-0.98448485,99.0
664,-1.4995961,-1.0495224,1.9970169,-0.52250975,-0.5533081,-0.98448485,99.0
665,-1.4995961,-1.0495224,1.9970169,0.5129517,-0.65419924,-1.1406006,99.0
666,-1.3076115,-1.2008362,1.9839287,0.5129517,-0.65419924,-1.1406006,99.0
667,-1.3076115,-1.2008362,1.9839287,1.4071655,-0.7147339,-1.170337,99.0
668,-1.1955764,-0.929039,1.4055519,1.4071655,-0.7147339,-1.170337,99.0
669,-1.1955764,-0.929039,1.4055519,1.9371094,-0.7306641,-1.0439576,99.0
670,-1.1496985,-0.27738953,0.36397934,1.9371094,-0.7306641,-1.0439576,99.0
671,-1.1496985,-0.27738953,0.36397934,2.0433106,-0.6690674,-0.8262451,99.0
672,-1.0892291,0.56951904,-0.6791153,2.0433106,-0.6690674,-0.8262451,99.0
673,-1.0892291,0.56951904,-0.6791153,1.721521,-0.5320679,-0.63826907,99.0
674,-1.1445155,1.3359833,-1.3726387,1.721521,-0.5320679,-0.63826907,99.0
675,-1.1445155,1.3359833,-1.3726387,1.1066163,-0.35046387,-0.5214478,99.0
676,-1.3882809,1.6935806,-1.6237564,1.1066163,-0.35046387,-0.5214478,99.0
677,-1.3882809,1.6935806,-1.6237564,0.4725952,-0.1709839,-0.49383545,99.0
678,-1.6419114,1.4722519,-1.5034218,0.4725952,-0.1709839,-0.49383545,99.0
679,-1.6419114,1.4722519,-1.5034218,0.058410645,-0.058410645,-0.56605226,99.0
680,-1.7026404,0.8612213,-1.2050095,0.058410645,-0.058410645,-0.56605226,99.0
681,-1.7026404,0.8612213,-1.2050095,-0.1731079,0.020178223,-0.6510132,99.0
682,-1.5542998,0.23097992,-0.9640541,-0.1731079,0.020178223,-0.6510132,99.0
683,-1.5542998,0.23097992,-0.9640541,-0.33665773,0.07540283,-0.70198977,99.0
684,-1.2776439,-0.21330261,-0.8508949,-0.33665773,0.07540283,-0.70198977,99.0
685,-1.2776439,-0.21330261,-0.8508949,-0.48109132,0.12213135,-0.72960204,99.0
686,-0.9102255,-0.4786148,-0.77433014,-0.48109132,0.12213135,-0.72960204,99.0
687,-0.9102255,-0.4786148,-0.77433014,-0.6244629,0.16354981,-0.7327881,99.0
688,-0.46195728,-0.62350464,-0.58418655,-0.6244629,0.16354981,-0.7327881,99.0
689,-0.46195728,-0.62350464,-0.58418655,-0.7805786,0.1996582,-0.7126099,99.0
690,-0.0012919009,-0.7158432,-0.29878235,-0.7805786,0.1996582,-0.7126099,99.0
691,-0.0012919009,-0.7158432,-0.29878235,-0.83686525,0.18266602,-0.6924316,99.0
692,0.3890544,-0.75102997,-0.012268066,-0.83686525,0.18266602,-0.6924316,99.0
693,0.3890544,-0.75102997,-0.012268066,-0.81031495,0.14761963,-0.66588134,99.0
694,0.5472665,-0.65800476,0.21636963,-0.81031495,0.14761963,-0.66588134,99.0
695,0.5472665,-0.65800476,0.21636963,-0.7858887,0.07646485,-0.63614506,99.0
696,0.43756902,-0.47995758,0.37169266,-0.7858887,0.07646485,-0.63614506,99.0
697,0.43756902,-0.47995758,0.37169266,-0.6903076,-0.05522461,-0.63826907,99.0
698,0.29590482,-0.3866501,0.43350983,-0.6903076,-0.05522461,-0.63826907,99.0
699,0.29590482,-0.3866501,0.43350983,-0.4078125,-0.24532472,-0.64570314,99.0
700,0.3140188,-0.46022034,0.44942093,-0.4078125,-0.24532472,-0.64570314,99.0
701,0.3140188,-0.46022034,0.44942093,0.043542482,-0.47365722,-0.60109866,99.0
702,0.45875895,-0.6344223,0.41791153,0.043542482,-0.47365722,-0.60109866,99.0
703,0.45875895,-0.6344223,0.41791153,0.5798584,-0.70305175,-0.4895874,99.0
704,0.70350623,-0.78230286,0.3216095,0.5798584,-0.70305175,-0.4895874,99.0
705,0.70350623,-0.78230286,0.3216095,1.0938721,-0.93350834,-0.3695801,99.0
706,1.3739744,-0.9944916,0.25266266,1.0938721,-0.93350834,-0.3695801,99.0
707,1.3739744,-0.9944916,0.25266266,1.6131958,-1.0981201,-0.32709962,99.0
708,2.3233495,-1.2961273,0.37007523,1.6131958,-1.0981201,-0.32709962,99.0
709,2.3233495,-1.2961273,0.37007523,1.9509156,-1.0365235,-0.1985962,99.0
710,2.5149417,-1.6037979,0.698719,1.9509156,-1.0365235,-0.1985962,99.0
711,2.5149417,-1.6037979,0.698719,2.1091554,-0.84536135,0.053100586,99.0
712,1.7085354,-1.8135071,0.9392624,2.1091554,-0.84536135,0.053100586,99.0
713,1.7085354,-1.8135071,0.9392624,2.2376587,-0.61702883,0.37382814,99.0
714,0.569819,-1.5326538,0.6584282,2.2376587,-0.61702883,0.37382814,99.0
715,0.569819,-1.5326538,0.6584282,2.1017213,-0.46834716,0.79119873,99.0
716,-0.2523358,-0.78926086,-0.12114334,2.1017213,-0.46834716,0.79119873,99.0
717,-0.2523358,-0.78926086,-0.12114334,1.906311,-0.36851808,1.1894531,99.0
718,-0.54516697,-0.19197083,-0.87501526,1.906311,-0.36851808,1.1894531,99.0
719,-0.54516697,-0.19197083,-0.87501526,1.9615357,-0.31966552,1.5547851,99.0
720,-0.67801595,0.016647339,-1.2931747,1.9615357,-0.31966552,1.5547851,99.0
721,-0.67801595,0.016647339,-1.2931747,2.1399536,-0.29417726,1.8797607,99.0
722,-0.87968063,-0.040786743,-1.4664497,2.1399536,-0.29417726,1.8797607,99.0
723,-0.87968063,-0.040786743,-1.4664497,2.2928834,-0.28355715,2.1123414,99.0
724,-0.9658904,-0.19293213,-1.4903107,2.2928834,-0.28355715,2.1123414,99.0
725,-0.9658904,-0.19293213,-1.4903107,2.2971313,-0.21134034,2.2854493,99.0
726,-0.94220686,-0.27844238,-1.3340683,2.2971313,-0.21134034,2.2854493,99.0
727,-0.94220686,-0.27844238,-1.3340683,2.081543,-0.07540283,2.4192626,99.0
728,-1.0900204,-0.29026794,-1.0568657,2.081543,-0.07540283,2.4192626,99.0
729,-1.0900204,-0.29026794,-1.0568657,1.8638306,0.021240234,2.4861696,99.0
730,-1.3823435,-0.25022125,-0.7880478,1.8638306,0.021240234,2.4861696,99.0
731,-1.3823435,-0.25022125,-0.7880478,1.4666382,0.12531738,2.4691772,99.0
732,-1.6187533,-0.24340057,-0.6028366,1.4666382,0.12531738,2.4691772,99.0
733,-1.6187533,-0.24340057,-0.6028366,0.97492677,0.2166504,2.34917,99.0
734,-1.7176833,-0.4692459,-0.4737358,0.97492677,0.2166504,2.34917,99.0
735,-1.7176833,-0.4692459,-0.4737358,0.6903076,0.20390625,2.175,99.0
736,-1.5618298,-0.9249115,-0.35924911,0.6903076,0.20390625,2.175,99.0
737,-1.5618298,-0.9249115,-0.35924911,0.6786255,0.18903808,1.9349854,99.0
738,-1.0930917,-1.4305878,-0.23489761,0.6786255,0.18903808,1.9349854,99.0
739,-1.0930917,-1.4305878,-0.23489761,0.94412845,0.1996582,1.632312,99.0
740,-0.42451006,-1.7567749,-0.13910294,0.94412845,0.1996582,1.632312,99.0
741,-0.42451006,-1.7567749,-0.13910294,1.3296387,0.25806886,1.2924683,99.0
742,0.20832896,-1.7626343,-0.14847565,1.3296387,0.25806886,1.2924683,99.0
743,0.20832896,-1.7626343,-0.14847565,1.6046997,0.38338622,0.9483765,99.0
744,0.6416998,-1.4698715,-0.2276535,1.6046997,0.38338622,0.9483765,99.0
745,0.6416998,-1.4698715,-0.2276535,1.5972656,0.5649902,0.6796875,99.0
746,0.89301074,-0.9866257,-0.32001495,1.5972656,0.5649902,0.6796875,99.0
747,0.89301074,-0.9866257,-0.32001495,1.2999023,0.73809814,0.4970215,99.0
748,0.9784833,-0.4383011,-0.36769485,1.2999023,0.73809814,0.4970215,99.0
749,0.9784833,-0.4383011,-0.36769485,0.8602295,0.88040775,0.38869628,99.0
750,0.9784833,-0.4383011,-0.36769485,0.8602295,0.88040775,0.38869628,99.0
751,1.023778,0.0448761,-0.31982803,0.8602295,0.88040775,0.38869628,99.0
752,1.023778,0.0448761,-0.31982803,0.37489015,0.91864014,0.31860352,99.0
753,1.2841713,0.35520172,-0.14693832,0.37489015,0.91864014,0.31860352,99.0
754,1.2841713,0.35520172,-0.14693832,-0.07540283,0.901648,0.26868898,99.0
755,1.6696956,0.44589996,0.10742569,-0.07540283,0.901648,0.26868898,99.0
756,1.6696956,0.44589996,0.10742569,-0.39506838,0.80606693,0.25063476,99.0
757,1.6709859,0.36727905,0.35646057,-0.39506838,0.80606693,0.25063476,99.0
758,1.6709859,0.36727905,0.35646057,-0.58623046,0.6552612,0.26868898,99.0
759,1.1337371,0.2517929,0.50481033,-0.58623046,0.6552612,0.26868898,99.0
760,1.1337371,0.2517929,0.50481033,-0.7051758,0.3982544,0.18585205,99.0
761,0.7807567,0.15596771,0.41189194,-0.7051758,0.3982544,0.18585205,99.0
762,0.7807567,0.15596771,0.41189194,-0.8209351,0.11257324,-0.06690674,99.0
763,1.0729818,-0.0386734,0.15649033,-0.8209351,0.11257324,-0.06690674,99.0
764,1.0729818,-0.0386734,0.15649033,-0.8262451,-0.087084964,-0.36533204,99.0
765,1.1544428,-0.36231232,0.03561783,-0.8262451,-0.087084964,-0.36533204,99.0
766,1.1544428,-0.36231232,0.03561783,-0.7604004,-0.2538208,-0.57561034,99.0
767,0.18451619,-0.5287628,0.22336578,-0.7604004,-0.2538208,-0.57561034,99.0
768,0.18451619,-0.5287628,0.22336578,-0.7869507,-0.4354248,-0.6701294,99.0
769,-1.1408758,-0.41251373,0.58524704,-0.7869507,-0.4354248,-0.6701294,99.0
770,-1.1408758,-0.41251373,0.58524704,-0.7423462,-0.68924564,-0.75296634,99.0
771,-1.7840629,-0.27326202,0.8976059,-0.7423462,-0.68924564,-0.75296634,99.0
772,-1.7840629,-0.27326202,0.8976059,-0.30161133,-0.9791748,-0.8814697,99.0
773,-1.7693036,-0.22671509,1.1079636,-0.30161133,-0.9791748,-0.8814697,99.0
774,-1.7693036,-0.22671509,1.1079636,0.24957275,-1.1873292,-0.9696167,99.0
775,-1.6513438,-0.20790863,1.1462212,0.24957275,-1.1873292,-0.9696167,99.0
776,-1.6513438,-0.20790863,1.1462212,0.58623046,-1.2744141,-0.9770508,99.0
777,-1.6728939,-0.13465881,0.9086151,0.58623046,-1.2744141,-0.9770508,99.0
778,-1.6728939,-0.13465881,0.9086151,0.7508423,-1.2351197,-0.9165161,99.0
779,-1.785947,0.079566956,0.4759636,0.7508423,-1.2351197,-0.9165161,99.0
780,-1.785947,0.079566956,0.4759636,0.7497803,-1.1225464,-0.83474123,99.0
781,-1.8656472,0.4478073,0.033981323,0.7497803,-1.1225464,-0.83474123,99.0
782,-1.8656472,0.4478073,0.033981323,0.49064943,-0.9420044,-0.8028809,99.0
783,-1.8240608,0.80402374,-0.30036545,0.49064943,-0.9420044,-0.8028809,99.0
784,-1.8240608,0.80402374,-0.30036545,0.03717041,-0.7391602,-0.8262451,99.0
785,-1.6229937,0.94877625,-0.5343971,0.03717041,-0.7391602,-0.8262451,99.0
786,-1.6229937,0.94877625,-0.5343971,-0.46834716,-0.5703003,-0.89421386,99.0
787,-1.282233,0.8286133,-0.64992905,-0.46834716,-0.5703003,-0.89421386,99.0
788,-1.282233,0.8286133,-0.64992905,-0.8602295,-0.44498292,-1.0036011,99.0
789,-0.85448515,0.5482712,-0.58683777,-0.8602295,-0.44498292,-1.0036011,99.0
790,-0.85448515,0.5482712,-0.58683777,-1.1193603,-0.34727785,-1.1448487,99.0
791,-0.38527274,0.21094513,-0.32930756,-1.1193603,-0.34727785,-1.1448487,99.0
792,-0.38527274,0.21094513,-0.32930756,-1.270166,-0.25063476,-1.3020264,99.0
793,0.12004113,-0.13654327,0.010551453,-1.270166,-0.25063476,-1.3020264,99.0
794,0.12004113,-0.13654327,0.010551453,-1.3668091,-0.14761963,-1.4560181,99.0
795,0.5339968,-0.44883728,0.3412552,-1.3668091,-0.14761963,-1.4560181,99.0
796,0.5339968,-0.44883728,0.3412552,-1.4369019,-0.04885254,-1.5590333,99.0
797,0.7001467,-0.73838806,0.5837822,-1.4369019,-0.04885254,-1.5590333,99.0
798,0.7001467,-0.73838806,0.5837822,-1.3848633,-0.012744141,-1.6100098,99.0
799,0.67693865,-0.97052,0.65966415,-1.3848633,-0.012744141,-1.6100098,99.0
800,0.67693865,-0.97052,0.65966415,-1.1225464,-0.035046387,-1.6238159,99.0
801,0.59761786,-1.1599731,0.6842499,-1.1225464,-0.035046387,-1.6238159,99.0
802,0.59761786,-1.1599731,0.6842499,-0.6117188,-0.115759276,-1.5962037,99.0
803,0.5569395,-1.368576,0.84449387,-0.6117188,-0.115759276,-1.5962037,99.0
804,0.5569395,-1.368576,0.84449387,0.13487549,-0.1985962,-1.5154908,99.0
805,0.6412425,-1.5620117,1.0807228,0.13487549,-0.1985962,-1.5154908,99.0
806,0.6412425,-1.5620117,1.0807228,0.9611206,-0.2548828,-1.3498169,99.0
807,0.8172909,-1.6270523,1.1678238,0.9611206,-0.2548828,-1.3498169,99.0
808,0.8172909,-1.6270523,1.1678238,1.6716064,-0.271875,-1.1225464,99.0
809,1.1361936,-1.5017548,0.9912529,1.6716064,-0.271875,-1.1225464,99.0
810,1.1361936,-1.5017548,0.9912529,2.1558838,-0.26975098,-0.8952759,99.0
811,1.8951854,-1.2773819,0.66277695,2.1558838,-0.26975098,-0.8952759,99.0
812,1.8951854,-1.2773819,0.66277695,2.3937745,-0.20709229,-0.6435791,99.0
813,2.8922102,-0.9789963,0.44225693,2.3937745,-0.20709229,-0.6435791,99.0
814,2.8922102,-0.9789963,0.44225693,2.2238526,0.060534667,-0.20284425,99.0
815,3.1502306,-0.67375183,0.42935562,2.2238526,0.060534667,-0.20284425,99.0
816,3.1502306,-0.67375183,0.42935562,1.7831177,0.3727661,0.3525879,99.0
817,2.3193057,-0.44849396,0.35189438,1.7831177,0.3727661,0.3525879,99.0
818,2.3193057,-0.44849396,0.35189438,1.4772583,0.48640138,0.8644776,99.0
819,1.0020266,-0.03504181,-0.08039856,1.4772583,0.48640138,0.8644776,99.0
820,1.0020266,-0.03504181,-0.08039856,1.173523,0.5256958,1.3721192,99.0
821,-0.1620996,0.45321655,-0.6510124,1.173523,0.5256958,1.3721192,99.0
822,-0.1620996,0.45321655,-0.6510124,0.98873293,0.5586182,1.7682495,99.0
823,-0.7765424,0.54732513,-0.96694183,0.98873293,0.5586182,1.7682495,99.0
824,-0.7765424,0.54732513,-0.96694183,1.0524536,0.55543214,2.0879152,99.0
825,-0.90889263,0.29224396,-0.9560127,1.0524536,0.55543214,2.0879152,99.0
826,-0.90889263,0.29224396,-0.9560127,1.1257324,0.5936646,2.3767822,99.0
827,-0.9502344,0.03866577,-0.86524963,1.1257324,0.5936646,2.3767822,99.0
828,-0.9502344,0.03866577,-0.86524963,1.1193603,0.62764895,2.5955567,99.0
829,-1.0377021,-0.12312317,-0.87688065,1.1193603,0.62764895,2.5955567,99.0
830,-1.0377021,-0.12312317,-0.87688065,1.1002442,0.6595093,2.732556,99.0
831,-1.1139263,-0.20005035,-0.9253807,1.1002442,0.6595093,2.732556,99.0
832,-1.1139263,-0.20005035,-0.9253807,1.0110352,0.6977417,2.803711,99.0
833,-1.2585971,-0.2136383,-0.9350815,1.0110352,0.6977417,2.803711,99.0
834,-1.2585971,-0.2136383,-0.9350815,0.9547486,0.70942384,2.7899048,99.0
835,-1.5017874,-0.28401184,-0.8625908,0.9547486,0.70942384,2.7899048,99.0
836,-1.5017874,-0.28401184,-0.8625908,1.0407715,0.6945557,2.7006958,99.0
837,-1.7066301,-0.4049225,-0.77544785,1.0407715,0.6945557,2.7006958,99.0
838,-1.7066301,-0.4049225,-0.77544785,1.2117554,0.5936646,2.5700684,99.0
839,-1.7693813,-0.4676895,-0.72610855,1.2117554,0.5936646,2.5700684,99.0
840,-1.7693813,-0.4676895,-0.72610855,1.4082276,0.5076416,2.3799684,99.0
841,-1.6891012,-0.5017166,-0.6452179,1.4082276,0.5076416,2.3799684,99.0
842,-1.6891012,-0.5017166,-0.6452179,1.6450561,0.42055663,2.1080933,99.0
843,-1.4313836,-0.59065247,-0.45767975,1.6450561,0.42055663,2.1080933,99.0
844,-1.4313836,-0.59065247,-0.45767975,1.896753,0.35471192,1.812854,99.0
845,-0.99508244,-0.7008896,-0.19478226,1.896753,0.35471192,1.812854,99.0
846,-0.99508244,-0.7008896,-0.19478226,2.0826051,0.33878174,1.5292969,99.0
847,-0.4542935,-0.7414093,0.07395935,2.0826051,0.33878174,1.5292969,99.0
848,-0.4542935,-0.7414093,0.07395935,2.156946,0.37595215,1.2531738,99.0
849,0.009319127,-0.64045715,0.33119965,2.156946,0.37595215,1.2531738,99.0
850,0.009319127,-0.64045715,0.33119965,2.092163,0.452417,1.0365235,99.0
851,0.17801195,-0.36309052,0.53313446,2.092163,0.452417,1.0365235,99.0
852,0.17801195,-0.36309052,0.53313446,1.8255981,0.51826173,0.9165161,99.0
853,0.096254766,0.10845184,0.6467476,1.8255981,0.51826173,0.9165161,99.0
854,0.096254766,0.10845184,0.6467476,1.4092896,0.5065796,0.8294312,99.0
855,0.09935492,0.7348709,0.6357956,1.4092896,0.5065796,0.8294312,99.0
856,0.09935492,0.7348709,0.6357956,1.4092896,0.5065796,0.8294312,97.0
857,0.09935492,0.7348709,0.6357956,0.89846194,0.42799073,0.6711914,97.0
858,0.30943996,1.2824249,0.56404495,0.89846194,0.42799073,0.6711914,97.0
859,0.30943996,1.2824249,0.56404495,0.39400634,0.31966552,0.4609131,97.0
860,0.5004085,1.4667969,0.52440643,0.39400634,0.31966552,0.4609131,97.0
861,0.5004085,1.4667969,0.52440643,-0.02442627,0.16142578,0.270813,97.0
862,0.4795016,1.3235931,0.56282425,-0.02442627,0.16142578,0.270813,97.0
863,0.4795016,1.3235931,0.56282425,-0.40144044,0.016992187,0.07965088,97.0
864,0.5747634,1.0441742,0.6528206,-0.40144044,0.016992187,0.07965088,97.0
865,0.5747634,1.0441742,0.6528206,-0.76358646,-0.2081543,-0.20284425,97.0
866,1.3568078,0.66880035,0.5927048,-0.76358646,-0.2081543,-0.20284425,97.0
867,1.3568078,0.66880035,0.5927048,-1.1395386,-0.48533937,-0.5957886,97.0
868,2.1372163,0.13481903,0.39912796,-1.1395386,-0.48533937,-0.5957886,97.0
869,2.1372163,0.13481903,0.39912796,-1.3466309,-0.54375,-0.8772217,97.0
870,1.4911085,-0.28139496,0.4264679,-1.3466309,-0.54375,-0.8772217,97.0
871,1.4911085,-0.28139496,0.4264679,-1.5526612,-0.67331547,-1.083252,97.0
872,-0.09933734,-0.33312225,0.68362045,-1.5526612,-0.67331547,-1.083252,97.0
873,-0.09933734,-0.33312225,0.68362045,-1.8351563,-0.81987303,-1.2510499,97.0
874,-1.0142599,-0.33367157,0.89318466,-1.8351563,-0.81987303,-1.2510499,97.0
875,-1.0142599,-0.33367157,0.89318466,-1.725769,-0.9600586,-1.4039795,97.0
876,-1.0048895,-0.46111298,0.9536705,-1.725769,-0.9600586,-1.4039795,97.0
877,-1.0048895,-0.46111298,0.9536705,-1.3466309,-1.0662597,-1.5208008,97.0
878,-0.8587944,-0.57082367,0.94864273,-1.3466309,-1.0662597,-1.5208008,97.0
879,-0.8587944,-0.57082367,0.94864273,-0.95581055,-1.0821899,-1.632312,97.0
880,-1.0013666,-0.55659485,0.8922615,-0.95581055,-1.0821899,-1.632312,97.0
881,-1.0013666,-0.55659485,0.8922615,-0.68499756,-1.0174073,-1.6694825,97.0
882,-1.3268257,-0.4150238,0.7108307,-0.68499756,-1.0174073,-1.6694825,97.0
883,-1.3268257,-0.4150238,0.7108307,-0.5161377,-0.9366943,-1.622754,97.0
884,-1.602586,-0.15330505,0.35196686,-0.5161377,-0.9366943,-1.622754,97.0
885,-1.602586,-0.15330505,0.35196686,-0.48746338,-0.8219971,-1.5505371,97.0
886,-1.6902475,0.123428345,-0.09293747,-0.48746338,-0.8219971,-1.5505371,97.0
887,-1.6902475,0.123428345,-0.09293747,-0.56180423,-0.73703617,-1.4868164,97.0
888,-1.4900765,0.33592224,-0.43259048,-0.56180423,-0.73703617,-1.4868164,97.0
889,-1.4900765,0.33592224,-0.43259048,-0.7720825,-0.632959,-1.4337158,97.0
890,-1.0442462,0.42751312,-0.5110855,-0.7720825,-0.632959,-1.4337158,97.0
891,-1.0442462,0.42751312,-0.5110855,-1.085376,-0.49171144,-1.4273437,97.0
892,-0.5317714,0.34701538,-0.38007355,-1.085376,-0.49171144,-1.4273437,97.0
893,-0.5317714,0.34701538,-0.38007355,-1.3806152,-0.35895997,-1.4900025,97.0
894,-0.12345171,0.06059265,-0.20542526,-1.3806152,-0.35895997,-1.4900025,97.0
895,-0.12345171,0.06059265,-0.20542526,-1.5696534,-0.24744873,-1.5739014,97.0
896,0.12667799,-0.33935547,-0.09458923,-1.5696534,-0.24744873,-1.5739014,97.0
897,0.12667799,-0.33935547,-0.09458923,-1.6365601,-0.16461182,-1.635498,97.0
898,0.33525348,-0.6720581,-0.02412033,-1.6365601,-0.16461182,-1.635498,97.0
899,0.33525348,-0.6720581,-0.02412033,-1.5866455,-0.12319336,-1.6790406,97.0
900,0.5991111,-0.880043,0.08816147,-1.5866455,-0.12319336,-1.6790406,97.0
901,0.5991111,-0.880043,0.08816147,-1.4103516,-0.0998291,-1.720459,97.0
902,0.8434491,-1.0217133,0.25812912,-1.4103516,-0.0998291,-1.720459,97.0
903,0.8434491,-1.0217133,0.25812912,-1.0715698,-0.09239502,-1.7448853,97.0
904,0.9055821,-1.1732864,0.46057892,-1.0715698,-0.09239502,-1.7448853,97.0
905,0.9055821,-1.1732864,0.46057892,-0.5628662,-0.12319336,-1.718335,97.0
906,0.8056179,-1.3260651,0.6850281,-0.5628662,-0.12319336,-1.718335,97.0
907,0.8056179,-1.3260651,0.6850281,0.07115479,-0.17629395,-1.6376221,97.0
908,0.7538449,-1.4138794,0.9151993,0.07115479,-0.17629395,-1.6376221,97.0
909,0.7538449,-1.4138794,0.9151993,0.72641605,-0.1901001,-1.4815063,97.0
910,0.77067846,-1.3145142,1.0254326,0.72641605,-0.1901001,-1.4815063,97.0
911,0.77067846,-1.3145142,1.0254326,1.2106934,-0.14337158,-1.2191895,97.0
912,0.7406639,-0.98158264,0.9566879,1.2106934,-0.14337158,-1.2191895,97.0
913,0.7406639,-0.98158264,0.9566879,1.4262818,-0.050976563,-0.90058595,97.0
914,0.89007753,-0.59033203,0.81204224,1.4262818,-0.050976563,-0.90058595,97.0
915,0.89007753,-0.59033203,0.81204224,1.4007934,0.03079834,-0.6064087,97.0
916,1.777736,-0.37955475,0.81479645,1.4007934,0.03079834,-0.6064087,97.0
917,1.777736,-0.37955475,0.81479645,1.2903442,0.22833252,-0.3451538,97.0
918,3.001034,-0.16027069,0.9646416,1.2903442,0.22833252,-0.3451538,97.0
919,3.001034,-0.16027069,0.9646416,0.79332274,0.635083,0.04885254,97.0
920,3.1423068,0.23186493,0.8644371,0.79332274,0.635083,0.04885254,97.0
921,3.1423068,0.23186493,0.8644371,0.0637207,0.88040775,0.48640138,97.0
922,2.1172268,0.48068237,0.298851,0.0637207,0.88040775,0.48640138,97.0
923,2.1172268,0.48068237,0.298851,-0.31860352,0.99722904,0.99085695,97.0
924,1.194941,0.51265717,-0.4677658,-0.31860352,0.99722904,0.99085695,97.0
925,1.194941,0.51265717,-0.4677658,-0.4609131,1.0184692,1.5866455,97.0
926,0.8341999,0.51338196,-1.0623589,-0.4609131,1.0184692,1.5866455,97.0
927,0.8341999,0.51338196,-1.0623589,-0.41843262,1.0152832,2.175,97.0
928,0.61430836,0.4677658,-1.3713226,-0.41843262,1.0152832,2.175,97.0
929,0.61430836,0.4677658,-1.3713226,-0.15930176,0.9483765,2.619983,97.0
930,0.23845577,0.3539505,-1.4965439,-0.15930176,0.9483765,2.619983,97.0
931,0.23845577,0.3539505,-1.4965439,0.1996582,0.8814697,2.9704468,97.0
932,-0.20279026,0.23899841,-1.5415115,0.1996582,0.8814697,2.9704468,97.0
933,-0.20279026,0.23899841,-1.5415115,0.62764895,0.79013675,3.2848022,97.0
934,-0.54795,0.2887802,-1.5521927,0.62764895,0.79013675,3.2848022,97.0
935,-0.54795,0.2887802,-1.5521927,0.8464233,0.7975708,3.524817,97.0
936,-0.9653132,0.57814026,-1.4934616,0.8464233,0.7975708,3.524817,97.0
937,-0.9653132,0.57814026,-1.4934616,0.7614624,0.86553955,3.6522584,97.0
938,-1.6278415,0.8213272,-1.3268242,0.7614624,0.86553955,3.6522584,97.0
939,-1.6278415,0.8213272,-1.3268242,0.6924316,0.84323734,3.6745605,97.0
940,-2.258267,0.8017044,-1.1051979,0.6924316,0.84323734,3.6745605,97.0
941,-2.258267,0.8017044,-1.1051979,0.7306641,0.7625244,3.6543825,97.0
942,-2.4811618,0.6512985,-0.9081459,0.7306641,0.7625244,3.6543825,97.0
943,-2.4811618,0.6512985,-0.9081459,0.7869507,0.68499756,3.5492432,97.0
944,-2.3526785,0.56440735,-0.82494354,0.7869507,0.68499756,3.5492432,97.0
945,-2.3526785,0.56440735,-0.82494354,0.7423462,0.5894165,3.3187866,97.0
946,-2.156691,0.4471817,-0.7957573,0.7423462,0.5894165,3.3187866,97.0
947,-2.156691,0.4471817,-0.7957573,0.8241211,0.48321533,2.9959352,97.0
948,-2.156691,0.4471817,-0.7957573,0.8241211,0.48321533,2.9959352,96.0
949,-1.9196157,0.17760468,-0.60442734,0.8241211,0.48321533,2.9959352,96.0
950,-1.9196157,0.17760468,-0.60442734,1.0875,0.42905274,2.628479,96.0
951,-1.5467155,-0.07975769,-0.20859146,1.0875,0.42905274,2.628479,96.0
952,-1.5467155,-0.07975769,-0.20859146,1.4018555,0.43117675,2.2482789,96.0
953,-1.1413763,-0.06742859,0.16632843,1.4018555,0.43117675,2.2482789,96.0
954,-1.1413763,-0.06742859,0.16632843,1.5685914,0.48215333,1.8755127,96.0
955,-1.1413763,-0.06742859,0.16632843,1.448584,0.5522461,1.4740723,96.0
956,-0.8810575,0.33154297,0.34636688,1.448584,0.5522461,1.4740723,96.0
957,-0.6986692,2.3966446,0.5093689,1.448584,0.5522461,1.4740723,96.0
958,-0.6986692,2.3966446,0.5093689,1.0694458,0.56180423,1.089624,96.0
959,-0.6986692,2.3966446,0.5093689,0.5055176,0.4725952,0.6924316,96.0
960,-0.6986692,2.3966446,0.5093689,-0.07752686,0.33665773,0.30267334,96.0
961,-0.40600574,2.1987228,0.5202255,-0.07752686,0.33665773,0.30267334,96.0
962,-0.40600574,2.1987228,0.5202255,-0.50445557,0.13487549,-0.04885254,96.0
963,-0.30708003,1.6761017,0.6934128,-0.50445557,0.13487549,-0.04885254,96.0
964,-0.30708003,1.6761017,0.6934128,-0.6945557,-0.09133301,-0.41099855,96.0
965,-0.22073722,1.0395737,1.0078163,-0.6945557,-0.09133301,-0.41099855,96.0
966,-0.22073722,1.0395737,1.0078163,-0.7391602,-0.33240968,-0.8294312,96.0
967,0.44368613,0.3829422,1.2064133,-0.7391602,-0.33240968,-0.8294312,96.0
968,0.44368613,0.3829422,1.2064133,-0.77951664,-0.61702883,-1.3530029,96.0
969,1.7412404,-0.33200836,1.0683899,-0.77951664,-0.61702883,-1.3530029,96.0
970,1.7412404,-0.33200836,1.0683899,-0.79119873,-0.90270996,-1.899939,96.0
971,2.405468,-1.0042877,0.8686638,-0.79119873,-0.90270996,-1.899939,96.0
972,2.405468,-1.0042877,0.8686638,-0.7423462,-1.0301514,-2.261023,96.0
973,1.5925628,-1.3410187,1.0124359,-0.7423462,-1.0301514,-2.261023,96.0
974,1.5925628,-1.3410187,1.0124359,-0.7083618,-1.1597168,-2.524402,96.0
975,0.39580315,-1.3375397,1.3756332,-0.7083618,-1.1597168,-2.524402,96.0
976,0.39580315,-1.3375397,1.3756332,-0.6180908,-1.2181275,-2.704944,96.0
977,-0.015901417,-1.298172,1.5810242,-0.6180908,-1.2181275,-2.704944,96.0
978,-0.015901417,-1.298172,1.5810242,-0.2824951,-1.2542359,-2.803711,96.0
979,0.09515241,-1.204834,1.4614754,-0.2824951,-1.2542359,-2.803711,96.0
980,0.09515241,-1.204834,1.4614754,0.05628662,-1.2956543,-2.803711,96.0
981,0.075133145,-0.9157562,1.0984039,0.05628662,-1.2956543,-2.803711,96.0
982,0.075133145,-0.9157562,1.0984039,0.1709839,-1.2542359,-2.7792847,96.0
983,-0.18354583,-0.5421753,0.65683746,0.1709839,-1.2542359,-2.7792847,96.0
984,-0.18354583,-0.5421753,0.65683746,0.15930176,-1.1236085,-2.6560915,96.0
985,-0.4998762,-0.18611908,0.21215439,0.15930176,-1.1236085,-2.6560915,96.0
986,-0.4998762,-0.18611908,0.21215439,0.007434082,-0.96218264,-2.4553711,96.0
987,-0.771837,0.10958099,-0.22052383,0.007434082,-0.96218264,-2.4553711,96.0
988,-0.771837,0.10958099,-0.22052383,-0.2899292,-0.7763306,-2.265271,96.0
989,-0.95211315,0.28164673,-0.56622696,-0.2899292,-0.7763306,-2.265271,96.0
990,-0.95211315,0.28164673,-0.56622696,-0.65207523,-0.61915284,-2.0741088,96.0
991,-0.93832636,0.3203888,-0.7333298,-0.65207523,-0.61915284,-2.0741088,96.0
992,-0.93832636,0.3203888,-0.7333298,-1.0439576,-0.43967286,-1.8893188,96.0
993,-0.6907246,0.32263947,-0.7165108,-1.0439576,-0.43967286,-1.8893188,96.0
994,-0.6907246,0.32263947,-0.7165108,-1.2510499,-0.3419678,-1.8171021,96.0
995,-0.4223063,0.07980347,-0.61888885,-1.2510499,-0.3419678,-1.8171021,96.0
996,-0.4223063,0.07980347,-0.61888885,-1.803296,-0.12000733,-1.6981567,96.0
997,-0.15536213,0.056388855,-0.65763474,-1.803296,-0.12000733,-1.6981567,96.0
998,-0.15536213,0.056388855,-0.65763474,-1.9211792,-0.081774905,-1.6779785,96.0
999,0.24715805,-0.5552826,-0.8077965,-1.9211792,-0.081774905,-1.6779785,96.0
1000,0.24715805,-0.5552826,-0.8077965,-2.0103881,-0.020178223,-1.5919555,96.0
1001,0.40838313,-0.49985504,-0.80257416,-2.0103881,-0.020178223,-1.5919555,96.0
1002,0.40838313,-0.49985504,-0.80257416,-1.9859619,0.0021240234,-1.5611572,96.0
1003,0.6620703,-0.957695,-0.52249146,-1.9859619,0.0021240234,-1.5611572,96.0
1004,0.6620703,-0.957695,-0.52249146,-1.6716064,0.010620117,-1.4857544,96.0
1005,0.69772255,-0.7900543,-0.4124031,-1.6716064,0.010620117,-1.4857544,96.0
1006,0.69772255,-0.7900543,-0.4124031,-1.5038086,-0.0063720704,-1.4698242,96.0
1007,0.64537287,-1.0784073,-0.116127014,-1.5038086,-0.0063720704,-1.4698242,96.0
1008,0.64537287,-1.0784073,-0.116127014,-0.7327881,-0.124255374,-1.454956,96.0
1009,0.5101948,-1.0118713,-0.003791809,-0.7327881,-0.124255374,-1.454956,96.0
1010,0.5101948,-1.0118713,-0.003791809,-0.3727661,-0.17629395,-1.449646,96.0
1011,0.4244644,-1.3067474,0.4996643,-0.3727661,-0.17629395,-1.449646,96.0
1012,0.4244644,-1.3067474,0.4996643,0.6945557,-0.28780517,-1.3285767,96.0
1013,0.47586304,-1.2344131,0.62405014,0.6945557,-0.28780517,-1.3285767,96.0
1014,0.47586304,-1.2344131,0.62405014,0.97492677,-0.29417726,-1.2468017,96.0
1015,0.83370554,-1.0923538,0.81526566,0.97492677,-0.29417726,-1.2468017,96.0
1016,0.83370554,-1.0923538,0.81526566,1.5250489,-0.26019287,-0.8793457,96.0
1017,0.9775357,-1.0910339,0.799942,1.5250489,-0.26019287,-0.8793457,96.0
1018,0.9775357,-1.0910339,0.799942,1.6737305,-0.24213867,-0.73703617,96.0
1019,2.7250586,-1.3828735,1.0055275,1.6737305,-0.24213867,-0.73703617,96.0
1020,2.7250586,-1.3828735,1.0055275,1.9551636,0.059472658,-0.019116212,96.0
1021,2.8494437,-1.324997,1.0775528,1.9551636,0.059472658,-0.019116212,96.0
1022,2.8494437,-1.324997,1.0775528,1.7746216,0.21983643,0.37382814,96.0
1023,2.3384051,-0.24909973,1.0221977,1.7746216,0.21983643,0.37382814,96.0
1024,2.3384051,-0.24909973,1.0221977,1.0683838,0.51082766,1.4761963,96.0
1025,1.3278532,0.33107758,0.7068329,1.0683838,0.51082766,1.4761963,96.0
1026,1.3278532,0.33107758,0.7068329,0.90270996,0.4800293,1.7321411,96.0
1027,0.26522446,1.6895065,-0.09705734,0.90270996,0.4800293,1.7321411,96.0
1028,0.26522446,1.6895065,-0.09705734,0.45772704,0.4704712,2.1888063,96.0
1029,0.11556101,2.4039993,-0.8565903,0.45772704,0.4704712,2.1888063,96.0
1030,0.11556101,2.4039993,-0.8565903,-0.027612304,0.45878908,2.6667116,96.0
1031,0.472466,1.9191132,-1.1868706,-0.027612304,0.45878908,2.6667116,96.0
1032,0.472466,1.9191132,-1.1868706,-0.8071289,0.5278198,3.2794921,96.0
1033,0.2556095,1.3454208,-0.9626312,-0.8071289,0.5278198,3.2794921,96.0
1034,0.2556095,1.3454208,-0.9626312,-0.99298096,0.544812,3.4738405,96.0
1035,-0.052714586,-0.24868011,-0.6452522,-0.99298096,0.544812,3.4738405,96.0
1036,-0.052714586,-0.24868011,-0.6452522,-0.81987303,0.41949463,3.9634278,96.0
1037,-0.3955531,-0.400383,-0.6650429,-0.81987303,0.41949463,3.9634278,96.0
1038,-0.3955531,-0.400383,-0.6650429,-0.5511841,0.37807617,4.061133,96.0
1039,-0.8398068,-0.57386017,-0.8570938,-0.5511841,0.37807617,4.061133,96.0
1040,-0.8398068,-0.57386017,-0.8570938,0.1731079,0.31116945,4.1184816,96.0
1041,-1.3496408,-0.24456024,-0.88926315,0.1731079,0.31116945,4.1184816,96.0
1042,-1.3496408,-0.24456024,-0.88926315,0.9791748,0.26444092,4.084497,96.0
1043,-1.9553841,0.4249344,-0.865757,0.9791748,0.26444092,4.084497,96.0
1044,-1.9553841,0.4249344,-0.865757,1.538855,0.25594482,3.9549317,96.0
1045,-2.5412483,1.1332703,-0.90979385,1.538855,0.25594482,3.9549317,96.0
1046,-2.5412483,1.1332703,-0.90979385,1.718335,0.3079834,3.7361572,96.0
1047,-3.0334992,1.6093674,-1.0120773,1.718335,0.3079834,3.7361572,96.0
1048,-3.0334992,1.6093674,-1.0120773,1.4846925,0.36851808,3.434546,96.0
1049,-3.3678637,1.5654526,-1.0177422,1.4846925,0.36851808,3.434546,96.0
1050,-3.3678637,1.5654526,-1.0177422,1.4846925,0.36851808,3.434546,95.0
1051,-3.3678637,1.5654526,-1.0177422,1.3657471,0.3069214,3.0978882,95.0
1052,-3.4262369,1.1027069,-0.8348236,1.3657471,0.3069214,3.0978882,95.0
1053,-3.4262369,1.1027069,-0.8348236,1.2414917,0.2166504,2.6029909,95.0
1054,-2.8903792,0.8629608,-0.57154465,1.2414917,0.2166504,2.6029909,95.0
1055,-2.8903792,0.8629608,-0.57154465,1.2234375,0.19647217,2.4288208,95.0
1056,-2.3155017,0.69200134,-0.29561615,1.2234375,0.19647217,2.4288208,95.0
1057,-2.3155017,0.69200134,-0.29561615,1.2329956,0.18160401,2.0337524,95.0
1058,-1.6786342,0.5737686,0.008281708,1.2329956,0.18160401,2.0337524,95.0
1059,-1.6786342,0.5737686,0.008281708,1.2563599,0.22089843,1.6397461,95.0
1060,-1.0843623,0.5240021,0.25844574,1.2563599,0.22089843,1.6397461,95.0
1061,-1.0843623,0.5240021,0.25844574,1.1597168,0.2899292,1.3052124,95.0
1062,-0.7242892,0.5993881,0.30295944,1.1597168,0.2899292,1.3052124,95.0
1063,-0.7242892,0.5993881,0.30295944,0.86978763,0.25594482,1.0227174,95.0
1064,-0.48847675,0.7296295,0.22782898,0.86978763,0.25594482,1.0227174,95.0
1065,-0.48847675,0.7296295,0.22782898,0.56180423,0.1539917,0.68924564,95.0
1066,-0.10315943,0.7967911,0.26325607,0.56180423,0.1539917,0.68924564,95.0
1067,-0.10315943,0.7967911,0.26325607,0.3355957,-0.033984374,0.35683593,95.0
1068,0.32444286,0.8026657,0.5047226,0.3355957,-0.033984374,0.35683593,95.0
1069,0.32444286,0.8026657,0.5047226,0.07646485,-0.23151855,0.033984374,95.0
1070,0.5050621,0.71365356,0.8630562,0.07646485,-0.23151855,0.033984374,95.0
1071,0.5050621,0.71365356,0.8630562,-0.19434814,-0.43011475,-0.3355957,95.0
1072,0.9821501,0.2993164,1.181118,-0.19434814,-0.43011475,-0.3355957,95.0
1073,0.9821501,0.2993164,1.181118,-0.62764895,-0.8326172,-1.1809571,95.0
1074,1.2273827,0.017959595,0.99168396,-0.62764895,-0.8326172,-1.1809571,95.0
1075,1.2273827,0.017959595,0.99168396,-0.77526855,-0.9674927,-1.5016845,95.0
1076,1.842392,-0.5607834,0.83263016,-0.77526855,-0.9674927,-1.5016845,95.0
1077,1.842392,-0.5607834,0.83263016,-0.99085695,-1.1214844,-2.0741088,95.0
1078,1.5955079,-1.1490097,0.9820709,-0.99085695,-1.1214844,-2.0741088,95.0
1079,1.5955079,-1.1490097,0.9820709,-1.0227174,-1.2096313,-2.5042236,95.0
1080,0.76456547,-1.4877853,1.3671646,-1.0227174,-1.2096313,-2.5042236,95.0
1081,0.76456547,-1.4877853,1.3671646,-0.93350834,-1.183081,-2.7835329,95.0
1082,0.23970413,-1.4658585,1.5850525,-0.93350834,-1.183081,-2.7835329,95.0
1083,0.23970413,-1.4658585,1.5850525,-0.7657105,-1.0970582,-2.972571,95.0
1084,0.11188054,-1.1805725,1.3966904,-0.7657105,-1.0970582,-2.972571,95.0
1085,0.11188054,-1.1805725,1.3966904,-0.5671143,-1.0269654,-3.068152,95.0
1086,0.034670353,-0.8264618,0.9070244,-0.5671143,-1.0269654,-3.068152,95.0
1087,0.034670353,-0.8264618,0.9070244,-0.4439209,-0.9494385,-3.1297486,95.0
1088,-0.030759811,-0.6119766,0.41961288,-0.4439209,-0.9494385,-3.1297486,95.0
1089,-0.030759811,-0.6119766,0.41961288,-0.35895997,-0.84111327,-3.1127565,95.0
1090,0.031410217,-0.5082474,0.15779877,-0.35895997,-0.84111327,-3.1127565,95.0
1091,0.031410217,-0.5082474,0.15779877,-0.3079834,-0.64782715,-2.9715087,95.0
1092,0.15665889,-0.29383087,0.08601761,-0.3079834,-0.64782715,-2.9715087,95.0
1093,0.15665889,-0.29383087,0.08601761,-0.5235718,-0.40356445,-2.7453003,95.0
1094,0.111801624,0.1335907,-0.109127045,-0.5235718,-0.40356445,-2.7453003,95.0
1095,0.111801624,0.1335907,-0.109127045,-1.0938721,-0.15611573,-2.5456421,95.0
1096,-0.16834664,0.4705658,-0.53844833,-1.0938721,-0.15611573,-2.5456421,95.0
1097,-0.16834664,0.4705658,-0.53844833,-1.7024049,0.053100586,-2.4320068,95.0
1098,-0.40169382,0.48171234,-1.0393639,-1.7024049,0.053100586,-2.4320068,95.0
1099,-0.40169382,0.48171234,-1.0393639,-2.0826051,0.17523193,-2.3746583,95.0
1100,-0.25601077,0.2059784,-1.3420753,-2.0826051,0.17523193,-2.3746583,95.0
1101,-0.25601077,0.2059784,-1.3420753,-2.2992554,0.24638672,-2.3311157,95.0
1102,0.32105803,-0.19626617,-1.3563156,-2.2992554,0.24638672,-2.3311157,95.0
1103,0.32105803,-0.19626617,-1.3563156,-2.3778443,0.2824951,-2.2748291,95.0
1104,0.97370434,-0.5655823,-1.2432556,-2.3778443,0.2824951,-2.2748291,95.0
1105,0.97370434,-0.5655823,-1.2432556,-2.3725343,0.30373535,-2.1951783,95.0
1106,1.2952355,-0.8293915,-1.1414795,-2.3725343,0.30373535,-2.1951783,95.0
1107,1.2952355,-0.8293915,-1.1414795,-2.1941164,0.28674316,-2.1144655,95.0
1108,1.3424263,-1.0110855,-1.0069199,-2.1941164,0.28674316,-2.1144655,95.0
1109,1.3424263,-1.0110855,-1.0069199,-1.808606,0.24001466,-2.0624268,95.0
1110,1.3165314,-1.1176605,-0.7557297,-1.808606,0.24001466,-2.0624268,95.0
1111,1.3165314,-1.1176605,-0.7557297,-1.3062744,0.17416993,-2.0326905,95.0
1112,1.102041,-1.1029434,-0.3856392,-1.3062744,0.17416993,-2.0326905,95.0
1113,1.102041,-1.1029434,-0.3856392,-0.7657105,0.095581055,-1.9976441,95.0
1114,0.6683638,-0.99547577,0.057994843,-0.7657105,0.095581055,-1.9976441,95.0
1115,0.6683638,-0.99547577,0.057994843,-0.22302246,-0.012744141,-1.9243653,95.0
1116,0.39162466,-0.8702469,0.50413513,-0.22302246,-0.012744141,-1.9243653,95.0
1117,0.39162466,-0.8702469,0.50413513,0.29523927,-0.09239502,-1.7586914,95.0
1118,0.42145404,-0.7535858,0.86247635,0.29523927,-0.09239502,-1.7586914,95.0
1119,0.42145404,-0.7535858,0.86247635,0.71367186,-0.12213135,-1.4804443,95.0
1120,0.5517628,-0.6197357,0.9948387,0.71367186,-0.12213135,-1.4804443,95.0
1121,0.5517628,-0.6197357,0.9948387,1.0142212,-0.16461182,-1.1618408,95.0
1122,0.9825846,-0.5268402,0.9352875,1.0142212,-0.16461182,-1.1618408,95.0
1123,0.9825846,-0.5268402,0.9352875,1.263794,-0.16885987,-0.8793457,95.0
1124,2.0477743,-0.6296005,1.0103264,1.263794,-0.16885987,-0.8793457,95.0
1125,2.0477743,-0.6296005,1.0103264,1.4804443,0.029736329,-0.49277344,95.0
1126,2.9862785,-0.47699738,1.1440163,1.4804443,0.029736329,-0.49277344,95.0
1127,2.9862785,-0.47699738,1.1440163,1.0715698,0.35152587,0.11363526,95.0
1128,2.5980318,0.3941803,0.7824364,1.0715698,0.35152587,0.11363526,95.0
1129,2.5980318,0.3941803,0.7824364,0.095581055,0.5384399,0.77526855,95.0
1130,1.1432569,1.5342865,-0.21083069,0.095581055,0.5384399,0.77526855,95.0
1131,1.1432569,1.5342865,-0.21083069,-0.65632325,0.5320679,1.3753052,95.0
1132,0.083611965,2.208969,-1.2739487,-0.65632325,0.5320679,1.3753052,95.0
1133,0.083611965,2.208969,-1.2739487,-1.0333375,0.43011475,1.9795898,95.0
1134,-0.051152468,2.1117935,-1.7714767,-1.0333375,0.43011475,1.9795898,95.0
1135,-0.051152468,2.1117935,-1.7714767,-1.0131592,0.27399904,2.5456421,95.0
1136,0.11962485,1.5028,-1.6068535,-1.0131592,0.27399904,2.5456421,95.0
1137,0.11962485,1.5028,-1.6068535,-0.7168579,0.14868164,2.9173462,95.0
1138,0.16139817,0.82870483,-1.1956635,-0.7168579,0.14868164,2.9173462,95.0
1139,0.16139817,0.82870483,-1.1956635,-0.4970215,0.040356446,3.2019653,95.0
1140,-0.085249186,0.31097412,-0.9793091,-0.4970215,0.040356446,3.2019653,95.0
1141,-0.085249186,0.31097412,-0.9793091,-0.4088745,-0.007434082,3.4334838,95.0
1142,-0.69814324,-0.13175964,-0.9324837,-0.4088745,-0.007434082,3.4334838,95.0
1143,-0.69814324,-0.13175964,-0.9324837,-0.13168946,0.019116212,3.526941,95.0
1144,-1.4666934,-0.42893982,-0.7924347,-0.13168946,0.019116212,3.526941,95.0
1145,-1.4666934,-0.42893982,-0.7924347,0.3440918,0.014868164,3.541809,95.0
1146,-2.0824122,-0.32600403,-0.61079025,0.3440918,0.014868164,3.541809,95.0
1147,-2.0824122,-0.32600403,-0.61079025,0.7306641,0.045666505,3.541809,95.0
1148,-2.519702,0.18737793,-0.5399513,0.7306641,0.045666505,3.541809,95.0
1149,-2.519702,0.18737793,-0.5399513,0.9165161,0.07327881,3.4749024,95.0
1150,-2.8475242,0.73236084,-0.5942917,0.9165161,0.07327881,3.4749024,95.0
1151,-2.8475242,0.73236084,-0.5942917,1.0513916,0.07540283,3.3209107,95.0
1152,-2.9478436,1.0142365,-0.6837082,1.0513916,0.07540283,3.3209107,95.0
1153,-2.9478436,1.0142365,-0.6837082,1.1809571,-0.004248047,3.1308105,95.0
1154,-2.6680284,1.0172958,-0.7050247,1.1809571,-0.004248047,3.1308105,95.0
1155,-2.6680284,1.0172958,-0.7050247,1.2489258,-0.04248047,2.890796,95.0
1156,-2.064147,0.7799835,-0.52558136,1.2489258,-0.04248047,2.890796,95.0
1157,-2.064147,0.7799835,-0.52558136,1.4029175,-0.029736329,2.608301,95.0
1158,-1.2523797,0.4083252,-0.0010566711,1.4029175,-0.029736329,2.608301,95.0
1159,-1.2523797,0.4083252,-0.0010566711,1.6960328,0.093457036,2.3066895,95.0
1160,-0.46924996,0.17475891,0.75687027,1.6960328,0.093457036,2.3066895,95.0
1161,-0.46924996,0.17475891,0.75687027,1.9594116,0.24851075,2.0401247,95.0
1162,-0.06160593,0.36930847,1.3682137,1.9594116,0.24851075,2.0401247,95.0
1163,-0.06160593,0.36930847,1.3682137,2.0475585,0.36851808,1.7034668,95.0
1164,-0.052055836,0.98246,1.5098915,2.0475585,0.36851808,1.7034668,95.0
1165,-0.052055836,0.98246,1.5098915,1.8702027,0.3334717,1.1937011,95.0
1166,-0.052055836,0.98246,1.5098915,1.5261109,0.21134034,0.632959,95.0
1167,5.18322E-4,1.5321198,1.2438126,1.5261109,0.21134034,0.632959,95.0
1168,5.18322E-4,1.5321198,1.2438126,1.5261109,0.21134034,0.632959,96.0
1169,1.16925,1.4423294,1.3447456,1.5261109,0.21134034,0.632959,96.0
1170,1.16925,1.4423294,1.3447456,1.0227174,0.12213135,0.10407715,96.0
1171,1.16925,1.4423294,1.3447456,0.3440918,0.12213135,-0.4067505,96.0
1172,1.16925,1.4423294,1.3447456,-0.3419678,0.022302246,-0.97067875,96.0
1173,1.7184689,0.6070633,0.98404694,-0.3419678,0.022302246,-0.97067875,96.0
1174,1.7184689,0.6070633,0.98404694,-0.90908206,-0.22408448,-1.632312,96.0
1175,2.4096751,-0.39644623,0.50424194,-0.90908206,-0.22408448,-1.632312,96.0
1176,2.4096751,-0.39644623,0.50424194,-1.1299804,-0.32497558,-2.1877441,96.0
1177,2.0658627,-1.3402023,0.43211746,-1.1299804,-0.32497558,-2.1877441,96.0
1178,2.0658627,-1.3402023,0.43211746,-0.9802368,-0.44710693,-2.532898,96.0
1179,0.7841233,-1.7429886,0.6765404,-0.9802368,-0.44710693,-2.532898,96.0
1180,0.7841233,-1.7429886,0.6765404,-0.9324463,-0.45560303,-2.6614015,96.0
1181,-0.21371698,-1.5565109,0.72924423,-0.9324463,-0.45560303,-2.6614015,96.0
1182,-0.21371698,-1.5565109,0.72924423,-0.8517334,-0.47684327,-2.6444092,96.0
1183,-0.35582465,-1.1498489,0.3718605,-0.8517334,-0.47684327,-2.6444092,96.0
1184,-0.35582465,-1.1498489,0.3718605,-0.54587406,-0.540564,-2.5732543,96.0
1185,-0.10184723,-0.72307587,-0.16573334,-0.54587406,-0.540564,-2.5732543,96.0
1186,-0.10184723,-0.72307587,-0.16573334,-0.19222413,-0.59260255,-2.4776733,96.0
1187,-0.06928295,-0.25028992,-0.5730057,-0.19222413,-0.59260255,-2.4776733,96.0
1188,-0.06928295,-0.25028992,-0.5730057,-0.13487549,-0.58304447,-2.3682861,96.0
1189,-0.26288486,0.15239716,-0.806633,-0.13487549,-0.58304447,-2.3682861,96.0
1190,-0.26288486,0.15239716,-0.806633,-0.35683593,-0.51932377,-2.2323487,96.0
1191,-0.42767853,0.3182907,-0.9769211,-0.35683593,-0.51932377,-2.2323487,96.0
1192,-0.42767853,0.3182907,-0.9769211,-0.69136965,-0.43117675,-2.079419,96.0
1193,-0.4974407,0.2718811,-1.1180496,-0.69136965,-0.43117675,-2.079419,96.0
1194,-0.4974407,0.2718811,-1.1180496,-1.0375855,-0.3451538,-1.9445435,96.0
1195,-0.53092384,0.14559174,-1.1257858,-1.0375855,-0.3451538,-1.9445435,96.0
1196,-0.53092384,0.14559174,-1.1257858,-1.3222046,-0.271875,-1.8319702,96.0
1197,-0.59174347,0.031173706,-0.93390656,-1.3222046,-0.271875,-1.8319702,96.0
1198,-0.59174347,0.031173706,-0.93390656,-1.540979,-0.1985962,-1.7406372,96.0
1199,-0.70181274,-0.041397095,-0.69309616,-1.540979,-0.1985962,-1.7406372,96.0
1200,-0.70181274,-0.041397095,-0.69309616,-1.716211,-0.18691407,-1.6864747,96.0
1201,-0.75186765,-0.1295166,-0.56895447,-1.716211,-0.18691407,-1.6864747,96.0
1202,-0.75186765,-0.1295166,-0.56895447,-1.7565674,-0.25700685,-1.6620483,96.0
1203,-0.60573006,-0.33494568,-0.38710785,-1.7565674,-0.25700685,-1.6620483,96.0
1204,-0.60573006,-0.33494568,-0.38710785,-1.5813354,-0.36427003,-1.6747925,96.0
1205,-0.23888087,-0.6870346,0.15179062,-1.5813354,-0.36427003,-1.6747925,96.0
1206,-0.23888087,-0.6870346,0.15179062,-1.1480347,-0.42055663,-1.6939087,96.0
1207,0.194906,-1.0524597,0.9192581,-1.1480347,-0.42055663,-1.6939087,96.0
1208,0.194906,-1.0524597,0.9192581,-0.58623046,-0.4694092,-1.7236451,96.0
1209,0.54282665,-1.2054443,1.4094276,-0.58623046,-0.4694092,-1.7236451,96.0
1210,0.54282665,-1.2054443,1.4094276,-0.09133301,-0.51082766,-1.7916138,96.0
1211,0.70118034,-1.1789169,1.48069,-0.09133301,-0.51082766,-1.7916138,96.0
1212,0.70118034,-1.1789169,1.48069,0.34727785,-0.5320679,-1.8553345,96.0
1213,0.68471146,-1.1933289,1.4242973,0.34727785,-0.5320679,-1.8553345,96.0
1214,0.68471146,-1.1933289,1.4242973,0.7880127,-0.54693604,-1.8362182,96.0
1215,0.70854795,-1.2679596,1.4579544,0.7880127,-0.54693604,-1.8362182,96.0
1216,0.70854795,-1.2679596,1.4579544,1.1852051,-0.5341919,-1.7034668,96.0
1217,0.8796191,-1.2544098,1.5238457,1.1852051,-0.5341919,-1.7034668,96.0
1218,0.8796191,-1.2544098,1.5238457,1.4602661,-0.4439209,-1.4326538,96.0
1219,1.0026699,-1.0924225,1.5383644,1.4602661,-0.4439209,-1.4326538,96.0
1220,1.0026699,-1.0924225,1.5383644,1.6131958,-0.33878174,-1.0864381,96.0
1221,1.2977659,-0.994751,1.5156517,1.6131958,-0.33878174,-1.0864381,96.0
1222,1.2977659,-0.994751,1.5156517,1.7778076,-0.2548828,-0.727478,96.0
1223,2.1950364,-1.0291977,1.5246658,1.7778076,-0.2548828,-0.727478,96.0
1224,2.1950364,-1.0291977,1.5246658,1.8234742,-0.004248047,-0.22833252,96.0
1225,2.9323354,-0.8429642,1.4771538,1.8234742,-0.004248047,-0.22833252,96.0
1226,2.9323354,-0.8429642,1.4771538,1.3933594,0.3971924,0.452417,96.0
1227,2.4725406,-0.405838,1.107357,1.3933594,0.3971924,0.452417,96.0
1228,2.4725406,-0.405838,1.107357,0.991919,0.63826907,1.0747559,96.0
1229,1.3270559,0.13918304,0.31359482,0.991919,0.63826907,1.0747559,96.0
1230,1.3270559,0.13918304,0.31359482,0.7954468,0.65632325,1.6662964,96.0
1231,0.70910573,0.681015,-0.56186676,0.7954468,0.65632325,1.6662964,96.0
1232,0.70910573,0.681015,-0.56186676,0.64782715,0.68499756,2.2047365,96.0
1233,0.7423823,0.8833771,-1.0057678,0.64782715,0.68499756,2.2047365,96.0
1234,0.7423823,0.8833771,-1.0057678,0.7317261,0.7349121,2.6475952,96.0
1235,0.7391329,0.7112427,-0.93686676,0.7317261,0.7349121,2.6475952,96.0
1236,0.7391329,0.7112427,-0.93686676,0.91014403,0.81031495,2.9449584,96.0
1237,0.36392593,0.4100418,-0.7181206,0.91014403,0.81031495,2.9449584,96.0
1238,0.36392593,0.4100418,-0.7181206,0.9451904,0.90058595,3.1966553,96.0
1239,-0.24463797,0.134758,-0.6392441,0.9451904,0.90058595,3.1966553,96.0
1240,-0.24463797,0.134758,-0.6392441,0.8729736,0.9398804,3.4334838,96.0
1241,-0.8149731,-0.06035614,-0.6930237,0.8729736,0.9398804,3.4334838,96.0
1242,-0.8149731,-0.06035614,-0.6930237,0.8230591,1.0089111,3.617212,96.0
1243,-1.2779429,-0.05886078,-0.7195053,0.8230591,1.0089111,3.617212,96.0
1244,-1.2779429,-0.05886078,-0.7195053,0.72960204,1.0779419,3.7393434,96.0
1245,-1.6998568,0.16488647,-0.69976044,0.72960204,1.0779419,3.7393434,96.0
1246,-1.6998568,0.16488647,-0.69976044,0.62977296,1.1342286,3.79032,96.0
1247,-2.0581765,0.49140167,-0.7703552,0.62977296,1.1342286,3.79032,96.0
1248,-2.0581765,0.49140167,-0.7703552,0.5033936,1.1480347,3.7595215,96.0
1249,-2.3070147,0.75029755,-0.9716072,0.5033936,1.1480347,3.7595215,96.0
1250,-2.3070147,0.75029755,-0.9716072,0.4715332,1.0747559,3.6639404,96.0
1251,-2.418793,0.8467331,-1.1851082,0.4715332,1.0747559,3.6639404,96.0
1252,-2.418793,0.8467331,-1.1851082,0.58410645,0.9303223,3.5184448,96.0
1253,-2.374866,0.77832794,-1.2400436,0.58410645,0.9303223,3.5184448,96.0
1254,-2.374866,0.77832794,-1.2400436,0.8602295,0.8071289,3.3039186,96.0
1255,-2.196548,0.61492157,-1.0729179,0.8602295,0.8071289,3.3039186,96.0
1256,-2.196548,0.61492157,-1.0729179,1.2882203,0.6786255,3.0352294,96.0
1257,-1.9437864,0.5257263,-0.7644501,1.2882203,0.6786255,3.0352294,96.0
1258,-1.9437864,0.5257263,-0.7644501,1.6694825,0.61915284,2.7697265,96.0
1259,-1.9437864,0.5257263,-0.7644501,1.6694825,0.61915284,2.7697265,96.0
1260,-1.747412,0.69223785,-0.46783447,1.6694825,0.61915284,2.7697265,96.0
1261,-1.747412,0.69223785,-0.46783447,1.8840088,0.57454836,2.443689,96.0
1262,-1.7015674,1.1304016,-0.2555046,1.8840088,0.57454836,2.443689,96.0
1263,-1.7015674,1.1304016,-0.2555046,1.902063,0.4991455,2.0241945,96.0
1264,-1.7529776,1.6258545,-0.08821869,1.902063,0.4991455,2.0241945,96.0
1265,-1.7529776,1.6258545,-0.08821869,1.7353271,0.40356445,1.5749635,96.0
1266,-1.6142108,1.8959503,0.10317993,1.7353271,0.40356445,1.5749635,96.0
1267,-1.6142108,1.8959503,0.10317993,1.3689331,0.2527588,1.1342286,96.0
1268,-1.0532949,1.8359604,0.334095,1.3689331,0.2527588,1.1342286,96.0
1269,-1.0532949,1.8359604,0.334095,0.8782837,0.13062744,0.6988037,96.0
1270,-0.40419602,1.57547,0.5733681,0.8782837,0.13062744,0.6988037,96.0
1271,-0.40419602,1.57547,0.5733681,0.3695801,-0.004248047,0.29523927,96.0
1272,-0.16699696,1.2674942,0.7963295,0.3695801,-0.004248047,0.29523927,96.0
1273,-0.16699696,1.2674942,0.7963295,-0.10195313,-0.1529297,-0.09239502,96.0
1274,-0.2033608,0.91049194,0.9411888,-0.10195313,-0.1529297,-0.09239502,96.0
1275,-0.2033608,0.91049194,0.9411888,-0.54693604,-0.37489015,-0.5341919,96.0
1276,0.18132973,0.4514923,0.89069366,-0.54693604,-0.37489015,-0.5341919,96.0
1277,0.18132973,0.4514923,0.89069366,-1.0046631,-0.64570314,-1.0588257,96.0
1278,1.184236,-0.09510803,0.7654228,-1.0046631,-0.64570314,-1.0588257,96.0
1279,1.184236,-0.09510803,0.7654228,-1.4188477,-0.88359374,-1.6206299,96.0
1280,1.8754408,-0.69337463,0.87633896,-1.4188477,-0.88359374,-1.6206299,96.0
1281,1.8754408,-0.69337463,0.87633896,-1.6673584,-0.8793457,-2.0273805,96.0
1282,1.5411854,-1.1704865,1.2410622,-1.6673584,-0.8793457,-2.0273805,96.0
1283,1.5411854,-1.1704865,1.2410622,-1.8372803,-0.8326172,-2.3226197,96.0
1284,0.81573653,-1.4538956,1.4676056,-1.8372803,-0.8326172,-2.3226197,96.0
1285,0.81573653,-1.4538956,1.4676056,-1.808606,-0.8230591,-2.526526,96.0
1286,0.3952284,-1.5453033,1.3046646,-1.808606,-0.8230591,-2.526526,96.0
1287,0.3952284,-1.5453033,1.3046646,-1.4432739,-0.8442993,-2.6210449,96.0
1288,0.14495468,-1.3027496,0.87041473,-1.4432739,-0.8442993,-2.6210449,96.0
1289,0.14495468,-1.3027496,0.87041473,-1.0365235,-0.8973999,-2.6571534,96.0
1290,-0.13788152,-0.81108093,0.40437698,-1.0365235,-0.8973999,-2.6571534,96.0
1291,-0.13788152,-0.81108093,0.40437698,-0.7742066,-0.9398804,-2.6698976,96.0
1292,-0.36490726,-0.4037323,0.06006241,-0.7742066,-0.9398804,-2.6698976,96.0
1293,-0.36490726,-0.4037323,0.06006241,-0.6042847,-0.9281983,-2.624231,96.0
1294,-0.3984444,-0.22092438,-0.1352005,-0.6042847,-0.9281983,-2.624231,96.0
1295,-0.3984444,-0.22092438,-0.1352005,-0.5798584,-0.86766356,-2.52334,96.0
1296,-0.2142024,-0.14431763,-0.23015594,-0.5798584,-0.86766356,-2.52334,96.0
1297,-0.2142024,-0.14431763,-0.23015594,-0.78376466,-0.72854006,-2.445813,96.0
1298,0.0208745,-0.18357086,-0.33285522,-0.78376466,-0.72854006,-2.445813,96.0
1299,0.0208745,-0.18357086,-0.33285522,-1.0237793,-0.5671143,-2.4107666,96.0
1300,0.10000038,-0.30921173,-0.5147095,-1.0237793,-0.5671143,-2.4107666,96.0
1301,0.10000038,-0.30921173,-0.5147095,-1.2053833,-0.42692873,-2.3905885,96.0
1302,0.07965851,-0.40229797,-0.77391434,-1.2053833,-0.42692873,-2.3905885,96.0
1303,0.07965851,-0.40229797,-0.77391434,-1.3806152,-0.32922363,-2.4182007,96.0
1304,0.26627827,-0.47647858,-0.99651337,-1.3806152,-0.32922363,-2.4182007,96.0
1305,0.26627827,-0.47647858,-0.99651337,-1.5176147,-0.26656494,-2.4861696,96.0
1306,0.7289529,-0.6273422,-1.0184021,-1.5176147,-0.26656494,-2.4861696,96.0
1307,0.7289529,-0.6273422,-1.0184021,-1.6100098,-0.21240234,-2.5690064,96.0
1308,1.1981525,-0.8381653,-0.8122673,-1.6100098,-0.21240234,-2.5690064,96.0
1309,1.1981525,-0.8381653,-0.8122673,-1.6641724,-0.17523193,-2.631665,96.0
1310,1.4890518,-1.0131989,-0.5120964,-1.6641724,-0.17523193,-2.631665,96.0
1311,1.4890518,-1.0131989,-0.5120964,-1.6896607,-0.12000733,-2.6614015,96.0
1312,1.5634949,-1.0623779,-0.26321793,-1.6896607,-0.12000733,-2.6614015,96.0
1313,1.5634949,-1.0623779,-0.26321793,-1.6843506,-0.038232423,-2.6454713,96.0
1314,1.4008691,-0.96009827,-0.10770798,-1.6843506,-0.038232423,-2.6454713,96.0
1315,1.4008691,-0.96009827,-0.10770798,-1.6376221,-0.021240234,-2.5849366,96.0
1316,1.14113,-0.82325745,0.032863617,-1.6376221,-0.021240234,-2.5849366,96.0
1317,1.14113,-0.82325745,0.032863617,-1.4719483,-0.02442627,-2.4957275,96.0
1318,1.0174451,-0.85453033,0.30591583,-1.4719483,-0.02442627,-2.4957275,96.0
1319,1.0174451,-0.85453033,0.30591583,-1.0545777,-0.045666505,-2.3587282,96.0
1320,0.93351173,-1.0274734,0.6958313,-1.0545777,-0.045666505,-2.3587282,96.0
1321,0.93351173,-1.0274734,0.6958313,-0.47365722,-0.07965088,-2.1006591,96.0
1322,0.7972366,-1.1093292,0.9528694,-0.47365722,-0.07965088,-2.1006591,96.0
1323,0.7972366,-1.1093292,0.9528694,0.090270996,-0.1274414,-1.7555054,96.0
1324,1.0529261,-1.1602402,1.018425,0.090270996,-0.1274414,-1.7555054,96.0
1325,1.0529261,-1.1602402,1.018425,0.72854006,-0.14018555,-1.3784913,96.0
1326,1.9466377,-1.261795,1.1018372,0.72854006,-0.14018555,-1.3784913,96.0
1327,1.9466377,-1.261795,1.1018372,1.2160034,0.039294433,-0.811377,96.0
1328,2.4220808,-0.94335175,1.1001472,1.2160034,0.039294433,-0.811377,96.0
1329,2.4220808,-0.94335175,1.1001472,1.0014771,0.2527588,-0.06584473,96.0
1330,1.7362242,-0.054153442,0.70145416,1.0014771,0.2527588,-0.06584473,96.0
1331,1.7362242,-0.054153442,0.70145416,0.35471192,0.45347902,0.6064087,96.0
1332,0.7892113,0.92004395,-0.037895203,0.35471192,0.45347902,0.6064087,96.0
1333,0.7892113,0.92004395,-0.037895203,-0.04885254,0.46516114,1.1480347,96.0
1334,0.54427195,1.5656357,-0.76585007,-0.04885254,0.46516114,1.1480347,96.0
1335,0.54427195,1.5656357,-0.76585007,-0.16461182,0.4715332,1.7236451,96.0
1336,0.6677053,1.6734695,-1.2114334,-0.16461182,0.4715332,1.7236451,96.0
1337,0.6677053,1.6734695,-1.2114334,-0.03186035,0.43011475,2.2865112,96.0
1338,0.48489666,1.3712692,-1.3554993,-0.03186035,0.43011475,2.2865112,96.0
1339,0.48489666,1.3712692,-1.3554993,0.1731079,0.3812622,2.707068,96.0
1340,0.099160194,0.91433716,-1.3059578,0.1731079,0.3812622,2.707068,96.0
1341,0.099160194,0.91433716,-1.3059578,0.4056885,0.36533204,3.0543458,96.0
1342,-0.15621877,0.42856598,-1.1282501,0.4056885,0.36533204,3.0543458,96.0
1343,-0.15621877,0.42856598,-1.1282501,0.6860596,0.3802002,3.4058716,96.0
1344,-0.37679386,0.11327362,-0.9003792,0.6860596,0.3802002,3.4058716,96.0
1345,-0.37679386,0.11327362,-0.9003792,0.9165161,0.39294434,3.720227,96.0
1346,-0.82238245,0.103752136,-0.6790085,0.9165161,0.39294434,3.720227,96.0
1347,-0.82238245,0.103752136,-0.6790085,1.0598878,0.43861085,3.902893,96.0
1348,-1.511617,0.3096466,-0.44692993,1.0598878,0.43861085,3.902893,96.0
1349,-1.511617,0.3096466,-0.44692993,1.1480347,0.45666504,3.972986,96.0
1350,-2.1516032,0.5219879,-0.24719238,1.1480347,0.45666504,3.972986,96.0
1351,-2.1516032,0.5219879,-0.24719238,1.264856,0.46409914,3.9315674,96.0
1352,-2.1516032,0.5219879,-0.24719238,1.264856,0.46409914,3.9315674,96.0
1353,-2.4617734,0.658226,-0.18778229,1.264856,0.46409914,3.9315674,96.0
1354,-2.4617734,0.658226,-0.18778229,1.3614991,0.45135498,3.7892578,96.0
1355,-2.5355198,0.69662476,-0.31121445,1.3614991,0.45135498,3.7892578,96.0
1356,-2.5355198,0.69662476,-0.31121445,1.4677002,0.44816896,3.5460572,96.0
1357,-2.6141458,0.6539688,-0.5186119,1.4677002,0.44816896,3.5460572,96.0
1358,-2.6141458,0.6539688,-0.5186119,1.5972656,0.41843262,3.26781,96.0
1359,-2.6414876,0.621048,-0.6142807,1.5972656,0.41843262,3.26781,96.0
1360,-2.6414876,0.621048,-0.6142807,1.7098389,0.4088745,2.9460206,96.0
1361,-2.3790836,0.67617035,-0.5293884,1.7098389,0.4088745,2.9460206,96.0
1362,-2.3790836,0.67617035,-0.5293884,1.7045288,0.42268068,2.5679443,96.0
1363,-1.8613236,0.8056946,-0.3511963,1.7045288,0.42268068,2.5679443,96.0
1364,-1.8613236,0.8056946,-0.3511963,1.5866455,0.4619751,2.1548219,96.0
1365,-1.3243127,0.9733429,-0.12533188,1.5866455,0.4619751,2.1548219,96.0
1366,-1.3243127,0.9733429,-0.12533188,1.3944215,0.5065796,1.719397,96.0
1367,-0.8989644,1.1314926,0.07530975,1.3944215,0.5065796,1.719397,96.0
1368,-0.8989644,1.1314926,0.07530975,1.0959961,0.50233155,1.3083985,96.0
1369,-0.49762607,1.1795578,0.2200737,1.0959961,0.50233155,1.3083985,96.0
1370,-0.49762607,1.1795578,0.2200737,0.75296634,0.4343628,0.904834,96.0
1371,-0.039324045,1.0681915,0.32382584,0.75296634,0.4343628,0.904834,96.0
1372,-0.039324045,1.0681915,0.32382584,0.47684327,0.3345337,0.52038574,96.0
1373,0.25106025,0.9200592,0.4388199,0.47684327,0.3345337,0.52038574,96.0
1374,0.25106025,0.9200592,0.4388199,0.20603028,0.1985962,0.16992188,96.0
1375,0.21843863,0.78009033,0.58367157,0.20603028,0.1985962,0.16992188,96.0
1376,0.21843863,0.78009033,0.58367157,-0.107263185,0.053100586,-0.20178223,96.0
1377,0.21454573,0.51763916,0.7636795,-0.107263185,0.053100586,-0.20178223,96.0
1378,0.21454573,0.51763916,0.7636795,-0.4248047,-0.121069334,-0.63720703,96.0
1379,0.7442317,0.093551636,0.7861252,-0.4248047,-0.121069334,-0.63720703,96.0
1380,0.7442317,0.093551636,0.7861252,-0.79332274,-0.3706421,-1.179895,96.0
1381,1.5391598,-0.40986633,0.5783005,-0.79332274,-0.3706421,-1.179895,96.0
1382,1.5391598,-0.40986633,0.5783005,-1.174585,-0.5703003,-1.6939087,96.0
1383,1.6116501,-0.86808014,0.48392868,-1.174585,-0.5703003,-1.6939087,96.0
1384,1.6116501,-0.86808014,0.48392868,-1.4262818,-0.71367186,-2.0199463,96.0
1385,0.8929212,-1.1214218,0.6776085,-1.4262818,-0.71367186,-2.0199463,96.0
1386,0.8929212,-1.1214218,0.6776085,-1.628064,-0.79969484,-2.2206666,96.0
1387,0.22726417,-1.2064056,0.9280243,-1.628064,-0.79969484,-2.2206666,96.0
1388,0.22726417,-1.2064056,0.9280243,-1.4889405,-0.88040775,-2.3247437,96.0
1389,-0.07580578,-1.2051773,0.9900398,-1.4889405,-0.88040775,-2.3247437,96.0
1390,-0.07580578,-1.2051773,0.9900398,-0.99085695,-0.9526245,-2.348108,96.0
1391,-0.28604746,-1.0246506,0.83664703,-0.99085695,-0.9526245,-2.348108,96.0
1392,-0.28604746,-1.0246506,0.83664703,-0.48215333,-1.0110352,-2.3194337,96.0
1393,-0.5675343,-0.71965027,0.59703827,-0.48215333,-1.0110352,-2.3194337,96.0
1394,-0.5675343,-0.71965027,0.59703827,-0.16779785,-1.0046631,-2.2355347,96.0
1395,-0.81046057,-0.46520233,0.3547554,-0.16779785,-1.0046631,-2.2355347,96.0
1396,-0.81046057,-0.46520233,0.3547554,0.0063720704,-0.9611206,-2.088977,96.0
1397,-0.855705,-0.2782898,0.11302948,0.0063720704,-0.9611206,-2.088977,96.0
1398,-0.855705,-0.2782898,0.11302948,0.039294433,-0.89102787,-1.9148072,96.0
1399,-0.7428527,-0.06681061,-0.17495728,0.039294433,-0.89102787,-1.9148072,96.0
1400,-0.7428527,-0.06681061,-0.17495728,-0.12319336,-0.7986328,-1.7841797,96.0
1401,-0.60988283,0.14253235,-0.46334457,-0.12319336,-0.7986328,-1.7841797,96.0
1402,-0.60988283,0.14253235,-0.46334457,-0.41949463,-0.70942384,-1.7236451,96.0
1403,-0.5035801,0.22721863,-0.6528282,-0.41949463,-0.70942384,-1.7236451,96.0
1404,-0.5035801,0.22721863,-0.6528282,-0.7625244,-0.59897465,-1.7310791,96.0
1405,-0.3341508,0.08048248,-0.643795,-0.7625244,-0.59897465,-1.7310791,96.0
1406,-0.3341508,0.08048248,-0.643795,-1.0375855,-0.47896728,-1.7714356,96.0
1407,-0.071373224,-0.2340622,-0.44867706,-1.0375855,-0.47896728,-1.7714356,96.0
1408,-0.071373224,-0.2340622,-0.44867706,-1.2478638,-0.3440918,-1.806482,96.0
1409,0.2035582,-0.5369568,-0.25409698,-1.2478638,-0.3440918,-1.806482,96.0
1410,0.2035582,-0.5369568,-0.25409698,-1.4528321,-0.22089843,-1.8447144,96.0
1411,0.45610833,-0.71949005,-0.21603394,-1.4528321,-0.22089843,-1.8447144,96.0
1412,0.45610833,-0.71949005,-0.21603394,-1.628064,-0.12000733,-1.903125,96.0
1413,0.7722354,-0.84046936,-0.25687408,-1.628064,-0.12000733,-1.903125,96.0
1414,0.7722354,-0.84046936,-0.25687408,-1.6992188,-0.0361084,-1.9487915,96.0
1415,1.1444364,-0.91402435,-0.22907257,-1.6992188,-0.0361084,-1.9487915,96.0
1416,1.1444364,-0.91402435,-0.22907257,-1.7151489,0.035046387,-1.9434814,96.0
1417,1.3377904,-0.8909149,-0.11787796,-1.7151489,0.035046387,-1.9434814,96.0
1418,1.3377904,-0.8909149,-0.11787796,-1.6896607,0.06265869,-1.8786987,96.0
1419,1.2025932,-0.8391571,0.037094116,-1.6896607,0.06265869,-1.8786987,96.0
1420,1.2025932,-0.8391571,0.037094116,-1.4761963,0.013806152,-1.7778076,96.0
1421,0.9370136,-0.9422455,0.27544022,-1.4761963,0.013806152,-1.7778076,96.0
1422,0.9370136,-0.9422455,0.27544022,-0.94731444,-0.07327881,-1.6121339,96.0
1423,0.8095963,-1.1674347,0.61973953,-0.94731444,-0.07327881,-1.6121339,96.0
1424,0.8095963,-1.1674347,0.61973953,-0.19222413,-0.18479005,-1.3423828,96.0
1425,0.8194544,-1.3289032,0.9763336,-0.19222413,-0.18479005,-1.3423828,96.0
1426,0.8194544,-1.3289032,0.9763336,0.58623046,-0.24001466,-0.99510497,96.0
1427,1.0646089,-1.3923798,1.2425766,0.58623046,-0.24001466,-0.99510497,96.0
1428,1.0646089,-1.3923798,1.2425766,1.3338867,-0.27506104,-0.63933104,96.0
1429,1.8654444,-1.3226471,1.3945351,1.3338867,-0.27506104,-0.63933104,96.0
1430,1.8654444,-1.3226471,1.3945351,1.8638306,-0.14761963,-0.22408448,96.0
1431,2.5882053,-0.8537369,1.4044342,1.8638306,-0.14761963,-0.22408448,96.0
1432,2.5882053,-0.8537369,1.4044342,1.6949707,0.21452637,0.36427003,96.0
1433,2.2972732,-0.030937195,1.1461296,1.6949707,0.21452637,0.36427003,96.0
1434,2.2972732,-0.030937195,1.1461296,1.1597168,0.45772704,0.8708496,96.0
1435,1.4879651,0.7987747,0.4485817,1.1597168,0.45772704,0.8708496,96.0
1436,1.4879651,0.7987747,0.4485817,0.721106,0.56392825,1.2977784,96.0
1437,1.1103184,1.3309479,-0.39092636,0.721106,0.56392825,1.2977784,96.0
1438,1.1103184,1.3309479,-0.39092636,0.48427734,0.69136965,1.7321411,96.0
1439,0.9914286,1.3595428,-0.91810226,0.48427734,0.69136965,1.7321411,96.0
1440,0.9914286,1.3595428,-0.91810226,0.39613038,0.7625244,2.1325195,96.0
1441,0.5191438,0.9736786,-1.1269875,0.39613038,0.7625244,2.1325195,96.0
1442,0.5191438,0.9736786,-1.1269875,0.4364868,0.7827026,2.4065187,96.0
1443,-0.127666,0.44698334,-1.1907272,0.4364868,0.7827026,2.4065187,96.0
1444,-0.127666,0.44698334,-1.1907272,0.4970215,0.79226077,2.6454713,96.0
1445,-0.53201556,0.06757355,-1.1931458,0.4970215,0.79226077,2.6454713,96.0
1446,-0.53201556,0.06757355,-1.1931458,0.5140137,0.7986328,2.8472536,96.0
1447,-0.7698386,-0.032073975,-1.133461,0.5140137,0.7986328,2.8472536,96.0
1448,-0.7698386,-0.032073975,-1.133461,0.52888185,0.84323734,2.9906251,96.0
1449,-1.161281,0.1254654,-1.003727,0.52888185,0.84323734,2.9906251,96.0
1450,-1.161281,0.1254654,-1.003727,0.5150757,0.86553955,3.1085083,96.0
1451,-1.7437831,0.42227173,-0.9076576,0.5150757,0.86553955,3.1085083,96.0
1452,-1.7437831,0.42227173,-0.9076576,0.5299439,0.8379273,3.1764772,96.0
1453,-2.297419,0.6999512,-0.92866516,0.5299439,0.8379273,3.1764772,96.0
1454,-2.297419,0.6999512,-0.92866516,0.60959476,0.7412842,3.2062135,96.0
1455,-2.5917318,0.8854141,-1.0171623,0.60959476,0.7412842,3.2062135,96.0
1456,-2.5917318,0.8854141,-1.0171623,0.724292,0.6223389,3.163733,96.0
1457,-2.5917318,0.8854141,-1.0171623,0.724292,0.6223389,3.163733,97.0
1458,-2.6177335,0.9578705,-1.0788803,0.724292,0.6223389,3.163733,97.0
1459,-2.6177335,0.9578705,-1.0788803,0.77102053,0.48215333,3.0617797,97.0
1460,-2.4811988,0.84173584,-1.0187683,0.77102053,0.48215333,3.0617797,97.0
1461,-2.4811988,0.84173584,-1.0187683,0.99298096,0.32603762,2.899292,97.0
1462,-2.1254375,0.59846497,-0.7957039,0.99298096,0.32603762,2.899292,97.0
1463,-2.1254375,0.59846497,-0.7957039,1.3030884,0.21877442,2.6720216,97.0
1464,-1.5613852,0.44633484,-0.4789467,1.3030884,0.21877442,2.6720216,97.0
1465,-1.5613852,0.44633484,-0.4789467,1.5983276,0.14124756,2.3714721,97.0
1466,-1.0351555,0.4938507,-0.16189194,1.5983276,0.14124756,2.3714721,97.0
1467,-1.0351555,0.4938507,-0.16189194,1.8022339,0.09239502,2.005078,97.0
1468,-0.83780456,0.69563293,0.08542633,1.8022339,0.09239502,2.005078,97.0
1469,-0.83780456,0.69563293,0.08542633,1.8425903,0.09133301,1.6747925,97.0
1470,-0.9116497,0.95202637,0.25304413,1.8425903,0.09133301,1.6747925,97.0
1471,-0.9116497,0.95202637,0.25304413,1.630188,0.07540283,1.3753052,97.0
1472,-0.7709334,1.161766,0.3915596,1.630188,0.07540283,1.3753052,97.0
1473,-0.7709334,1.161766,0.3915596,1.2276856,0.04141846,1.0768799,97.0
1474,-0.21450067,1.2573471,0.55724335,1.2276856,0.04141846,1.0768799,97.0
1475,-0.21450067,1.2573471,0.55724335,0.74022216,0.019116212,0.81881106,97.0
1476,0.20405865,1.2652893,0.76348495,0.74022216,0.019116212,0.81881106,97.0
1477,0.20405865,1.2652893,0.76348495,0.17735596,-0.009558106,0.5979126,97.0
1478,0.009365082,1.1950684,0.96046066,0.17735596,-0.009558106,0.5979126,97.0
1479,0.009365082,1.1950684,0.96046066,-0.37595215,-0.18054199,0.3525879,97.0
1480,-0.17677307,0.9827423,1.0032425,-0.37595215,-0.18054199,0.3525879,97.0
1481,-0.17677307,0.9827423,1.0032425,-0.7742066,-0.51082766,-0.10195313,97.0
1482,0.2576537,0.59537506,0.9208908,-0.7742066,-0.51082766,-0.10195313,97.0
1483,0.2576537,0.59537506,0.9208908,-1.0290893,-0.78376466,-0.6754395,97.0
1484,0.7446971,0.0467453,1.0107994,-1.0290893,-0.78376466,-0.6754395,97.0
1485,0.7446971,0.0467453,1.0107994,-1.1947632,-0.95581055,-1.1883911,97.0
1486,0.6710508,-0.52165985,1.3149033,-1.1947632,-0.95581055,-1.1883911,97.0
1487,0.6710508,-0.52165985,1.3149033,-1.4273437,-1.0418335,-1.5675293,97.0
1488,0.30565166,-0.9374542,1.4968796,-1.4273437,-1.0418335,-1.5675293,97.0
1489,0.30565166,-0.9374542,1.4968796,-1.540979,-1.0821899,-1.8011719,97.0
1490,0.060866594,-1.0918732,1.4290466,-1.540979,-1.0821899,-1.8011719,97.0
1491,0.060866594,-1.0918732,1.4290466,-1.4156617,-1.1437867,-1.9328613,97.0
1492,-0.17500067,-1.0493622,1.299305,-1.4156617,-1.1437867,-1.9328613,97.0
1493,-0.17500067,-1.0493622,1.299305,-1.0959961,-1.2202514,-1.9997681,97.0
1494,-0.5666728,-1.0224991,1.2276878,-1.0959961,-1.2202514,-1.9997681,97.0
1495,-0.5666728,-1.0224991,1.2276878,-0.5586182,-1.2818482,-2.0114503,97.0
1496,-0.9680476,-1.0571823,1.1452484,-0.5586182,-1.2818482,-2.0114503,97.0
1497,-0.9680476,-1.0571823,1.1452484,0.004248047,-1.2627319,-1.9148072,97.0
1498,-1.1975949,-0.9515686,0.8741226,0.004248047,-1.2627319,-1.9148072,97.0
1499,-1.1975949,-0.9515686,0.8741226,0.3727661,-1.1554688,-1.7703736,97.0
1500,-1.2820628,-0.6118393,0.35837936,0.3727661,-1.1554688,-1.7703736,97.0
1501,-1.2820628,-0.6118393,0.35837936,0.46622315,-0.994043,-1.6705445,97.0
1502,-1.2955599,-0.16027069,-0.26509094,0.46622315,-0.994043,-1.6705445,97.0
1503,-1.2955599,-0.16027069,-0.26509094,0.19434814,-0.79226077,-1.6439942,97.0
1504,-1.0761209,-0.032585144,-0.4796524,0.19434814,-0.79226077,-1.6439942,97.0
1505,-1.0761209,-0.032585144,-0.4796524,-0.045666505,-0.68924564,-1.6546143,97.0
1506,-0.6993122,0.1191864,-0.9190483,-0.045666505,-0.68924564,-1.6546143,97.0
1507,-0.6993122,0.1191864,-0.9190483,-0.7582764,-0.4067505,-1.811792,97.0
1508,-0.12534332,-0.11090088,-0.7714081,-0.7582764,-0.4067505,-1.811792,97.0
1509,-0.12534332,-0.11090088,-0.7714081,-0.8814697,-0.31860352,-1.903125,97.0
1510,1.4823179,-1.1462021,-0.06665039,-0.8814697,-0.31860352,-1.903125,97.0
1511,1.4823179,-1.1462021,-0.06665039,-0.86766356,-0.047790527,-2.1580079,97.0
1512,1.9604759,-1.3821487,0.14941406,-0.86766356,-0.047790527,-2.1580079,97.0
1513,1.9604759,-1.3821487,0.14941406,-0.84323734,0.06796875,-2.2057984,97.0
1514,2.7634125,-1.7122726,0.5599365,-0.84323734,0.06796875,-2.2057984,97.0
1515,2.7634125,-1.7122726,0.5599365,-1.3137085,0.4248047,-2.1526978,97.0
1516,2.4224854,-1.2574387,0.27106857,-1.3137085,0.4248047,-2.1526978,97.0
1517,2.4224854,-1.2574387,0.27106857,-1.6418701,0.5161377,-2.0942872,97.0
1518,1.1313355,-0.4076233,-0.2005539,-1.6418701,0.5161377,-2.0942872,97.0
1519,1.1313355,-0.4076233,-0.2005539,-2.5775025,0.6573853,-1.7990478,97.0
1520,0.68233895,-0.05466461,-0.47814178,-2.5775025,0.6573853,-1.7990478,97.0
1521,0.68233895,-0.05466461,-0.47814178,-2.7378662,0.63720703,-1.6673584,97.0
1522,-0.39131165,-0.34313202,-0.226017,-2.7378662,0.63720703,-1.6673584,97.0
1523,-0.39131165,-0.34313202,-0.226017,-2.2057984,0.3355957,-1.2850342,97.0
1524,-0.32955313,-0.4841385,-0.14659882,-2.2057984,0.3355957,-1.2850342,97.0
1525,-0.32955313,-0.4841385,-0.14659882,-1.717273,0.20709229,-1.1597168,97.0
1526,-0.067976,-1.4398346,0.22083282,-1.717273,0.20709229,-1.1597168,97.0
1527,-0.067976,-1.4398346,0.22083282,0.0,-0.046728518,-0.7763306,97.0
1528,0.13108063,-1.4019623,0.19127655,0.0,-0.046728518,-0.7763306,97.0
1529,0.13108063,-1.4019623,0.19127655,0.45454103,-0.078588866,-0.6510132,97.0
1530,0.8196838,-1.1321869,-0.18244171,0.45454103,-0.078588866,-0.6510132,97.0
1531,0.8196838,-1.1321869,-0.18244171,1.1310425,-0.12213135,-0.29311523,97.0
1532,1.2228124,-0.9908829,-0.11144638,1.1310425,-0.12213135,-0.29311523,97.0
1533,1.2228124,-0.9908829,-0.11144638,1.3062744,-0.098767094,-0.1901001,97.0
1534,3.7123075,-0.8849411,0.35171127,1.3062744,-0.098767094,-0.1901001,97.0
1535,3.7123075,-0.8849411,0.35171127,1.4432739,0.32816163,0.25594482,97.0
1536,3.5471654,-0.5989914,0.57822037,1.4432739,0.32816163,0.25594482,97.0
1537,3.5471654,-0.5989914,0.57822037,1.173523,0.51932377,0.46516114,97.0
1538,2.570264,0.2530365,0.5587082,1.173523,0.51932377,0.46516114,97.0
1539,2.570264,0.2530365,0.5587082,0.66588134,0.63720703,0.7476563,97.0
1540,0.9530009,0.90675354,-0.026165009,0.66588134,0.63720703,0.7476563,97.0
1541,0.9530009,0.90675354,-0.026165009,0.4364868,0.61065674,1.0227174,97.0
1542,0.24946123,1.20784,-0.8275986,0.4364868,0.61065674,1.0227174,97.0
1543,0.24946123,1.20784,-0.8275986,0.23789063,0.64570314,1.5282348,97.0
1544,0.0998497,0.99531555,-0.77274704,0.23789063,0.64570314,1.5282348,97.0
1545,0.0998497,0.99531555,-0.77274704,0.2516968,0.6403931,1.6620483,97.0
1546,-0.29260558,0.609787,-0.8340187,0.2516968,0.6403931,1.6620483,97.0
1547,-0.29260558,0.609787,-0.8340187,0.31223145,0.57242435,2.0337524,97.0
1548,-0.5188867,0.45861053,-0.7926407,0.31223145,0.57242435,2.0337524,97.0
1549,-0.5188867,0.45861053,-0.7926407,0.3345337,0.5533081,2.162256,97.0
1550,-0.8264009,0.35300446,-0.98204803,0.3345337,0.5533081,2.162256,97.0
1551,-0.8264009,0.35300446,-0.98204803,0.4056885,0.54693604,2.4118288,97.0
1552,-1.2460084,0.4090271,-1.0490913,0.4056885,0.54693604,2.4118288,97.0
1553,-1.2460084,0.4090271,-1.0490913,0.48533937,0.544812,2.633789,97.0
1554,-2.0590382,0.7180023,-0.9932289,0.48533937,0.544812,2.633789,97.0
1555,-2.0590382,0.7180023,-0.9932289,0.6159668,0.5161377,2.9311523,97.0
1556,-2.1661637,0.85624695,-0.79712296,0.6159668,0.5161377,2.9311523,97.0
1557,-2.1661637,0.85624695,-0.79712296,0.6149048,0.5129517,3.0097413,97.0
1558,-2.40339,1.2295914,-0.67300034,0.6149048,0.5129517,3.0097413,97.0
1559,-2.40339,1.2295914,-0.67300034,0.6149048,0.5129517,3.0097413,98.0
1560,-2.40339,1.2295914,-0.67300034,0.43754885,0.5140137,3.0723999,98.0
1561,-2.4440377,1.4598236,-0.589962,0.43754885,0.5140137,3.0723999,98.0
1562,-2.4440377,1.4598236,-0.589962,0.30161133,0.47365722,3.0139892,98.0
1563,-2.2927058,1.322998,-0.49674988,0.30161133,0.47365722,3.0139892,98.0
1564,-2.2927058,1.322998,-0.49674988,0.40250245,0.44179687,2.8589356,98.0
1565,-2.0195284,0.96647644,-0.35840988,0.40250245,0.44179687,2.8589356,98.0
1566,-2.0195284,0.96647644,-0.35840988,0.6796875,0.36639404,2.6327271,98.0
1567,-1.8188941,0.77201843,-0.24969101,0.6796875,0.36639404,2.6327271,98.0
1568,-1.8188941,0.77201843,-0.24969101,0.9239502,0.31010744,2.3587282,98.0
1569,-1.7053962,0.8164673,-0.16872025,0.9239502,0.31010744,2.3587282,98.0
1570,-1.7053962,0.8164673,-0.16872025,1.084314,0.27293703,2.0411866,98.0
1571,-1.5859113,1.021347,-0.054164886,1.084314,0.27293703,2.0411866,98.0
1572,-1.5859113,1.021347,-0.054164886,1.1363525,0.24638672,1.6599244,98.0
1573,-1.3069859,1.2915497,0.11563873,1.1363525,0.24638672,1.6599244,98.0
1574,-1.3069859,1.2915497,0.11563873,1.0099732,0.23258057,1.2627319,98.0
1575,-0.5945754,1.6593018,0.38688278,1.0099732,0.23258057,1.2627319,98.0
1576,-0.5945754,1.6593018,0.38688278,0.5299439,0.16673584,0.6860596,98.0
1577,-0.22155857,1.4481583,0.4415512,0.5299439,0.16673584,0.6860596,98.0
1578,-0.22155857,1.4481583,0.4415512,0.3345337,0.13275146,0.52038574,98.0
