,accx,accy,accz,gyrox,gyroy,gyroz,heart rate
0,walk,walk,walk,walk,walk,walk,walk
1,9.952429,12.379163,125.66354,0.0,0.0,0.0,0.0
2,9.952429,12.379163,125.66354,-0.38551027,0.12850343,-0.12531738,0.0
3,8.083452,9.926817,100.63621,-0.38551027,0.12850343,-0.12531738,0.0
4,8.083452,9.926817,100.63621,-0.46622315,0.19753419,-0.09239502,0.0
5,6.635256,7.918993,80.651115,-0.46622315,0.19753419,-0.09239502,0.0
6,6.635256,7.918993,80.651115,-0.43861085,0.28568116,-0.09664307,0.0
7,5.4055433,6.298109,64.6308,-0.43861085,0.28568116,-0.09664307,0.0
8,5.4055433,6.298109,64.6308,-0.43117675,0.3791382,-0.15717773,0.0
9,4.336483,5.0159893,51.806107,-0.43117675,0.3791382,-0.15717773,0.0
10,4.336483,5.0159893,51.806107,-0.37595215,0.4991455,-0.1996582,0.0
11,3.4240322,3.9865093,41.567894,-0.37595215,0.4991455,-0.1996582,0.0
12,3.4240322,3.9865093,41.567894,-0.3058594,0.59047854,-0.2347046,0.0
13,3.4240322,3.9865093,41.567894,-0.27718505,0.6860596,-0.2516968,0.0
14,2.66646,3.167674,33.370087,-0.27718505,0.6860596,-0.2516968,0.0
15,2.0453014,2.5527802,26.81041,-0.27718505,0.6860596,-0.2516968,0.0
16,2.0453014,2.5527802,26.81041,-0.32072756,0.7625244,-0.25806886,0.0
17,1.5514641,2.0401974,21.574387,-0.32072756,0.7625244,-0.25806886,0.0
18,1.5514641,2.0401974,21.574387,-0.36533204,0.7975708,-0.29099122,0.0
19,1.2203465,1.5237103,17.432816,-0.36533204,0.7975708,-0.29099122,0.0
20,1.2203465,1.5237103,17.432816,-0.3812622,0.80181885,-0.35471192,0.0
21,1.2203465,1.5237103,17.432816,-0.3802002,0.8241211,-0.39506838,0.0
22,1.0305614,1.0291367,14.115311,-0.3802002,0.8241211,-0.39506838,0.0
23,0.8675642,0.63884926,11.371063,-0.3802002,0.8241211,-0.39506838,0.0
24,0.8675642,0.63884926,11.371063,-0.38232422,0.8517334,-0.40250245,0.0
25,0.8675642,0.63884926,11.371063,-0.38232422,0.8517334,-0.40250245,92.0
26,0.6206875,0.41632843,9.088699,-0.38232422,0.8517334,-0.40250245,92.0
27,0.6206875,0.41632843,9.088699,-0.40993652,0.84323734,-0.40462646,92.0
28,0.28795624,0.28065777,7.271408,-0.40993652,0.84323734,-0.40462646,92.0
29,0.28795624,0.28065777,7.271408,-0.43011475,0.77951664,-0.40144044,92.0
30,0.0163517,0.15809536,5.898361,-0.43011475,0.77951664,-0.40144044,92.0
31,0.0163517,0.15809536,5.898361,-0.4609131,0.65419924,-0.43861085,92.0
32,-0.116910934,0.06364632,4.889847,-0.4609131,0.65419924,-0.43861085,92.0
33,-0.116910934,0.06364632,4.889847,-0.4991455,0.54693604,-0.4078125,92.0
34,-0.14528656,-0.03530121,4.046982,-0.4991455,0.54693604,-0.4078125,92.0
35,-0.14528656,-0.03530121,4.046982,-0.58623046,0.48533937,-0.38551027,92.0
36,-0.09291363,-0.14861488,3.1450653,-0.58623046,0.48533937,-0.38551027,92.0
37,-0.09291363,-0.14861488,3.1450653,-0.6903076,0.49277344,-0.38869628,92.0
38,-0.024990082,-0.21949005,2.24411,-0.6903076,0.49277344,-0.38869628,92.0
39,-0.024990082,-0.21949005,2.24411,-0.7540283,0.47578126,-0.38869628,92.0
40,-0.024990082,-0.21949005,2.24411,-0.77102053,0.452417,-0.2899292,92.0
41,-0.07220173,-0.21333599,1.5587311,-0.77102053,0.452417,-0.2899292,92.0
42,-0.24681187,-0.16175747,1.1077423,-0.77102053,0.452417,-0.2899292,92.0
43,-0.24681187,-0.16175747,1.1077423,-0.73597413,0.3812622,-0.2357666,92.0
44,-0.41218376,-0.14258957,0.8197937,-0.73597413,0.3812622,-0.2357666,92.0
45,-0.41218376,-0.14258957,0.8197937,-0.6467652,0.2899292,-0.18691407,92.0
46,-0.45901966,-0.1617403,0.65463257,-0.6467652,0.2899292,-0.18691407,92.0
47,-0.45901966,-0.1617403,0.65463257,-0.5671143,0.21027832,-0.14018555,92.0
48,-0.42595577,-0.20439243,0.54719543,-0.5671143,0.21027832,-0.14018555,92.0
49,-0.42595577,-0.20439243,0.54719543,-0.5256958,0.1539917,-0.16673584,92.0
50,-0.35006618,-0.2709484,0.47410583,-0.5256958,0.1539917,-0.16673584,92.0
51,-0.35006618,-0.2709484,0.47410583,-0.5076416,0.10089111,-0.2166504,92.0
52,-0.21656418,-0.3382311,0.4232483,-0.5076416,0.10089111,-0.2166504,92.0
53,-0.21656418,-0.3382311,0.4232483,-0.50445557,0.07646485,-0.24638672,92.0
54,-0.125803,-0.3380413,0.3314972,-0.50445557,0.07646485,-0.24638672,92.0
55,-0.125803,-0.3380413,0.3314972,-0.55755615,0.07434082,-0.22196046,92.0
56,-0.15627003,-0.25118256,0.15727234,-0.55755615,0.07434082,-0.22196046,92.0
57,-0.15627003,-0.25118256,0.15727234,-0.64782715,0.058410645,-0.1444336,92.0
58,-0.2486372,-0.19216919,-0.001373291,-0.64782715,0.058410645,-0.1444336,92.0
59,-0.2486372,-0.19216919,-0.001373291,-0.6435791,-0.0021240234,-0.03186035,92.0
60,-0.36519337,-0.15963078,-0.05706787,-0.6435791,-0.0021240234,-0.03186035,92.0
61,-0.36519337,-0.15963078,-0.05706787,-0.5501221,-0.0998291,0.0637207,92.0
62,-0.45751095,-0.09062004,-0.013473511,-0.5501221,-0.0998291,0.0637207,92.0
63,-0.45751095,-0.09062004,-0.013473511,-0.41737062,-0.21346436,0.08814698,92.0
64,-0.45330143,0.007899284,0.03488159,-0.41737062,-0.21346436,0.08814698,92.0
65,-0.45330143,0.007899284,0.03488159,-0.3090454,-0.3069214,0.12850343,92.0
66,-0.45330143,0.007899284,0.03488159,-0.27718505,-0.37595215,0.15823975,92.0
67,-0.3707466,0.14532089,0.038330078,-0.27718505,-0.37595215,0.15823975,92.0
68,-0.26078224,0.26924706,0.045410156,-0.27718505,-0.37595215,0.15823975,92.0
69,-0.26078224,0.26924706,0.045410156,-0.26444092,-0.46409914,0.19753419,92.0
70,-0.1421833,0.2517376,0.111694336,-0.26444092,-0.46409914,0.19753419,92.0
71,-0.1421833,0.2517376,0.111694336,-0.15505372,-0.53525394,0.25700685,92.0
72,-0.067873,0.17160416,0.1612854,-0.15505372,-0.53525394,0.25700685,92.0
73,-0.067873,0.17160416,0.1612854,-0.059472658,-0.55968016,0.22302246,92.0
74,-0.044080734,0.14203167,0.13513184,-0.059472658,-0.55968016,0.22302246,92.0
75,-0.044080734,0.14203167,0.13513184,0.025488282,-0.5607422,0.21240234,92.0
76,0.0022230148,0.18341255,0.10342407,0.025488282,-0.5607422,0.21240234,92.0
77,0.0022230148,0.18341255,0.10342407,0.039294433,-0.57242435,0.2899292,92.0
78,0.0741415,0.18408394,0.12713623,0.039294433,-0.57242435,0.2899292,92.0
79,0.0741415,0.18408394,0.12713623,0.04248047,-0.58198243,0.30373535,92.0
80,0.1874628,0.040528297,0.17906189,0.04248047,-0.58198243,0.30373535,92.0
81,0.1874628,0.040528297,0.17906189,0.083898924,-0.6042847,0.26868898,92.0
82,0.34428215,-0.12050724,0.21998596,0.083898924,-0.6042847,0.26868898,92.0
83,0.34428215,-0.12050724,0.21998596,0.14549561,-0.6053467,0.22408448,92.0
84,0.34428215,-0.12050724,0.21998596,0.1720459,-0.6085327,0.17841797,92.0
85,0.5007553,-0.14271927,0.20448303,0.1720459,-0.6085327,0.17841797,92.0
86,0.6208191,-0.08329201,0.11766052,0.1720459,-0.6085327,0.17841797,92.0
87,0.6208191,-0.08329201,0.11766052,0.23045655,-0.6117188,0.07646485,92.0
88,0.7626829,-0.052900314,-0.104782104,0.23045655,-0.6117188,0.07646485,92.0
89,0.7626829,-0.052900314,-0.104782104,0.271875,-0.64570314,-0.0361084,92.0
90,0.9709625,-0.027172089,-0.5648804,0.271875,-0.64570314,-0.0361084,92.0
91,0.9709625,-0.027172089,-0.5648804,0.2803711,-0.71154785,-0.11257324,92.0
92,1.247839,0.11102581,-1.1997833,0.2803711,-0.71154785,-0.11257324,92.0
93,1.247839,0.11102581,-1.1997833,0.22089843,-0.813501,-0.1709839,92.0
94,1.5370531,0.51642036,-1.8239899,0.22089843,-0.813501,-0.1709839,92.0
95,1.5370531,0.51642036,-1.8239899,0.0,-0.9568726,-0.33984375,92.0
96,1.5781164,1.0182991,-2.3506012,0.0,-0.9568726,-0.33984375,92.0
97,1.5781164,1.0182991,-2.3506012,-0.44498292,-1.1172364,-0.42692873,92.0
98,1.3523245,1.5303621,-2.7908936,-0.44498292,-1.1172364,-0.42692873,92.0
99,1.3523245,1.5303621,-2.7908936,-1.1236085,-1.3455689,-0.7540283,92.0
100,1.1053829,1.9053078,-3.156952,-1.1236085,-1.3455689,-0.7540283,92.0
101,1.1053829,1.9053078,-3.156952,-1.7002808,-1.6195679,-1.1692749,92.0
102,1.0705128,1.811758,-3.3923035,-1.7002808,-1.6195679,-1.1692749,92.0
103,1.0705128,1.811758,-3.3923035,-1.991272,-1.8723267,-1.5462891,92.0
104,1.3285294,1.5430708,-3.4618073,-1.991272,-1.8723267,-1.5462891,92.0
105,1.3285294,1.5430708,-3.4618073,-2.1888063,-1.9583496,-1.7778076,92.0
106,1.4623356,1.6789875,-3.541977,-2.1888063,-1.9583496,-1.7778076,92.0
107,1.4623356,1.6789875,-3.541977,-2.8419435,-2.0656128,-2.061365,92.0
108,1.373579,2.1664085,-3.706314,-2.8419435,-2.0656128,-2.061365,92.0
109,1.373579,2.1664085,-3.706314,-3.5811036,-2.075171,-2.259961,92.0
110,1.3788433,2.3316994,-3.6999054,-3.5811036,-2.075171,-2.259961,92.0
111,1.3788433,2.3316994,-3.6999054,-4.168396,-2.0411866,-2.5116577,92.0
112,1.6271706,1.7758331,-3.4446106,-4.168396,-2.0411866,-2.5116577,92.0
113,1.6271706,1.7758331,-3.4446106,-4.313892,-1.8425903,-2.7569826,92.0
114,1.8736229,1.1692257,-3.240448,-4.313892,-1.8425903,-2.7569826,92.0
115,1.8736229,1.1692257,-3.240448,-4.336194,-1.539917,-3.0723999,92.0
116,1.8736229,1.1692257,-3.240448,-4.336194,-1.539917,-3.0723999,93.0
117,1.7855434,1.141716,-3.2170105,-4.336194,-1.539917,-3.0723999,93.0
118,1.7855434,1.141716,-3.2170105,-4.364868,-1.3455689,-3.342151,93.0
119,1.6037769,1.3593941,-3.0809174,-4.364868,-1.3455689,-3.342151,93.0
120,1.6037769,1.3593941,-3.0809174,-4.5401,-1.1098022,-3.5556152,93.0
121,1.5504284,1.3060703,-2.6310272,-4.5401,-1.1098022,-3.5556152,93.0
122,1.5504284,1.3060703,-2.6310272,-4.489124,-0.98448485,-3.7712038,93.0
123,1.3200169,1.1265106,-1.9767761,-4.489124,-0.98448485,-3.7712038,93.0
124,1.3200169,1.1265106,-1.9767761,-4.336194,-0.9398804,-3.9166992,93.0
125,0.6293907,1.4776249,-1.300293,-4.336194,-0.9398804,-3.9166992,93.0
126,0.6293907,1.4776249,-1.300293,-4.274597,-0.9897949,-3.9336915,93.0
127,-0.27971458,2.389925,-0.51623535,-4.274597,-0.9897949,-3.9336915,93.0
128,-0.27971458,2.389925,-0.51623535,-4.5730224,-1.0981201,-3.821118,93.0
129,-0.9954643,3.1559334,0.42555237,-4.5730224,-1.0981201,-3.821118,93.0
130,-0.9954643,3.1559334,0.42555237,-4.759937,-1.351941,-3.7786376,93.0
131,-1.4029865,3.2622452,1.3723755,-4.759937,-1.351941,-3.7786376,93.0
132,-1.4029865,3.2622452,1.3723755,-4.7408204,-1.6673584,-3.6904907,93.0
133,-1.6307392,2.7849178,2.1925354,-4.7408204,-1.6673584,-3.6904907,93.0
134,-1.6307392,2.7849178,2.1925354,-4.483814,-1.9254273,-3.7382812,93.0
135,-1.7464371,2.167057,2.7281494,-4.483814,-1.9254273,-3.7382812,93.0
136,-1.7464371,2.167057,2.7281494,-4.1036134,-1.9785279,-3.7340333,93.0
137,-1.7677307,1.6603909,3.031601,-4.1036134,-1.9785279,-3.7340333,93.0
138,-1.7677307,1.6603909,3.031601,-3.4950807,-1.9997681,-3.7319093,93.0
139,-1.7317629,1.0128956,3.2031097,-3.4950807,-1.9997681,-3.7319093,93.0
140,-1.7317629,1.0128956,3.2031097,-2.6497192,-1.9700317,-3.715979,93.0
141,-1.745017,0.31468582,2.9685974,-2.6497192,-1.9700317,-3.715979,93.0
142,-1.745017,0.31468582,2.9685974,-1.7831177,-1.8224121,-3.5566773,93.0
143,-1.9515553,0.06919098,2.337082,-1.7831177,-1.8224121,-3.5566773,93.0
144,-1.9515553,0.06919098,2.337082,-1.2892822,-1.539917,-3.3262208,93.0
145,-2.2755995,0.30138397,1.7245331,-1.2892822,-1.539917,-3.3262208,93.0
146,-2.2755995,0.30138397,1.7245331,-1.1331666,-1.3137085,-3.0044312,93.0
147,-2.4111414,0.7004204,1.5045776,-1.1331666,-1.3137085,-3.0044312,93.0
148,-2.4111414,0.7004204,1.5045776,-1.2552979,-1.0343994,-2.4819214,93.0
149,-2.3366528,0.94586945,1.7473602,-1.2552979,-1.0343994,-2.4819214,93.0
150,-2.3366528,0.94586945,1.7473602,-1.5792115,-0.85385746,-1.9381714,93.0
151,-2.2723494,0.92199135,2.1672668,-1.5792115,-0.85385746,-1.9381714,93.0
152,-2.2723494,0.92199135,2.1672668,-2.1197755,-0.7147339,-1.2627319,93.0
153,-2.3112268,0.501997,2.3919678,-2.1197755,-0.7147339,-1.2627319,93.0
154,-2.3112268,0.501997,2.3919678,-2.4914796,-0.63933104,-0.7168579,93.0
155,-2.286542,-0.21971512,2.2999878,-2.4914796,-0.63933104,-0.7168579,93.0
156,-2.286542,-0.21971512,2.2999878,-2.5307739,-0.59472656,-0.2527588,93.0
157,-2.1225805,-0.8584633,2.0911407,-2.5307739,-0.59472656,-0.2527588,93.0
158,-2.1225805,-0.8584633,2.0911407,-2.347046,-0.5883545,0.12531738,93.0
159,-1.9632378,-1.2155075,1.9057617,-2.347046,-0.5883545,0.12531738,93.0
160,-1.9632378,-1.2155075,1.9057617,-1.8914429,-0.61702883,0.36639404,93.0
161,-1.7293062,-1.2749443,1.7021942,-1.8914429,-0.61702883,0.36639404,93.0
162,-1.7293062,-1.2749443,1.7021942,-1.270166,-0.65207523,0.5161377,93.0
163,-1.2311497,-1.1606407,1.4880829,-1.270166,-0.65207523,0.5161377,93.0
164,-1.2311497,-1.1606407,1.4880829,-0.5713623,-0.6616333,0.6117188,93.0
165,-0.51372814,-0.9714699,1.3734436,-0.5713623,-0.6616333,0.6117188,93.0
166,-0.51372814,-0.9714699,1.3734436,0.15611573,-0.6180908,0.67225343,93.0
167,0.026004791,-0.6843529,1.3313904,0.15611573,-0.6180908,0.67225343,93.0
168,0.026004791,-0.6843529,1.3313904,0.811377,-0.452417,0.7943848,93.0
169,-0.012057304,-0.25461006,1.1026154,0.811377,-0.452417,0.7943848,93.0
170,-0.012057304,-0.25461006,1.1026154,1.2478638,-0.29205322,0.9515625,93.0
171,-0.29916,0.22601128,0.49386597,1.2478638,-0.29205322,0.9515625,93.0
172,-0.29916,0.22601128,0.49386597,1.6609863,-0.15611573,1.1289185,93.0
173,-0.1917696,0.6080437,-0.33724976,1.6609863,-0.15611573,1.1289185,93.0
174,-0.1917696,0.6080437,-0.33724976,2.1526978,0.04141846,1.3317627,93.0
175,0.3853054,0.84750557,-1.0584106,2.1526978,0.04141846,1.3317627,93.0
176,0.3853054,0.84750557,-1.0584106,2.7198122,0.23045655,1.537793,93.0
177,1.1527023,1.0504646,-1.5110168,2.7198122,0.23045655,1.537793,93.0
178,1.1527023,1.0504646,-1.5110168,3.260376,0.46622315,1.7693115,93.0
179,1.7209654,1.3577805,-1.754364,3.260376,0.46622315,1.7693115,93.0
180,1.7209654,1.3577805,-1.754364,3.635266,0.7083618,2.0082643,93.0
181,1.9967918,1.7299004,-1.9583588,3.635266,0.7083618,2.0082643,93.0
182,1.9967918,1.7299004,-1.9583588,3.8083742,0.91757816,2.2514648,93.0
183,2.2686005,1.9961262,-2.208725,3.8083742,0.91757816,2.2514648,93.0
184,2.2686005,1.9961262,-2.208725,3.810498,1.1374146,2.4585571,93.0
185,2.670044,2.0485497,-2.461975,3.810498,1.1374146,2.4585571,93.0
186,2.670044,2.0485497,-2.461975,3.6713746,1.3954834,2.6550293,93.0
187,2.9569826,1.8911228,-2.7019196,3.6713746,1.3954834,2.6550293,93.0
188,2.9569826,1.8911228,-2.7019196,3.43667,1.6556762,2.811145,93.0
189,2.983652,1.6050014,-2.92424,3.43667,1.6556762,2.811145,93.0
190,2.983652,1.6050014,-2.92424,3.1361206,1.8786987,2.8918579,93.0
191,2.866291,1.2703419,-3.0174408,3.1361206,1.8786987,2.8918579,93.0
192,2.866291,1.2703419,-3.0174408,2.7867188,2.061365,2.9067261,93.0
193,2.7181435,0.934145,-2.855957,2.7867188,2.061365,2.9067261,93.0
194,2.7181435,0.934145,-2.855957,2.434131,2.162256,2.8536255,93.0
195,2.5516748,0.55498123,-2.4103699,2.434131,2.162256,2.8536255,93.0
196,2.5516748,0.55498123,-2.4103699,2.0369384,2.247217,2.788843,93.0
197,2.3186588,0.10681343,-1.8177643,2.0369384,2.247217,2.788843,93.0
198,2.3186588,0.10681343,-1.8177643,1.5473511,2.2281005,2.5976808,93.0
199,1.8873367,-0.27477837,-1.3497162,1.5473511,2.2281005,2.5976808,93.0
200,1.8873367,-0.27477837,-1.3497162,1.0280274,2.1845582,2.3799684,93.0
201,1.2367611,-0.47703743,-1.1171112,1.0280274,2.1845582,2.3799684,93.0
202,1.2367611,-0.47703743,-1.1171112,0.48533937,2.162256,2.1877441,93.0
203,0.62020683,-0.5290184,-0.99594116,0.48533937,2.162256,2.1877441,93.0
204,0.62020683,-0.5290184,-0.99594116,-0.015930176,2.1495118,2.0178223,93.0
205,0.24368668,-0.5433197,-0.83602905,-0.015930176,2.1495118,2.0178223,93.0
206,0.24368668,-0.5433197,-0.83602905,-0.40356445,2.0539308,1.806482,93.0
207,0.16701889,-0.5219841,-0.69348145,-0.40356445,2.0539308,1.806482,93.0
208,0.16701889,-0.5219841,-0.69348145,-0.7126099,2.0008302,1.6100098,93.0
209,0.22661972,-0.4709816,-0.5911255,-0.7126099,2.0008302,1.6100098,93.0
210,0.22661972,-0.4709816,-0.5911255,-0.9239502,1.897815,1.3795532,93.0
211,0.35331726,-0.4323883,-0.42977905,-0.9239502,1.897815,1.3795532,93.0
212,0.35331726,-0.4323883,-0.42977905,-1.0875,1.8553345,1.1883911,93.0
213,0.35331726,-0.4323883,-0.42977905,-1.0875,1.8553345,1.1883911,92.0
214,0.4007454,-0.6331177,-0.019607544,-1.0875,1.8553345,1.1883911,92.0
215,0.4007454,-0.6331177,-0.019607544,-1.1650269,1.6089478,0.85385746,92.0
216,0.31328392,-0.91135216,0.47406006,-1.1650269,1.6089478,0.85385746,92.0
217,0.31328392,-0.91135216,0.47406006,-1.1023682,1.3168945,0.51932377,92.0
218,0.2085495,-0.82878876,0.82373047,-1.1023682,1.3168945,0.51932377,92.0
219,0.2085495,-0.82878876,0.82373047,-1.2128174,1.0205933,0.2516968,92.0
220,0.08480835,-0.40814972,0.9486389,-1.2128174,1.0205933,0.2516968,92.0
221,0.08480835,-0.40814972,0.9486389,-1.4061035,0.58623046,-0.16885987,92.0
222,0.09605789,0.05340004,0.8411102,-1.4061035,0.58623046,-0.16885987,92.0
223,0.09605789,0.05340004,0.8411102,-1.622754,0.28780517,-0.5564942,92.0
224,-0.057540894,0.034420013,0.9600525,-1.622754,0.28780517,-0.5564942,92.0
225,-0.057540894,0.034420013,0.9600525,-1.7077149,-0.31116945,-1.081128,92.0
226,-0.73892784,-0.49541283,1.5943146,-1.7077149,-0.31116945,-1.081128,92.0
227,-0.73892784,-0.49541283,1.5943146,-1.5144287,-0.9122681,-1.5866455,92.0
228,-1.5514202,-0.9491863,2.3172302,-1.5144287,-0.9122681,-1.5866455,92.0
229,-1.5514202,-0.9491863,2.3172302,-1.0152832,-1.5431031,-2.0156982,92.0
230,-1.9364605,-0.92248344,2.5845032,-1.0152832,-1.5431031,-2.0156982,92.0
231,-1.9364605,-0.92248344,2.5845032,-0.32285157,-2.0464966,-2.2854493,92.0
232,-1.8068714,-0.41981125,2.1832123,-0.32285157,-2.0464966,-2.2854493,92.0
233,-1.8068714,-0.41981125,2.1832123,0.37595215,-2.3289917,-2.4596193,92.0
234,-1.481472,0.2779808,1.2393799,0.37595215,-2.3289917,-2.4596193,92.0
235,-1.481472,0.2779808,1.2393799,1.1151123,-2.4851074,-2.53396,92.0
236,-1.1143398,0.9856281,0.09573364,1.1151123,-2.4851074,-2.53396,92.0
237,-1.1143398,0.9856281,0.09573364,1.5707153,-2.4192626,-2.4882934,92.0
238,-0.59421825,1.5566902,-0.83509827,1.5707153,-2.4192626,-2.4882934,92.0
239,-0.59421825,1.5566902,-0.83509827,1.3827393,-2.0326905,-2.340674,92.0
240,-0.31171417,1.8194485,-1.252594,1.3827393,-2.0326905,-2.340674,92.0
241,-0.31171417,1.8194485,-1.252594,0.6701294,-1.5515991,-2.2886353,92.0
242,-0.6268978,1.8605042,-1.1324158,0.6701294,-1.5515991,-2.2886353,92.0
243,-0.6268978,1.8605042,-1.1324158,-0.32497558,-1.176709,-2.353418,92.0
244,-1.0811081,1.7102909,-0.59680176,-0.32497558,-1.176709,-2.353418,92.0
245,-1.0811081,1.7102909,-0.59680176,-1.4071655,-0.92076415,-2.4957275,92.0
246,-1.136261,1.1846161,0.21322632,-1.4071655,-0.92076415,-2.4957275,92.0
247,-1.136261,1.1846161,0.21322632,-2.257837,-0.7455322,-2.614673,92.0
248,-0.8858404,0.3145275,1.0580902,-2.257837,-0.7455322,-2.614673,92.0
249,-0.8858404,0.3145275,1.0580902,-2.794153,-0.64570314,-2.709192,92.0
250,-0.75909996,-0.55186844,1.6743622,-2.794153,-0.64570314,-2.709192,92.0
251,-0.75909996,-0.55186844,1.6743622,-2.980005,-0.6138428,-2.807959,92.0
252,-0.88993454,-1.0751972,1.9593658,-2.980005,-0.6138428,-2.807959,92.0
253,-0.88993454,-1.0751972,1.9593658,-2.896106,-0.63614506,-2.8695557,92.0
254,-1.1294041,-1.2220345,2.0256805,-2.896106,-0.63614506,-2.8695557,92.0
255,-1.1294041,-1.2220345,2.0256805,-2.6645875,-0.7349121,-2.8568115,92.0
256,-1.3278275,-1.1304226,2.0157166,-2.6645875,-0.7349121,-2.8568115,92.0
257,-1.3278275,-1.1304226,2.0157166,-2.362976,-0.81668705,-2.7314942,92.0
258,-1.4413996,-0.92162323,1.940979,-2.362976,-0.81668705,-2.7314942,92.0
259,-1.4413996,-0.92162323,1.940979,-2.0146363,-0.8230591,-2.529712,92.0
260,-1.4651432,-0.64845467,1.7703552,-2.0146363,-0.8230591,-2.529712,92.0
261,-1.4651432,-0.64845467,1.7703552,-1.7873658,-0.7954468,-2.2482789,92.0
262,-1.4705276,-0.345253,1.50354,-1.7873658,-0.7954468,-2.2482789,92.0
263,-1.4705276,-0.345253,1.50354,-1.7714356,-0.65207523,-1.893567,92.0
264,-1.5056095,-0.13012123,1.2264099,-1.7714356,-0.65207523,-1.893567,92.0
265,-1.5056095,-0.13012123,1.2264099,-1.9562256,-0.5511841,-1.535669,92.0
266,-1.3964424,-0.1218586,1.0384674,-1.9562256,-0.5511841,-1.535669,92.0
267,-1.3964424,-0.1218586,1.0384674,-2.1919923,-0.43011475,-1.183081,92.0
268,-1.0539455,-0.3509903,0.9723511,-2.1919923,-0.43011475,-1.183081,92.0
269,-1.0539455,-0.3509903,0.9723511,-2.3651001,-0.2888672,-0.86341554,92.0
270,-0.7734299,-0.7787533,1.0257263,-2.3651001,-0.2888672,-0.86341554,92.0
271,-0.7734299,-0.7787533,1.0257263,-2.4097047,-0.22408448,-0.6000366,92.0
272,-0.77843666,-1.4050827,1.1481781,-2.4097047,-0.22408448,-0.6000366,92.0
273,-0.77843666,-1.4050827,1.1481781,-2.1218994,-0.1996582,-0.4715332,92.0
274,-0.77050304,-2.0518608,1.3060608,-2.1218994,-0.1996582,-0.4715332,92.0
275,-0.77050304,-2.0518608,1.3060608,-1.4337158,-0.29311523,-0.45772704,92.0
276,-0.3977747,-2.4073467,1.4242706,-1.4337158,-0.29311523,-0.45772704,92.0
277,-0.3977747,-2.4073467,1.4242706,-0.44710693,-0.3802002,-0.44604492,92.0
278,0.18834782,-2.321251,1.4863281,-0.44710693,-0.3802002,-0.44604492,92.0
279,0.18834782,-2.321251,1.4863281,0.67650145,-0.4343628,-0.41737062,92.0
280,0.48065853,-1.8611755,1.4593201,0.67650145,-0.4343628,-0.41737062,92.0
281,0.48065853,-1.8611755,1.4593201,1.622754,-0.4619751,-0.31860352,92.0
282,0.37579918,-1.1919556,1.015686,1.622754,-0.4619751,-0.31860352,92.0
283,0.37579918,-1.1919556,1.015686,2.3226197,-0.41949463,-0.12850343,92.0
284,0.33241463,-0.42978477,0.05050659,2.3226197,-0.41949463,-0.12850343,92.0
285,0.33241463,-0.42978477,0.05050659,2.8323853,-0.18691407,0.14974366,92.0
286,0.5287485,0.44971466,-1.1004944,2.8323853,-0.18691407,0.14974366,92.0
287,0.5287485,0.44971466,-1.1004944,3.175415,0.1996582,0.5564942,92.0
288,0.75684834,1.3792286,-2.0651703,3.175415,0.1996582,0.5564942,92.0
289,0.75684834,1.3792286,-2.0651703,3.3432128,0.635083,1.0237793,92.0
290,0.84678745,2.1886978,-2.6609192,3.3432128,0.635083,1.0237793,92.0
291,0.84678745,2.1886978,-2.6609192,3.3124146,1.1246704,1.5728394,92.0
292,0.74263954,2.6899605,-2.8394165,3.3124146,1.1246704,1.5728394,92.0
293,0.74263954,2.6899605,-2.8394165,3.0554078,1.5027466,2.0995972,92.0
294,0.67123604,2.779274,-2.6838226,3.0554078,1.5027466,2.0995972,92.0
295,0.67123604,2.779274,-2.6838226,2.6475952,1.8574585,2.627417,92.0
296,0.9520893,2.559515,-2.3692322,2.6475952,1.8574585,2.627417,92.0
297,0.9520893,2.559515,-2.3692322,2.1484497,2.1399536,3.1414306,92.0
298,1.6221457,2.194952,-2.079773,2.1484497,2.1399536,3.1414306,92.0
299,1.6221457,2.194952,-2.079773,1.6524903,2.3300538,3.606592,92.0
300,2.4784422,1.7645435,-1.9165955,1.6524903,2.3300538,3.606592,92.0
301,2.4784422,1.7645435,-1.9165955,1.2255615,2.442627,4.059009,92.0
302,3.178176,1.2271614,-1.770752,1.2255615,2.442627,4.059009,92.0
303,3.178176,1.2271614,-1.770752,0.9430664,2.451123,4.3627443,92.0
304,3.4936028,0.54507256,-1.5419006,0.9430664,2.451123,4.3627443,92.0
305,3.4936028,0.54507256,-1.5419006,0.81031495,2.2843874,4.5029297,92.0
306,3.4195528,-0.16217232,-1.2239838,0.81031495,2.2843874,4.5029297,92.0
307,3.4195528,-0.16217232,-1.2239838,0.75296634,2.1187134,4.460449,92.0
308,3.1032085,-0.7196789,-0.9513092,0.75296634,2.1187134,4.460449,92.0
309,3.1032085,-0.7196789,-0.9513092,0.80394286,1.9169312,4.240613,92.0
310,2.6044292,-1.170311,-0.73739624,0.80394286,1.9169312,4.240613,92.0
311,2.6044292,-1.170311,-0.73739624,0.92076415,1.7470093,3.974048,92.0
312,1.950695,-1.4078312,-0.6363373,0.92076415,1.7470093,3.974048,92.0
313,1.950695,-1.4078312,-0.6363373,1.0673218,1.6142578,3.5811036,92.0
314,1.3170757,-1.247467,-0.7167511,1.0673218,1.6142578,3.5811036,92.0
315,1.3170757,-1.247467,-0.7167511,1.0906861,1.5569092,3.170105,92.0
316,0.7317734,-0.84622765,-0.8024292,1.0906861,1.5569092,3.170105,92.0
317,0.7317734,-0.84622765,-0.8024292,1.0152832,1.5292969,2.8323853,92.0
318,0.22908401,-0.47412682,-0.7314148,1.0152832,1.5292969,2.8323853,92.0
319,0.22908401,-0.47412682,-0.7314148,0.8878418,1.4836304,2.4744873,92.0
320,0.0153102875,-0.2969513,-0.5035248,0.8878418,1.4836304,2.4744873,92.0
321,0.0153102875,-0.2969513,-0.5035248,0.71154785,1.4443359,2.1335816,92.0
322,0.12645721,-0.3400631,-0.2638855,0.71154785,1.4443359,2.1335816,92.0
323,0.12645721,-0.3400631,-0.2638855,0.5171997,1.354065,1.7395753,92.0
324,0.23405075,-0.3642025,-0.13774109,0.5171997,1.354065,1.7395753,92.0
325,0.23405075,-0.3642025,-0.13774109,0.25913087,1.2043213,1.3487549,92.0
326,0.23405075,-0.3642025,-0.13774109,0.25913087,1.2043213,1.3487549,91.0
327,0.04496765,-0.22047615,-0.096084595,0.25913087,1.2043213,1.3487549,91.0
328,0.04496765,-0.22047615,-0.096084595,-0.10089111,0.99510497,0.96430665,91.0
329,-0.31901932,-0.06544304,-0.0128479,-0.10089111,0.99510497,0.96430665,91.0
330,-0.31901932,-0.06544304,-0.0128479,-0.45878908,0.724292,0.5533081,91.0
331,-0.53502464,0.028383255,0.19654846,-0.45878908,0.724292,0.5533081,91.0
332,-0.53502464,0.028383255,0.19654846,-0.72960204,0.3695801,0.03186035,91.0
333,-0.55516815,0.11622429,0.4374237,-0.72960204,0.3695801,0.03186035,91.0
334,-0.55516815,0.11622429,0.4374237,-0.9568726,0.03717041,-0.50020754,91.0
335,-0.6905098,0.14766693,0.74710083,-0.9568726,0.03717041,-0.50020754,91.0
336,-0.6905098,0.14766693,0.74710083,-1.176709,-0.5012695,-1.1108643,91.0
337,-0.9573517,0.1253109,1.1555176,-1.176709,-0.5012695,-1.1108643,91.0
338,-0.9573517,0.1253109,1.1555176,-1.265918,-1.0312134,-1.7374512,91.0
339,-0.9451542,-0.022541046,1.4461823,-1.265918,-1.0312134,-1.7374512,91.0
340,-0.9451542,-0.022541046,1.4461823,-1.1915772,-1.5632813,-2.3789062,91.0
341,-0.60110664,-0.22611427,1.492096,-1.1915772,-1.5632813,-2.3789062,91.0
342,-0.60110664,-0.22611427,1.492096,-0.9218262,-1.9625977,-2.8249512,91.0
343,-0.17692947,-0.21098328,1.4198608,-0.9218262,-1.9625977,-2.8249512,91.0
344,-0.17692947,-0.21098328,1.4198608,-0.56180423,-2.3353639,-3.2423217,91.0
345,0.13742447,-0.013622284,1.2865753,-0.56180423,-2.3353639,-3.2423217,91.0
346,0.13742447,-0.013622284,1.2865753,-0.1444336,-2.613611,-3.617212,91.0
347,0.24424171,0.40465546,0.82733154,-0.1444336,-2.613611,-3.617212,91.0
348,0.24424171,0.40465546,0.82733154,0.16248779,-2.7495484,-3.8274903,91.0
349,0.08056259,1.1604309,-0.13919067,0.16248779,-2.7495484,-3.8274903,91.0
350,0.08056259,1.1604309,-0.13919067,0.08071289,-2.4840455,-3.7860718,91.0
351,-0.4122715,2.0369377,-1.2745056,0.08071289,-2.4840455,-3.7860718,91.0
352,-0.4122715,2.0369377,-1.2745056,-0.6138428,-2.0082643,-3.6331422,91.0
353,-1.0385084,2.5456753,-2.005249,-0.6138428,-2.0082643,-3.6331422,91.0
354,-1.0385084,2.5456753,-2.005249,-1.5186768,-1.4857544,-3.524817,91.0
355,-1.3306236,2.4270058,-1.9802094,-1.5186768,-1.4857544,-3.524817,91.0
356,-1.3306236,2.4270058,-1.9802094,-2.5105958,-0.9409424,-3.3729494,91.0
357,-1.1421719,1.7039204,-1.2815399,-2.5105958,-0.9409424,-3.3729494,91.0
358,-1.1421719,1.7039204,-1.2815399,-3.344275,-0.58410645,-3.3325927,91.0
359,-0.6319628,0.625576,-0.21502686,-3.344275,-0.58410645,-3.3325927,91.0
360,-0.6319628,0.625576,-0.21502686,-3.9241333,-0.087084964,-3.2317016,91.0
361,-0.2340002,-0.63174057,1.0329437,-3.9241333,-0.087084964,-3.2317016,91.0
362,-0.2340002,-0.63174057,1.0329437,-4.1991944,0.16779785,-3.3124146,91.0
363,-0.21667957,-1.9964199,2.3093872,-4.1991944,0.16779785,-3.3124146,91.0
364,-0.21667957,-1.9964199,2.3093872,-4.049451,0.2081543,-3.4249878,91.0
365,-0.5447922,-3.080986,3.2883148,-4.049451,0.2081543,-3.4249878,91.0
366,-0.5447922,-3.080986,3.2883148,-3.5609252,0.058410645,-3.6363282,91.0
367,-1.1492977,-3.342327,3.6430664,-3.5609252,0.058410645,-3.6363282,91.0
368,-1.1492977,-3.342327,3.6430664,-3.0054932,-0.19541016,-3.7276611,91.0
369,-1.9171562,-2.8175983,3.4513702,-3.0054932,-0.19541016,-3.7276611,91.0
370,-1.9171562,-2.8175983,3.4513702,-2.5020998,-0.38763428,-3.6713746,91.0
371,-2.6915865,-2.1473522,3.1017456,-2.5020998,-0.38763428,-3.6713746,91.0
372,-2.6915865,-2.1473522,3.1017456,-1.9424194,-0.69136965,-3.526941,91.0
373,-3.214939,-1.5589962,2.7760315,-1.9424194,-0.69136965,-3.526941,91.0
374,-3.214939,-1.5589962,2.7760315,-1.5462891,-0.8485474,-3.1977174,91.0
375,-3.2579012,-0.9863949,2.3837433,-1.5462891,-0.8485474,-3.1977174,91.0
376,-3.2579012,-0.9863949,2.3837433,-1.4284058,-0.94412845,-2.714502,91.0
377,-2.8420267,-0.63555145,1.8782959,-1.4284058,-0.94412845,-2.714502,91.0
378,-2.8420267,-0.63555145,1.8782959,-1.5558472,-0.8952759,-2.1877441,91.0
379,-2.1869154,-0.7212715,1.3090363,-1.5558472,-0.8952759,-2.1877441,91.0
380,-2.1869154,-0.7212715,1.3090363,-1.7119629,-0.7657105,-1.6811646,91.0
381,-1.6183805,-1.1931076,0.8629761,-1.7119629,-0.7657105,-1.6811646,91.0
382,-1.6183805,-1.1931076,0.8629761,-1.7788696,-0.56817627,-1.2032593,91.0
383,-1.338088,-1.7939873,0.652298,-1.7788696,-0.56817627,-1.2032593,91.0
384,-1.338088,-1.7939873,0.652298,-1.6493043,-0.39082032,-0.77102053,91.0
385,-1.1464586,-2.257967,0.65852356,-1.6493043,-0.39082032,-0.77102053,91.0
386,-1.1464586,-2.257967,0.65852356,-1.2829102,-0.3419678,-0.3982544,91.0
387,-0.7441206,-2.4983425,0.8640137,-1.2829102,-0.3419678,-0.3982544,91.0
388,-0.7441206,-2.4983425,0.8640137,-0.6467652,-0.3164795,-0.032922365,91.0
389,-0.29049873,-2.4830742,1.2087097,-0.6467652,-0.3164795,-0.032922365,91.0
390,-0.29049873,-2.4830742,1.2087097,0.16885987,-0.2516968,0.36320803,91.0
391,-0.16417408,-2.0470543,1.4025726,0.16885987,-0.2516968,0.36320803,91.0
392,-0.16417408,-2.0470543,1.4025726,1.0216553,-0.16885987,0.77102053,91.0
393,-0.19833183,-1.1719952,1.0685577,1.0216553,-0.16885987,0.77102053,91.0
394,-0.19833183,-1.1719952,1.0685577,1.7905518,-0.070092775,1.1639649,91.0
395,0.089357376,-0.05861664,0.11148071,1.7905518,-0.070092775,1.1639649,91.0
396,0.089357376,-0.05861664,0.11148071,2.4489992,0.17947999,1.6153198,91.0
397,0.68355846,1.0795593,-1.0779877,2.4489992,0.17947999,1.6153198,91.0
398,0.68355846,1.0795593,-1.0779877,2.9821289,0.5129517,2.081543,91.0
399,1.259408,2.0905762,-1.9130249,2.9821289,0.5129517,2.081543,91.0
400,1.259408,2.0905762,-1.9130249,3.347461,0.83898926,2.524402,91.0
401,1.662116,2.8644047,-2.2646332,3.347461,0.83898926,2.524402,91.0
402,1.662116,2.8644047,-2.2646332,3.5460572,1.2499878,2.9715087,91.0
403,1.9173145,3.3356876,-2.3431396,3.5460572,1.2499878,2.9715087,91.0
404,1.9173145,3.3356876,-2.3431396,3.5980957,1.5632813,3.3963134,91.0
405,2.2045918,3.5110073,-2.350174,3.5980957,1.5632813,3.3963134,91.0
406,2.2045918,3.5110073,-2.350174,3.5566773,1.8553345,3.796692,91.0
407,2.729763,3.4481125,-2.3756561,3.5566773,1.8553345,3.796692,91.0
408,2.729763,3.4481125,-2.3756561,3.4940186,1.9806519,4.177954,91.0
409,3.4324074,3.1964664,-2.4138947,3.4940186,1.9806519,4.177954,91.0
410,3.4324074,3.1964664,-2.4138947,3.354895,2.171814,4.4923096,91.0
411,4.0974274,2.79327,-2.4209442,3.354895,2.171814,4.4923096,91.0
412,4.0974274,2.79327,-2.4209442,3.1881592,2.2429688,4.711084,91.0
413,4.4341316,2.234995,-2.3231049,3.1881592,2.2429688,4.711084,91.0
414,4.4341316,2.234995,-2.3231049,2.9460206,2.2376587,4.8448977,91.0
415,4.466751,1.5908661,-2.144104,2.9460206,2.2376587,4.8448977,91.0
416,4.466751,1.5908661,-2.144104,2.617859,2.1346436,4.7641845,91.0
417,4.2308598,1.0562496,-2.022934,2.617859,2.1346436,4.7641845,91.0
418,4.2308598,1.0562496,-2.022934,2.1866822,2.0348146,4.620813,91.0
419,3.4681225,0.6493454,-1.9602051,2.1866822,2.0348146,4.620813,91.0
420,3.4681225,0.6493454,-1.9602051,1.7002808,1.9817139,4.3892946,91.0
421,2.3607044,0.18460083,-1.8463745,1.7002808,1.9817139,4.3892946,91.0
422,2.3607044,0.18460083,-1.8463745,1.3030884,1.9222412,4.0303345,91.0
423,1.3451424,-0.3157463,-1.6300812,1.3030884,1.9222412,4.0303345,91.0
424,1.3451424,-0.3157463,-1.6300812,1.0407715,1.8723267,3.7382812,91.0
425,0.49752426,-0.6655121,-1.2445068,1.0407715,1.8723267,3.7382812,91.0
426,0.49752426,-0.6655121,-1.2445068,0.8517334,1.7863038,3.4579103,91.0
427,-0.07698059,-0.73327637,-0.7985687,0.8517334,1.7863038,3.4579103,91.0
428,-0.07698059,-0.73327637,-0.7985687,0.7189819,1.7119629,3.2497559,91.0
429,-0.2952137,-0.64481163,-0.5040436,0.7189819,1.7119629,3.2497559,91.0
430,-0.2952137,-0.64481163,-0.5040436,0.5979126,1.5208008,2.8833618,91.0
431,-0.2952137,-0.64481163,-0.5040436,0.5979126,1.5208008,2.8833618,91.0
432,-0.3357315,-0.5879803,-0.36209106,0.5979126,1.5208008,2.8833618,91.0
433,-0.3357315,-0.5879803,-0.36209106,0.48427734,1.3476928,2.5700684,91.0
434,-0.42120934,-0.6326275,-0.2694702,0.48427734,1.3476928,2.5700684,91.0
435,-0.42120934,-0.6326275,-0.2694702,0.39506838,1.1682129,2.2153566,91.0
436,-0.7088299,-0.73373795,-0.094070435,0.39506838,1.1682129,2.2153566,91.0
437,-0.7088299,-0.73373795,-0.094070435,0.2824951,0.9451904,1.8372803,91.0
438,-1.0772686,-0.7916298,0.19918823,0.2824951,0.9451904,1.8372803,91.0
439,-1.0772686,-0.7916298,0.19918823,0.1359375,0.5915405,1.3296387,91.0
440,-1.3298683,-0.8029461,0.49494934,0.1359375,0.5915405,1.3296387,91.0
441,-1.3298683,-0.8029461,0.49494934,-0.019116212,0.23151855,0.73703617,91.0
442,-1.3982449,-0.70541763,0.61579895,-0.019116212,0.23151855,0.73703617,91.0
443,-1.3982449,-0.70541763,0.61579895,-0.26019287,-0.12956543,0.10407715,91.0
444,-1.457964,-0.57048607,0.59843445,-0.26019287,-0.12956543,0.10407715,91.0
445,-1.457964,-0.57048607,0.59843445,-0.61702883,-0.56605226,-0.5957886,91.0
446,-1.586977,-0.54740334,0.63586426,-0.61702883,-0.56605226,-0.5957886,91.0
447,-1.586977,-0.54740334,0.63586426,-0.96430665,-1.0057251,-1.26698,91.0
448,-1.5293484,-0.39329338,0.61309814,-0.96430665,-1.0057251,-1.26698,91.0
449,-1.5293484,-0.39329338,0.61309814,-1.1151123,-1.2351197,-1.6078857,91.0
450,-1.2526894,-0.36426735,0.8391571,-1.1151123,-1.2351197,-1.6078857,91.0
451,-1.2526894,-0.36426735,0.8391571,-1.4878784,-1.7332032,-2.4182007,91.0
452,-1.0568504,-0.040498734,0.7063751,-1.4878784,-1.7332032,-2.4182007,91.0
453,-1.0568504,-0.040498734,0.7063751,-1.5622193,-1.8797607,-2.6571534,91.0
454,-0.16090965,0.2185173,0.56355286,-1.5622193,-1.8797607,-2.6571534,91.0
455,-0.16090965,0.2185173,0.56355286,-1.5877075,-2.2015502,-3.3017945,91.0
456,-0.21074677,0.50060654,0.4143982,-1.5877075,-2.2015502,-3.3017945,91.0
457,-0.21074677,0.50060654,0.4143982,-1.5462891,-2.2886353,-3.5046387,91.0
458,0.27285767,0.7007656,0.23916626,-1.5462891,-2.2886353,-3.5046387,91.0
459,0.27285767,0.7007656,0.23916626,-1.2839721,-2.4266968,-3.902893,91.0
460,-0.09378624,0.834404,0.1508789,-1.2839721,-2.4266968,-3.902893,91.0
461,-0.09378624,0.834404,0.1508789,-1.178833,-2.4118288,-4.0112185,91.0
462,-0.066093445,0.97247887,-0.061904907,-1.178833,-2.4118288,-4.0112185,91.0
463,-0.066093445,0.97247887,-0.061904907,-1.0280274,-2.2344728,-4.303272,91.0
464,-0.49937057,1.086052,-0.10896301,-1.0280274,-2.2344728,-4.303272,91.0
465,-0.49937057,1.086052,-0.10896301,-1.0938721,-2.1431396,-4.3669925,91.0
466,-0.14801979,1.3020077,-0.43826294,-1.0938721,-2.1431396,-4.3669925,91.0
467,-0.14801979,1.3020077,-0.43826294,-1.448584,-1.7841797,-4.5602784,91.0
468,-0.39979935,1.1308746,-0.2653656,-1.448584,-1.7841797,-4.5602784,91.0
469,-0.39979935,1.1308746,-0.2653656,-1.6057618,-1.6684204,-4.610193,91.0
470,0.5685148,0.5194454,0.2207489,-1.6057618,-1.6684204,-4.610193,91.0
471,0.5685148,0.5194454,0.2207489,-1.9848999,-1.2903442,-4.690906,91.0
472,0.2656517,0.10216522,0.71987915,-1.9848999,-1.2903442,-4.690906,91.0
473,0.2656517,0.10216522,0.71987915,-2.0645509,-1.2032593,-4.6781616,91.0
474,0.5511446,-0.6303158,1.5619507,-2.0645509,-1.2032593,-4.6781616,91.0
475,0.5511446,-0.6303158,1.5619507,-2.4075806,-1.0535157,-4.4179688,91.0
476,-0.09644985,-0.7699375,1.7532043,-2.4075806,-1.0535157,-4.4179688,91.0
477,-0.09644985,-0.7699375,1.7532043,-2.5743165,-1.0163453,-4.257605,91.0
478,-1.1445789,-0.8195629,1.881958,-2.5743165,-1.0163453,-4.257605,91.0
479,-1.1445789,-0.8195629,1.881958,-3.0893922,-0.9526245,-3.5747316,91.0
480,-1.7392225,-0.95599174,2.024704,-3.0893922,-0.9526245,-3.5747316,91.0
481,-1.7392225,-0.95599174,2.024704,-3.2253296,-0.903772,-3.2359498,91.0
482,-2.7522306,-1.1122551,2.243164,-3.2253296,-0.903772,-3.2359498,91.0
483,-2.7522306,-1.1122551,2.243164,-3.4632204,-0.84748536,-2.6486573,91.0
484,-3.515213,-1.3333588,2.3763733,-3.4632204,-0.84748536,-2.6486573,91.0
485,-3.515213,-1.3333588,2.3763733,-3.5747316,-0.79119873,-2.0061402,91.0
486,-3.78722,-1.7337513,2.2208252,-3.5747316,-0.79119873,-2.0061402,91.0
487,-3.78722,-1.7337513,2.2208252,-3.3400269,-0.7869507,-1.2531738,91.0
488,-3.0816555,-1.9291153,2.1036835,-3.3400269,-0.7869507,-1.2531738,91.0
489,-3.0816555,-1.9291153,2.1036835,-3.175415,-0.7593384,-1.0131592,91.0
490,-2.3189383,-2.371111,1.8267365,-3.175415,-0.7593384,-1.0131592,91.0
491,-2.3189383,-2.371111,1.8267365,-2.7463624,-0.6085327,-0.57561034,91.0
492,-1.8759155,-2.6502457,1.449707,-2.7463624,-0.6085327,-0.57561034,91.0
493,-1.8759155,-2.6502457,1.449707,-2.1877441,-0.44498292,-0.22939454,91.0
494,-1.788537,-2.7025204,1.0473022,-2.1877441,-0.44498292,-0.22939454,91.0
495,-1.788537,-2.7025204,1.0473022,-1.5346069,-0.31435546,-0.0010620117,91.0
496,-1.568634,-2.5077438,0.73524475,-1.5346069,-0.31435546,-0.0010620117,91.0
497,-1.568634,-2.5077438,0.73524475,-0.7604004,-0.2166504,0.16248779,91.0
498,-0.918787,-2.1151295,0.7627106,-0.7604004,-0.2166504,0.16248779,91.0
499,-0.918787,-2.1151295,0.7627106,0.04460449,-0.15505372,0.32603762,91.0
500,-0.17249298,-1.5081062,1.0628204,0.04460449,-0.15505372,0.32603762,91.0
501,-0.17249298,-1.5081062,1.0628204,0.6669434,-0.039294433,0.55755615,91.0
502,0.09069252,-0.84332657,1.2834167,0.6669434,-0.039294433,0.55755615,91.0
503,0.09069252,-0.84332657,1.2834167,1.176709,0.093457036,0.83474123,91.0
504,-0.04636669,-0.17154884,0.97706604,1.176709,0.093457036,0.83474123,91.0
505,-0.04636669,-0.17154884,0.97706604,1.635498,0.21877442,1.1278565,91.0
506,0.062211037,0.48176575,0.21055603,1.635498,0.21877442,1.1278565,91.0
507,0.062211037,0.48176575,0.21055603,2.0634887,0.39188233,1.4857544,91.0
508,0.55987644,1.1201668,-0.7309723,2.0634887,0.39188233,1.4857544,91.0
509,0.55987644,1.1201668,-0.7309723,2.4925416,0.65207523,1.898877,91.0
510,1.0459843,1.6821327,-1.5075073,2.4925416,0.65207523,1.898877,91.0
511,1.0459843,1.6821327,-1.5075073,2.902478,0.9281983,2.3151855,91.0
512,1.263154,2.189127,-2.0503235,2.902478,0.9281983,2.3151855,91.0
513,1.263154,2.189127,-2.0503235,3.1828492,1.2436157,2.7368042,91.0
514,1.3206186,2.6130943,-2.3924408,3.1828492,1.2436157,2.7368042,91.0
515,1.3206186,2.6130943,-2.3924408,3.3602052,1.5218629,3.1329346,91.0
516,1.5654793,2.943966,-2.6237946,3.3602052,1.5218629,3.1329346,91.0
517,1.5654793,2.943966,-2.6237946,3.440918,1.7395753,3.5322511,91.0
518,2.1669712,3.136301,-2.760849,3.440918,1.7395753,3.5322511,91.0
519,2.1669712,3.136301,-2.760849,3.4090576,1.9413575,3.8678467,91.0
520,2.985262,3.1350422,-2.7497253,3.4090576,1.9413575,3.8678467,91.0
521,2.985262,3.1350422,-2.7497253,3.2794921,2.080481,4.1949463,91.0
522,3.677785,2.8831806,-2.572876,3.2794921,2.080481,4.1949463,91.0
523,3.677785,2.8831806,-2.572876,3.0575318,2.2780151,4.4731936,91.0
524,3.8624067,2.3782616,-2.2793274,3.0575318,2.2780151,4.4731936,91.0
525,3.8624067,2.3782616,-2.2793274,2.7399902,2.2312868,4.5708985,91.0
526,3.4847012,1.7299042,-1.995697,2.7399902,2.2312868,4.5708985,91.0
527,3.4847012,1.7299042,-1.995697,2.3396118,2.0932252,4.4933715,91.0
528,2.8946943,1.0575199,-1.7297821,2.3396118,2.0932252,4.4933715,91.0
529,2.8946943,1.0575199,-1.7297821,1.8925049,2.0008302,4.3638062,91.0
530,2.284359,0.37829208,-1.4727173,1.8925049,2.0008302,4.3638062,91.0
531,2.284359,0.37829208,-1.4727173,1.5038086,1.803296,3.9697998,91.0
532,1.6715908,-0.18053246,-1.3189087,1.5038086,1.803296,3.9697998,91.0
533,1.6715908,-0.18053246,-1.3189087,1.1459106,1.6779785,3.6448243,91.0
534,1.6715908,-0.18053246,-1.3189087,1.1459106,1.6779785,3.6448243,91.0
535,0.95923424,-0.516716,-1.2353363,1.1459106,1.6779785,3.6448243,91.0
536,0.95923424,-0.516716,-1.2353363,0.84323734,1.540979,3.2189577,91.0
537,0.23226738,-0.6318531,-1.0913239,0.84323734,1.540979,3.2189577,91.0
538,0.23226738,-0.6318531,-1.0913239,0.58410645,1.4252198,2.8727417,91.0
539,-0.2833271,-0.56355095,-0.8346863,0.58410645,1.4252198,2.8727417,91.0
540,-0.2833271,-0.56355095,-0.8346863,0.3727661,1.2999023,2.532898,91.0
541,-0.36115837,-0.4724102,-0.52067566,0.3727661,1.2999023,2.532898,91.0
542,-0.36115837,-0.4724102,-0.52067566,0.21134034,1.1597168,2.2132325,91.0
543,-0.052598953,-0.46592712,-0.28356934,0.21134034,1.1597168,2.2132325,91.0
544,-0.052598953,-0.46592712,-0.28356934,0.0722168,1.0237793,1.903125,91.0
545,0.08492279,-0.560194,-0.18832397,0.0722168,1.0237793,1.903125,91.0
546,0.08492279,-0.560194,-0.18832397,-0.0361084,0.87615967,1.5919555,91.0
547,-0.2007618,-0.64102745,-0.13328552,-0.0361084,0.87615967,1.5919555,91.0
548,-0.2007618,-0.64102745,-0.13328552,-0.14018555,0.6488892,1.2414917,91.0
549,-0.5544071,-0.55431366,0.022003174,-0.14018555,0.6488892,1.2414917,91.0
550,-0.5544071,-0.55431366,0.022003174,-0.28780517,0.36639404,0.80819094,91.0
551,-0.6077099,-0.40701294,0.27890015,-0.28780517,0.36639404,0.80819094,91.0
552,-0.6077099,-0.40701294,0.27890015,-0.3525879,0.023364259,0.2899292,91.0
553,-0.47325325,-0.31635666,0.49920654,-0.3525879,0.023364259,0.2899292,91.0
554,-0.47325325,-0.31635666,0.49920654,-0.40356445,-0.2984253,-0.27293703,91.0
555,-0.5554466,-0.32257843,0.71780396,-0.40356445,-0.2984253,-0.27293703,91.0
556,-0.5554466,-0.32257843,0.71780396,-0.5777344,-0.7327881,-0.8782837,91.0
557,-0.8838825,-0.41627884,1.0004272,-0.5777344,-0.7327881,-0.8782837,91.0
558,-0.8838825,-0.41627884,1.0004272,-0.81987303,-1.2043213,-1.5123047,91.0
559,-1.030056,-0.49846458,1.2066956,-0.81987303,-1.2043213,-1.5123047,91.0
560,-1.030056,-0.49846458,1.2066956,-0.9568726,-1.6057618,-2.0624268,91.0
561,-0.9087858,-0.5258713,1.3038635,-0.9568726,-1.6057618,-2.0624268,91.0
562,-0.9087858,-0.5258713,1.3038635,-0.8581055,-1.9456055,-2.5456421,91.0
563,-0.71111107,-0.42166138,1.2726746,-0.8581055,-1.9456055,-2.5456421,91.0
564,-0.71111107,-0.42166138,1.2726746,-0.5363159,-2.262085,-2.9534547,91.0
565,-0.5069008,-0.06976318,1.0740051,-0.5363159,-2.262085,-2.9534547,91.0
566,-0.5069008,-0.06976318,1.0740051,-0.18903808,-2.5743165,-3.2837403,91.0
567,-0.23559952,0.46331787,0.6373749,-0.18903808,-2.5743165,-3.2837403,91.0
568,-0.23559952,0.46331787,0.6373749,0.0637207,-2.6964478,-3.43667,91.0
569,-0.05038166,0.9815197,-0.023330688,0.0637207,-2.6964478,-3.43667,91.0
570,-0.05038166,0.9815197,-0.023330688,0.17523193,-2.642285,-3.4674683,91.0
571,-0.21243668,1.424448,-0.7575531,0.17523193,-2.642285,-3.4674683,91.0
572,-0.21243668,1.424448,-0.7575531,-0.035046387,-2.3937745,-3.429236,91.0
573,-0.57933617,1.7436848,-1.3485565,-0.035046387,-2.3937745,-3.429236,91.0
574,-0.57933617,1.7436848,-1.3485565,-0.50445557,-2.0709229,-3.4239259,91.0
575,-0.8099899,1.7719116,-1.5321198,-0.50445557,-2.0709229,-3.4239259,91.0
576,-0.8099899,1.7719116,-1.5321198,-1.075818,-1.7268311,-3.4536622,91.0
577,-0.73834896,1.3778076,-1.1833191,-1.075818,-1.7268311,-3.4536622,91.0
578,-0.73834896,1.3778076,-1.1833191,-1.5537232,-1.3976074,-3.4993286,91.0
579,-0.4746151,0.59846115,-0.41049194,-1.5537232,-1.3976074,-3.4993286,91.0
580,-0.4746151,0.59846115,-0.41049194,-1.809668,-1.1809571,-3.618274,91.0
581,-0.17242908,-0.27970314,0.5230408,-1.809668,-1.1809571,-3.618274,91.0
582,-0.17242908,-0.27970314,0.5230408,-1.8202881,-0.9696167,-3.7042968,91.0
583,-0.06163788,-1.0173645,1.3738251,-1.8202881,-0.9696167,-3.7042968,91.0
584,-0.06163788,-1.0173645,1.3738251,-1.6524903,-0.92076415,-3.7616456,91.0
585,-0.30963707,-1.4704952,1.9494629,-1.6524903,-0.92076415,-3.7616456,91.0
586,-0.30963707,-1.4704952,1.9494629,-1.4082276,-0.9451904,-3.7382812,91.0
587,-0.90240955,-1.5747967,2.1556091,-1.4082276,-0.9451904,-3.7382812,91.0
588,-0.90240955,-1.5747967,2.1556091,-1.2128174,-0.994043,-3.6809328,91.0
589,-1.7166786,-1.3720207,2.0386353,-1.2128174,-0.994043,-3.6809328,91.0
590,-1.7166786,-1.3720207,2.0386353,-1.1979493,-1.1182984,-3.4876466,91.0
591,-2.481803,-0.8932209,1.6948853,-1.1979493,-1.1182984,-3.4876466,91.0
592,-2.481803,-0.8932209,1.6948853,-1.4751343,-1.0630738,-3.0426636,91.0
593,-3.0538387,-0.4265766,1.3194275,-1.4751343,-1.0630738,-3.0426636,91.0
594,-3.0538387,-0.4265766,1.3194275,-1.9402955,-0.8878418,-2.5010376,91.0
595,-3.4142752,-0.3001232,1.1034546,-1.9402955,-0.8878418,-2.5010376,91.0
596,-3.4142752,-0.3001232,1.1034546,-2.2928834,-0.6796875,-1.9094971,91.0
597,-3.4782467,-0.51605225,1.05336,-2.2928834,-0.6796875,-1.9094971,91.0
598,-3.4782467,-0.51605225,1.05336,-2.4628053,-0.5065796,-1.3370727,91.0
599,-3.1791306,-0.95560455,1.0958862,-2.4628053,-0.5065796,-1.3370727,91.0
600,-3.1791306,-0.95560455,1.0958862,-2.4022706,-0.37489015,-0.8506714,91.0
601,-2.577032,-1.4834538,1.0897064,-2.4022706,-0.37489015,-0.8506714,91.0
602,-2.577032,-1.4834538,1.0897064,-2.1866822,-0.19541016,-0.4078125,91.0
603,-1.854167,-1.9574795,0.8636017,-2.1866822,-0.19541016,-0.4078125,91.0
604,-1.854167,-1.9574795,0.8636017,-1.8394043,-0.05628662,-0.021240234,91.0
605,-0.86872196,-2.218193,0.42990112,-1.8394043,-0.05628662,-0.021240234,91.0
606,-0.86872196,-2.218193,0.42990112,-1.2860962,0.015930176,0.2623169,91.0
607,0.78375816,-2.1374207,0.108428955,-1.2860962,0.015930176,0.2623169,91.0
608,0.78375816,-2.1374207,0.108428955,-0.50870365,0.18266602,0.48427734,91.0
609,2.385417,-1.7997074,0.08824158,-0.50870365,0.18266602,0.48427734,91.0
610,2.385417,-1.7997074,0.08824158,0.27718505,0.5501221,0.8442993,91.0
611,2.4970913,-1.2985191,0.048690796,0.27718505,0.5501221,0.8442993,91.0
612,2.4970913,-1.2985191,0.048690796,1.0790039,0.7582764,1.088562,91.0
613,1.5663376,-0.6690655,-0.38365173,1.0790039,0.7582764,1.088562,91.0
614,1.5663376,-0.6690655,-0.38365173,1.9349854,0.9260742,1.3052124,91.0
615,0.68795776,0.041114807,-1.075882,1.9349854,0.9260742,1.3052124,91.0
616,0.68795776,0.041114807,-1.075882,2.7707887,1.1119263,1.5643433,91.0
617,-0.09752178,0.8226242,-1.7407532,2.7707887,1.1119263,1.5643433,91.0
618,-0.09752178,0.8226242,-1.7407532,3.4695923,1.3030884,1.8202881,91.0
619,-0.6479149,1.6092834,-2.2596893,3.4695923,1.3030884,1.8202881,91.0
620,-0.6479149,1.6092834,-2.2596893,3.9305055,1.4942505,2.0932252,91.0
621,-0.7518892,2.183239,-2.547577,3.9305055,1.4942505,2.0932252,91.0
622,-0.7518892,2.183239,-2.547577,4.1312256,1.6100098,2.350232,91.0
623,-0.3887186,2.438486,-2.6641388,4.1312256,1.6100098,2.350232,91.0
624,-0.3887186,2.438486,-2.6641388,4.13866,1.7395753,2.6008668,91.0
625,0.34711838,2.4698563,-2.763382,4.13866,1.7395753,2.6008668,91.0
626,0.34711838,2.4698563,-2.763382,3.987854,1.893567,2.8504395,91.0
627,1.204977,2.3338928,-2.8426514,3.987854,1.893567,2.8504395,91.0
628,1.204977,2.3338928,-2.8426514,3.7648315,2.0231323,3.0023072,91.0
629,2.013237,2.023426,-2.846939,3.7648315,2.0231323,3.0023072,91.0
630,2.013237,2.023426,-2.846939,3.524817,2.1877441,3.1053224,91.0
631,2.6671448,1.5314598,-2.7727509,3.524817,2.1877441,3.1053224,91.0
632,2.6671448,1.5314598,-2.7727509,3.2625,2.3183715,3.079834,91.0
633,3.1774406,0.91950417,-2.637741,3.2625,2.3183715,3.079834,91.0
634,3.1774406,0.91950417,-2.637741,2.969385,2.3990846,2.893982,91.0
635,3.721506,0.3283882,-2.5211334,2.969385,2.3990846,2.893982,91.0
636,3.721506,0.3283882,-2.5211334,2.537146,2.4734254,2.6868896,91.0
637,4.079012,-0.06552315,-2.5383148,2.537146,2.4734254,2.6868896,91.0
638,4.079012,-0.06552315,-2.5383148,1.8723267,2.546704,2.3651001,91.0
639,3.7419443,-0.17071724,-2.6575623,1.8723267,2.546704,2.3651001,91.0
640,3.7419443,-0.17071724,-2.6575623,1.0354614,2.6465333,2.1505737,91.0
641,2.9479256,-0.12860107,-2.5471802,1.0354614,2.6465333,2.1505737,91.0
642,2.9479256,-0.12860107,-2.5471802,0.20921631,2.7474244,2.0634887,91.0
643,2.366787,-0.1877327,-2.0835114,0.20921631,2.7474244,2.0634887,91.0
644,2.366787,-0.1877327,-2.0835114,-0.4598511,2.7421143,2.0539308,91.0
645,2.2783527,-0.19894028,-1.6785278,-0.4598511,2.7421143,2.0539308,91.0
646,2.2783527,-0.19894028,-1.6785278,-1.0482056,2.7803466,2.2397828,91.0
647,2.1740246,0.14704895,-1.4592438,-1.0482056,2.7803466,2.2397828,91.0
648,2.1740246,0.14704895,-1.4592438,-1.811792,2.6900756,2.5679443,91.0
649,2.1740246,0.14704895,-1.4592438,-1.811792,2.6900756,2.5679443,91.0
650,1.4727287,0.47362137,-0.9716644,-1.811792,2.6900756,2.5679443,91.0
651,1.4727287,0.47362137,-0.9716644,-2.4351928,2.3013794,2.8207033,91.0
652,0.3791237,0.22806549,-0.0076904297,-2.4351928,2.3013794,2.8207033,91.0
653,0.3791237,0.22806549,-0.0076904297,-2.6210449,1.7650635,3.003369,91.0
654,-0.6434784,-0.47756958,1.2018127,-2.6210449,1.7650635,3.003369,91.0
655,-0.6434784,-0.47756958,1.2018127,-2.436255,1.2043213,2.9322145,91.0
656,-1.1971188,-1.3594112,2.3751526,-2.436255,1.2043213,2.9322145,91.0
657,-1.1971188,-1.3594112,2.3751526,-1.9094971,0.4725952,2.7261841,91.0
658,-1.1965256,-2.0547523,3.0193634,-1.9094971,0.4725952,2.7261841,91.0
659,-1.1965256,-2.0547523,3.0193634,-0.9866089,-0.20390625,2.2440307,91.0
660,-1.0518379,-2.0958786,2.8145447,-0.9866089,-0.20390625,2.2440307,91.0
661,-1.0518379,-2.0958786,2.8145447,-0.0010620117,-0.8315552,1.5016845,91.0
662,-1.2775307,-1.3969421,2.0849,-0.0010620117,-0.8315552,1.5016845,91.0
663,-1.2775307,-1.3969421,2.0849,0.56180423,-1.2892822,0.9324463,91.0
664,-1.8173485,-0.6871586,1.395935,0.56180423,-1.2892822,0.9324463,91.0
665,-1.8173485,-0.6871586,1.395935,0.88996583,-1.7852417,0.22302246,91.0
666,-2.2894373,-0.455122,1.14505,0.88996583,-1.7852417,0.22302246,91.0
667,-2.2894373,-0.455122,1.14505,1.084314,-2.2514648,-0.2527588,91.0
668,-2.4729557,-0.4489746,1.2484283,1.084314,-2.2514648,-0.2527588,91.0
669,-2.4729557,-0.4489746,1.2484283,1.1979493,-2.7421143,-0.7497803,91.0
670,-2.3064165,-0.4848137,1.3180084,1.1979493,-2.7421143,-0.7497803,91.0
671,-2.3064165,-0.4848137,1.3180084,1.4156617,-3.243384,-1.1544068,91.0
672,-1.8234901,-0.35168076,1.0568695,1.4156617,-3.243384,-1.1544068,91.0
673,-1.8234901,-0.35168076,1.0568695,1.5951416,-3.5938478,-1.448584,91.0
674,-1.162674,-0.099191666,0.39839172,1.5951416,-3.5938478,-1.448584,91.0
675,-1.162674,-0.099191666,0.39839172,1.8202881,-3.798816,-1.632312,91.0
676,-0.5009527,0.09095764,-0.52098083,1.8202881,-3.798816,-1.632312,91.0
677,-0.5009527,0.09095764,-0.52098083,2.0093262,-3.8487306,-1.7342652,91.0
678,-0.071697235,0.20062256,-1.3317108,2.0093262,-3.8487306,-1.7342652,91.0
679,-0.071697235,0.20062256,-1.3317108,2.0603027,-3.7542114,-1.8287842,91.0
680,0.06897259,0.3055172,-1.8486176,2.0603027,-3.7542114,-1.8287842,91.0
681,0.06897259,0.3055172,-1.8486176,1.9328613,-3.5651734,-2.0072021,91.0
682,0.05993843,0.428154,-2.1825714,1.9328613,-3.5651734,-2.0072021,91.0
683,0.05993843,0.428154,-2.1825714,1.4857544,-3.0161133,-2.2004883,91.0
684,-0.15362358,0.53551674,-2.3562927,1.4857544,-3.0161133,-2.2004883,91.0
685,-0.15362358,0.53551674,-2.3562927,0.7965088,-2.52334,-2.4723632,91.0
686,-0.42630482,0.5473099,-2.1568909,0.7965088,-2.52334,-2.4723632,91.0
687,-0.42630482,0.5473099,-2.1568909,0.24107666,-2.1590698,-2.7707887,91.0
688,-0.43353653,0.3830986,-1.5293121,0.24107666,-2.1590698,-2.7707887,91.0
689,-0.43353653,0.3830986,-1.5293121,-0.011682129,-1.8245362,-2.9640749,91.0
690,-0.21260071,0.0690155,-0.65919495,-0.011682129,-1.8245362,-2.9640749,91.0
691,-0.21260071,0.0690155,-0.65919495,-0.059472658,-1.5654052,-3.0532837,91.0
692,0.05034256,-0.36956787,0.23683167,-0.059472658,-1.5654052,-3.0532837,91.0
693,0.05034256,-0.36956787,0.23683167,0.04885254,-1.3625611,-3.0320435,91.0
694,0.15926838,-0.79829216,0.9449463,0.04885254,-1.3625611,-3.0320435,91.0
695,0.15926838,-0.79829216,0.9449463,0.31435546,-1.2000732,-2.909912,91.0
696,-0.1157856,-0.9737282,1.2509155,0.31435546,-1.2000732,-2.909912,91.0
697,-0.1157856,-0.9737282,1.2509155,0.52675784,-1.088562,-2.732556,91.0
698,-0.73199654,-0.7676296,1.0345001,0.52675784,-1.088562,-2.732556,91.0
699,-0.73199654,-0.7676296,1.0345001,0.5129517,-0.9834229,-2.4946656,91.0
700,-1.3227797,-0.29952812,0.44866943,0.5129517,-0.9834229,-2.4946656,91.0
701,-1.3227797,-0.29952812,0.44866943,0.23045655,-0.83474123,-2.1548219,91.0
702,-1.6057453,0.13477898,-0.25553894,0.23045655,-0.83474123,-2.1548219,91.0
703,-1.6057453,0.13477898,-0.25553894,-0.2516968,-0.57561034,-1.7767457,91.0
704,-1.6086807,0.30532074,-0.82829285,-0.2516968,-0.57561034,-1.7767457,91.0
705,-1.6086807,0.30532074,-0.82829285,-0.7391602,-0.31860352,-1.4092896,91.0
706,-1.4380188,0.18151283,-1.1240845,-0.7391602,-0.31860352,-1.4092896,91.0
707,-1.4380188,0.18151283,-1.1240845,-1.1565307,-0.04141846,-1.0089111,91.0
708,-1.2210207,-0.16251755,-1.2268372,-1.1565307,-0.04141846,-1.0089111,91.0
709,-1.2210207,-0.16251755,-1.2268372,-1.4305298,0.20390625,-0.6510132,91.0
710,-0.9392557,-0.54598045,-1.2960815,-1.4305298,0.20390625,-0.6510132,91.0
711,-0.9392557,-0.54598045,-1.2960815,-1.4953126,0.39294434,-0.3717041,91.0
712,-0.23308182,-0.8434868,-1.2748566,-1.4953126,0.39294434,-0.3717041,91.0
713,-0.23308182,-0.8434868,-1.2748566,-1.3083985,0.53950197,-0.1731079,91.0
714,1.1007414,-1.1543064,-0.82688904,-1.3083985,0.53950197,-0.1731079,91.0
715,1.1007414,-1.1543064,-0.82688904,-0.8071289,0.6138428,-0.04991455,91.0
716,2.0883446,-1.4799385,-0.091918945,-0.8071289,0.6138428,-0.04991455,91.0
717,2.0883446,-1.4799385,-0.091918945,-0.22302246,0.8517334,0.18479005,91.0
718,1.5742283,-1.5964012,0.17555237,-0.22302246,0.8517334,0.18479005,91.0
719,1.5742283,-1.5964012,0.17555237,0.31223145,0.9122681,0.35471192,91.0
720,0.29346466,-1.4169655,-0.33859253,0.31223145,0.9122681,0.35471192,91.0
721,0.29346466,-1.4169655,-0.33859253,0.8071289,0.9420044,0.5533081,91.0
722,-0.5001278,-1.0682659,-1.1685638,0.8071289,0.9420044,0.5533081,91.0
723,-0.5001278,-1.0682659,-1.1685638,1.2244996,1.0174073,0.8442993,91.0
724,-0.649992,-0.630785,-1.7511292,1.2244996,1.0174073,0.8442993,91.0
725,-0.649992,-0.630785,-1.7511292,1.5229248,1.1586548,1.2255615,91.0
726,-0.63715744,-0.16311264,-1.9364166,1.5229248,1.1586548,1.2255615,91.0
727,-0.63715744,-0.16311264,-1.9364166,1.6928467,1.3158325,1.6716064,91.0
728,-0.77414227,0.22278214,-1.8560181,1.6928467,1.3158325,1.6716064,91.0
729,-0.77414227,0.22278214,-1.8560181,1.721521,1.4082276,2.1165893,91.0
730,-0.78778267,0.38179016,-1.6382294,1.721521,1.4082276,2.1165893,91.0
731,-0.78778267,0.38179016,-1.6382294,1.5962037,1.4528321,2.5944946,91.0
732,-0.3760395,0.27972412,-1.3417206,1.5962037,1.4528321,2.5944946,91.0
733,-0.3760395,0.27972412,-1.3417206,1.3997315,1.4889405,3.0139892,91.0
734,-0.3760395,0.27972412,-1.3417206,1.3997315,1.4889405,3.0139892,92.0
735,0.39217377,0.07243538,-1.0657501,1.3997315,1.4889405,3.0139892,92.0
736,0.39217377,0.07243538,-1.0657501,1.269104,1.3806152,3.353833,92.0
737,1.2966614,-0.056274414,-0.84935,1.269104,1.3806152,3.353833,92.0
738,1.2966614,-0.056274414,-0.84935,1.1639649,1.3965454,3.7605836,92.0
739,1.9533691,-0.30366325,-0.6813202,1.1639649,1.3965454,3.7605836,92.0
740,1.9533691,-0.30366325,-0.6813202,1.1023682,1.1979493,3.8370483,92.0
741,2.4360466,-0.72735405,-0.5499573,1.1023682,1.1979493,3.8370483,92.0
742,2.4360466,-0.72735405,-0.5499573,1.176709,1.174585,3.9443116,92.0
743,2.7894135,-1.2673683,-0.39694214,1.176709,1.174585,3.9443116,92.0
744,2.7894135,-1.2673683,-0.39694214,1.454956,1.0343994,3.7584596,92.0
745,2.7501345,-1.8306675,-0.22293091,1.454956,1.0343994,3.7584596,92.0
746,2.7501345,-1.8306675,-0.22293091,1.8202881,0.8517334,3.4175537,92.0
747,2.472373,-1.950386,-0.18008423,1.8202881,0.8517334,3.4175537,92.0
748,2.472373,-1.950386,-0.18008423,2.0029542,0.7805786,3.1541748,92.0
749,1.9902887,-1.715498,-0.22703552,2.0029542,0.7805786,3.1541748,92.0
750,1.9902887,-1.715498,-0.22703552,2.0167603,0.6531372,2.812207,92.0
751,1.3745184,-1.4171486,-0.24829102,2.0167603,0.6531372,2.812207,92.0
752,1.3745184,-1.4171486,-0.24829102,1.9169312,0.6414551,2.6507814,92.0
753,0.9258728,-1.0202293,-0.2855072,1.9169312,0.6414551,2.6507814,92.0
754,0.9258728,-1.0202293,-0.2855072,1.6716064,0.6202149,2.4946656,92.0
755,0.7629509,-0.6128864,-0.3096161,1.6716064,0.6202149,2.4946656,92.0
756,0.7629509,-0.6128864,-0.3096161,1.2977784,0.5809204,2.3587282,92.0
757,0.7089081,-0.3659687,-0.25201416,1.2977784,0.5809204,2.3587282,92.0
758,0.7089081,-0.3659687,-0.25201416,0.86978763,0.4980835,2.2026124,92.0
759,0.5332031,-0.31489372,-0.06642151,0.86978763,0.4980835,2.2026124,92.0
760,0.5332031,-0.31489372,-0.06642151,0.51826173,0.36533204,1.9732178,92.0
761,0.050720215,-0.046396255,0.06947327,0.51826173,0.36533204,1.9732178,92.0
762,0.050720215,-0.046396255,0.06947327,0.2081543,0.22302246,1.5930176,92.0
763,-0.67386436,0.6655197,-0.045669556,0.2081543,0.22302246,1.5930176,92.0
764,-0.67386436,0.6655197,-0.045669556,-0.23895264,0.04460449,1.174585,92.0
765,-1.1728325,1.325531,-0.3162079,-0.23895264,0.04460449,1.174585,92.0
766,-1.1728325,1.325531,-0.3162079,-0.77526855,-0.0637207,0.81031495,92.0
767,-1.2471409,1.2155876,-0.33711243,-0.77526855,-0.0637207,0.81031495,92.0
768,-1.2471409,1.2155876,-0.33711243,-1.2521118,-0.40037844,0.26550293,92.0
769,-1.211422,0.10267067,0.15734863,-1.2521118,-0.40037844,0.26550293,92.0
770,-1.211422,0.10267067,0.15734863,-1.4910644,-0.92501223,-0.5501221,92.0
771,-1.1885471,-1.2075253,0.9449768,-1.4910644,-0.92501223,-0.5501221,92.0
772,-1.1885471,-1.2075253,0.9449768,-1.3742431,-1.4655762,-1.3944215,92.0
773,-1.2333813,-1.6497364,1.57901,-1.3742431,-1.4655762,-1.3944215,92.0
774,-1.2333813,-1.6497364,1.57901,-0.8889038,-2.1261475,-1.9944581,92.0
775,-1.3628283,-1.2490482,1.8401947,-0.8889038,-2.1261475,-1.9944581,92.0
776,-1.3628283,-1.2490482,1.8401947,-0.3525879,-2.536084,-2.538208,92.0
777,-1.4866858,-0.72992706,1.6467133,-0.3525879,-2.536084,-2.538208,92.0
778,-1.4866858,-0.72992706,1.6467133,0.39613038,-2.9449584,-2.8865478,92.0
779,-1.4276419,-0.15934372,0.8977356,0.39613038,-2.9449584,-2.8865478,92.0
780,-1.4276419,-0.15934372,0.8977356,0.92501223,-3.178601,-3.0426636,92.0
781,-1.1387196,0.7228298,-0.3337555,0.92501223,-3.178601,-3.0426636,92.0
782,-1.1387196,0.7228298,-0.3337555,0.904834,-2.9821289,-2.7633545,92.0
783,-0.99864674,1.5511646,-1.6149445,0.904834,-2.9821289,-2.7633545,92.0
784,-0.99864674,1.5511646,-1.6149445,0.27506104,-2.4574952,-2.532898,92.0
785,-1.3341961,1.8516979,-2.4478455,0.27506104,-2.4574952,-2.532898,92.0
786,-1.3341961,1.8516979,-2.4478455,-0.72216797,-1.8818848,-2.4288208,92.0
787,-1.788805,1.6201038,-2.639679,-0.72216797,-1.8818848,-2.4288208,92.0
788,-1.788805,1.6201038,-2.639679,-1.720459,-1.3307008,-2.444751,92.0
789,-1.8108292,1.0268078,-2.1615295,-1.720459,-1.3307008,-2.444751,92.0
790,-1.8108292,1.0268078,-2.1615295,-2.4288208,-1.0715698,-2.6518433,92.0
791,-1.0679502,0.34645844,-1.1746521,-2.4288208,-1.0715698,-2.6518433,92.0
792,-1.0679502,0.34645844,-1.1746521,-2.8185792,-0.6690674,-2.7899048,92.0
793,0.074643135,-0.36101723,0.056365967,-2.8185792,-0.6690674,-2.7899048,92.0
794,0.074643135,-0.36101723,0.056365967,-2.8430054,-0.27506104,-2.8918579,92.0
795,0.76705074,-1.1119709,1.2658997,-2.8430054,-0.27506104,-2.8918579,92.0
796,0.76705074,-1.1119709,1.2658997,-2.541394,-0.2888672,-3.1180665,92.0
797,0.7980766,-1.5437508,2.0606384,-2.541394,-0.2888672,-3.1180665,92.0
798,0.7980766,-1.5437508,2.0606384,-2.079419,-0.43117675,-3.2816162,92.0
799,0.4014864,-1.432375,2.296524,-2.079419,-0.43117675,-3.2816162,92.0
800,0.4014864,-1.432375,2.296524,-1.627002,-0.6690674,-3.43136,92.0
801,-0.19844055,-0.95498085,2.160675,-1.627002,-0.6690674,-3.43136,92.0
802,-0.19844055,-0.95498085,2.160675,-1.1968873,-0.93563235,-3.5141969,92.0
803,-0.8239746,-0.28888702,1.8558807,-1.1968873,-0.93563235,-3.5141969,92.0
804,-0.8239746,-0.28888702,1.8558807,-0.901648,-1.2754761,-3.3931274,92.0
805,-1.246582,0.46411705,1.4385223,-0.901648,-1.2754761,-3.3931274,92.0
806,-1.246582,0.46411705,1.4385223,-0.8612915,-1.3859253,-3.0182374,92.0
807,-1.3946772,1.0638714,0.971405,-0.8612915,-1.3859253,-3.0182374,92.0
808,-1.3946772,1.0638714,0.971405,-1.1087402,-1.3678712,-2.5148437,92.0
809,-1.295784,1.2436886,0.5982208,-1.1087402,-1.3678712,-2.5148437,92.0
810,-1.295784,1.2436886,0.5982208,-1.3179566,-1.26167,-2.0284424,92.0
811,-0.9819889,0.95141983,0.44154358,-1.3179566,-1.26167,-2.0284424,92.0
812,-0.9819889,0.95141983,0.44154358,-1.3668091,-1.0970582,-1.5335449,92.0
813,-0.74413586,0.36280823,0.46879578,-1.3668091,-1.0970582,-1.5335449,92.0
814,-0.74413586,0.36280823,0.46879578,-1.2043213,-0.7848267,-1.0333375,92.0
815,-0.89284325,-0.18734169,0.43850708,-1.2043213,-0.7848267,-1.0333375,92.0
816,-0.89284325,-0.18734169,0.43850708,-0.9324463,-0.5097656,-0.57561034,92.0
817,-1.0974045,-0.5274372,0.31954956,-0.9324463,-0.5097656,-0.57561034,92.0
818,-1.0974045,-0.5274372,0.31954956,-0.54693604,-0.36639404,-0.23895264,92.0
819,-0.7283516,-0.77506256,0.3799591,-0.54693604,-0.36639404,-0.23895264,92.0
820,-0.7283516,-0.77506256,0.3799591,0.047790527,-0.19222413,0.09770508,92.0
821,0.10902977,-0.9377003,0.65371704,0.047790527,-0.19222413,0.09770508,92.0
822,0.10902977,-0.9377003,0.65371704,0.74022216,0.12850343,0.45772704,92.0
823,0.6029701,-0.788929,0.6785126,0.74022216,0.12850343,0.45772704,92.0
824,0.6029701,-0.788929,0.6785126,1.3147706,0.5097656,0.8527954,92.0
825,0.5135765,-0.36258888,0.16899109,1.3147706,0.5097656,0.8527954,92.0
826,0.5135765,-0.36258888,0.16899109,1.811792,0.8092529,1.1692749,92.0
827,0.5155487,0.048210144,-0.61839294,1.811792,0.8092529,1.1692749,92.0
828,0.5155487,0.048210144,-0.61839294,2.2514648,1.177771,1.4793824,92.0
829,0.8521843,0.3501892,-1.3417511,2.2514648,1.177771,1.4793824,92.0
830,0.8521843,0.3501892,-1.3417511,2.5190918,1.5887696,1.8054199,92.0
831,1.1945896,0.56622314,-1.8560028,2.5190918,1.5887696,1.8054199,92.0
832,1.1945896,0.56622314,-1.8560028,2.5658205,2.0305665,2.1643798,92.0
833,1.2528028,0.73535156,-2.1332703,2.5658205,2.0305665,2.1643798,92.0
834,1.2528028,0.73535156,-2.1332703,2.3704102,2.3905885,2.537146,92.0
835,1.2528028,0.73535156,-2.1332703,2.3704102,2.3905885,2.537146,92.0
836,1.2179403,0.8508434,-2.155182,2.3704102,2.3905885,2.537146,92.0
837,1.2179403,0.8508434,-2.155182,2.0295045,2.6390991,2.8918579,92.0
838,1.4714355,0.8462391,-1.8869324,2.0295045,2.6390991,2.8918579,92.0
839,1.4714355,0.8462391,-1.8869324,1.6716064,2.9311523,3.344275,92.0
840,1.8089724,0.6900654,-1.412735,1.6716064,2.9311523,3.344275,92.0
841,1.8089724,0.6900654,-1.412735,1.3466309,2.9311523,3.7265992,92.0
842,2.1542578,0.4210968,-0.9262085,1.3466309,2.9311523,3.7265992,92.0
843,2.1542578,0.4210968,-0.9262085,0.9855469,2.8578737,4.068567,92.0
844,2.540557,0.047166824,-0.57424927,0.9855469,2.8578737,4.068567,92.0
845,2.540557,0.047166824,-0.57424927,0.72323,2.6890137,4.2884035,92.0
846,2.8710442,-0.3910389,-0.36354065,0.72323,2.6890137,4.2884035,92.0
847,2.8710442,-0.3910389,-0.36354065,0.56817627,2.5020998,4.433899,92.0
848,3.116171,-0.74886703,-0.30651855,0.56817627,2.5020998,4.433899,92.0
849,3.116171,-0.74886703,-0.30651855,0.4598511,2.2365968,4.331946,92.0
850,3.1100998,-1.0254612,-0.41246033,0.4598511,2.2365968,4.331946,92.0
851,3.1100998,-1.0254612,-0.41246033,0.31435546,2.0337524,4.056885,92.0
852,2.6522522,-1.2935371,-0.5305023,0.31435546,2.0337524,4.056885,92.0
853,2.6522522,-1.2935371,-0.5305023,0.2442627,1.8404664,3.7775757,92.0
854,1.8875618,-1.3815575,-0.52523804,0.2442627,1.8404664,3.7775757,92.0
855,1.8875618,-1.3815575,-0.52523804,0.1996582,1.717273,3.519507,92.0
856,1.546793,-1.1075172,-0.49327087,0.1996582,1.717273,3.519507,92.0
857,1.546793,-1.1075172,-0.49327087,-0.07540283,1.4007934,3.3102906,92.0
858,1.6185856,-0.47856712,-0.5977478,-0.07540283,1.4007934,3.3102906,92.0
859,1.6185856,-0.47856712,-0.5977478,0.0010620117,1.2032593,3.173291,92.0
860,0.89945793,0.81082344,-0.8158417,0.0010620117,1.2032593,3.173291,92.0
861,0.89945793,0.81082344,-0.8158417,-0.36320803,0.9611206,3.1021364,92.0
862,-0.772316,2.4013329,-0.7285614,-0.36320803,0.9611206,3.1021364,92.0
863,-0.772316,2.4013329,-0.7285614,-1.09281,0.30267334,2.71344,92.0
864,-2.4273624,3.2282677,-0.21458435,-1.09281,0.30267334,2.71344,92.0
865,-2.4273624,3.2282677,-0.21458435,-1.8712647,-0.56392825,2.086853,92.0
866,-3.416645,3.0837994,0.080337524,-1.8712647,-0.56392825,2.086853,92.0
867,-3.416645,3.0837994,0.080337524,-2.6879518,-1.4114136,1.4284058,92.0
868,-3.596426,2.3961525,-0.25448608,-2.6879518,-1.4114136,1.4284058,92.0
869,-3.596426,2.3961525,-0.25448608,-2.8780518,-1.8457764,0.6053467,92.0
870,-3.3475513,1.4399433,-0.8001709,-2.8780518,-1.8457764,0.6053467,92.0
871,-3.3475513,1.4399433,-0.8001709,-2.5934327,-2.1250856,-0.0998291,92.0
872,-2.9006004,0.4381733,-1.0643158,-2.5934327,-2.1250856,-0.0998291,92.0
873,-2.9006004,0.4381733,-1.0643158,-2.177124,-2.2217286,-0.9696167,92.0
874,-2.2313194,-0.29050064,-0.9800415,-2.177124,-2.2217286,-0.9696167,92.0
875,-2.2313194,-0.29050064,-0.9800415,-2.2217286,-2.163318,-1.7863038,92.0
876,-1.4427338,-0.9250393,-0.7187958,-2.2217286,-2.163318,-1.7863038,92.0
877,-1.4427338,-0.9250393,-0.7187958,-2.3778443,-1.8479004,-2.6104248,92.0
878,-0.6543579,-1.726471,-0.48402405,-2.3778443,-1.8479004,-2.6104248,92.0
879,-0.6543579,-1.726471,-0.48402405,-2.1495118,-1.6556762,-3.0416017,92.0
880,0.11237812,-2.5676384,-0.31739807,-2.1495118,-1.6556762,-3.0416017,92.0
881,0.11237812,-2.5676384,-0.31739807,-1.5940796,-1.4156617,-3.1276245,92.0
882,0.59904575,-3.0752296,-0.21665955,-1.5940796,-1.4156617,-3.1276245,92.0
883,0.59904575,-3.0752296,-0.21665955,-1.3848633,-1.2457398,-2.8345094,92.0
884,0.50847244,-2.7793846,-0.121414185,-1.3848633,-1.2457398,-2.8345094,92.0
885,0.50847244,-2.7793846,-0.121414185,-1.8340943,-1.1321045,-2.3088136,92.0
886,-0.012655258,-2.009653,-0.03744507,-1.8340943,-1.1321045,-2.3088136,92.0
887,-0.012655258,-2.009653,-0.03744507,-2.6943238,-1.0343994,-1.724707,92.0
888,-0.60518074,-0.55106926,0.13249207,-2.6943238,-1.0343994,-1.724707,92.0
889,-0.60518074,-0.55106926,0.13249207,-4.7408204,-0.6595093,-0.47365722,92.0
890,-0.89453316,0.6463146,0.8249817,-4.7408204,-0.6595093,-0.47365722,92.0
891,-0.89453316,0.6463146,0.8249817,-6.779883,-0.08602295,0.63614506,92.0
892,-1.2927141,-0.07269478,1.9595184,-6.779883,-0.08602295,0.63614506,92.0
893,-1.2927141,-0.07269478,1.9595184,-7.4553223,0.25700685,1.171399,92.0
894,-2.572672,-1.9829121,1.769455,-7.4553223,0.25700685,1.171399,92.0
895,-2.572672,-1.9829121,1.769455,-4.7238283,-0.010620117,0.8581055,92.0
896,-3.8248863,-1.3557758,0.5836029,-4.7238283,-0.010620117,0.8581055,92.0
897,-3.8248863,-1.3557758,0.5836029,-4.414783,-0.17947999,0.60109866,92.0
898,-3.982297,1.7173691,0.17173767,-4.414783,-0.17947999,0.60109866,92.0
899,-3.982297,1.7173691,0.17173767,-4.7493167,-0.027612304,0.72004396,92.0
900,-3.3759623,2.6128845,0.6774597,-4.7493167,-0.027612304,0.72004396,92.0
901,-3.3759623,2.6128845,0.6774597,-3.8423584,0.26337892,0.84323734,92.0
902,-2.7994394,1.18684,1.0828552,-3.8423584,0.26337892,0.84323734,92.0
903,-2.7994394,1.18684,1.0828552,-2.89823,0.14974366,0.72854006,92.0
904,-2.0833507,0.02361679,1.5124817,-2.89823,0.14974366,0.72854006,92.0
905,-2.0833507,0.02361679,1.5124817,-2.51803,0.30373535,0.44604492,92.0
906,-1.43255,-0.475235,1.7483673,-2.51803,0.30373535,0.44604492,92.0
907,-1.43255,-0.475235,1.7483673,-1.0428956,0.32497558,0.21240234,92.0
908,-1.4190135,-0.25595665,1.134964,-1.0428956,0.32497558,0.21240234,92.0
909,-1.4190135,-0.25595665,1.134964,-0.4067505,-0.06584473,-0.115759276,92.0
910,-1.0982361,-0.34513283,0.49484253,-0.4067505,-0.06584473,-0.115759276,92.0
911,-1.0982361,-0.34513283,0.49484253,1.354065,0.052038576,-0.48640138,92.0
912,-0.58330107,0.58992195,0.61846924,1.354065,0.052038576,-0.48640138,92.0
913,-0.58330107,0.58992195,0.61846924,2.342798,-0.23682861,-1.1597168,92.0
914,0.024497032,2.743946,1.427124,2.342798,-0.23682861,-1.1597168,92.0
915,0.024497032,2.743946,1.427124,1.2510499,-0.48746338,-0.88359374,92.0
916,0.69619656,3.0496254,1.9171448,1.2510499,-0.48746338,-0.88359374,92.0
917,0.69619656,3.0496254,1.9171448,1.6684204,-0.60109866,-1.0036011,92.0
918,1.1277337,1.6336823,1.5573578,1.6684204,-0.60109866,-1.0036011,92.0
919,1.1277337,1.6336823,1.5573578,1.5622193,-0.5129517,-0.81668705,92.0
920,1.01122,-0.09494591,0.8440857,1.5622193,-0.5129517,-0.81668705,92.0
921,1.01122,-0.09494591,0.8440857,3.5556152,-0.1444336,-1.3147706,92.0
922,0.2378335,0.3442955,0.60398865,3.5556152,-0.1444336,-1.3147706,92.0
923,0.2378335,0.3442955,0.60398865,4.520984,0.66588134,-2.2886353,92.0
924,-1.1050582,3.041256,1.0175781,4.520984,0.66588134,-2.2886353,92.0
925,-1.1050582,3.041256,1.0175781,6.1224976,1.5303589,-3.7913818,92.0
926,-1.6207895,5.3603115,2.0836487,6.1224976,1.5303589,-3.7913818,92.0
927,-1.6207895,5.3603115,2.0836487,4.6388674,1.6482422,-4.174768,92.0
928,1.2146964,3.8182182,2.453598,4.6388674,1.6482422,-4.174768,92.0
929,1.2146964,3.8182182,2.453598,2.1495118,2.085791,-3.719165,92.0
930,6.1647873,-2.7060204,0.030426025,2.1495118,2.085791,-3.719165,92.0
931,6.1647873,-2.7060204,0.030426025,-0.13381349,2.2992554,-2.0337524,92.0
932,8.451764,-10.010593,-5.0698395,-0.13381349,2.2992554,-2.0337524,92.0
933,8.451764,-10.010593,-5.0698395,-0.6669434,2.0390625,-0.452417,92.0
934,5.201768,-12.857584,-9.767044,-0.6669434,2.0390625,-0.452417,92.0
935,5.201768,-12.857584,-9.767044,0.58198243,0.91014403,0.46516114,92.0
936,0.08927059,-10.201387,-10.539734,0.58198243,0.91014403,0.46516114,92.0
937,0.08927059,-10.201387,-10.539734,2.1781862,-0.8687256,1.0726318,92.0
938,-1.6688051,-4.27372,-6.53154,2.1781862,-0.8687256,1.0726318,92.0
939,-1.6688051,-4.27372,-6.53154,2.9247804,-1.8436524,1.7958618,92.0
940,-0.3986063,2.0712223,-0.92523193,2.9247804,-1.8436524,1.7958618,92.0
941,-0.3986063,2.0712223,-0.92523193,2.6762695,-2.3905885,2.1526978,92.0
942,0.42604923,6.927841,3.015625,2.6762695,-2.3905885,2.1526978,92.0
943,0.42604923,6.927841,3.015625,1.9657837,-2.1537597,2.0560548,92.0
944,-0.8511038,8.271021,4.027649,1.9657837,-2.1537597,2.0560548,92.0
945,-0.8511038,8.271021,4.027649,1.898877,-1.8733886,1.3179566,92.0
946,-2.4677124,6.062641,3.0935364,1.898877,-1.8733886,1.3179566,92.0
947,-2.4677124,6.062641,3.0935364,2.151636,-0.991919,0.4694092,92.0
948,-2.4133186,4.0685825,2.1768036,2.151636,-0.991919,0.4694092,92.0
949,-2.4133186,4.0685825,2.1768036,2.0932252,-0.74447024,0.24532472,92.0
950,-2.4133186,4.0685825,2.1768036,2.0932252,-0.74447024,0.24532472,93.0
951,-1.8164463,2.334383,0.3959961,2.0932252,-0.74447024,0.24532472,93.0
952,-1.8164463,2.334383,0.3959961,1.8011719,0.087084964,-0.0541626,93.0
953,-1.6559887,1.7819595,-0.4446106,1.8011719,0.087084964,-0.0541626,93.0
954,-1.6559887,1.7819595,-0.4446106,1.6206299,0.04991455,-0.2623169,93.0
955,-2.7378035,1.8849792,-1.5136414,1.6206299,0.04991455,-0.2623169,93.0
956,-2.7378035,1.8849792,-1.5136414,0.30161133,-0.30479738,-0.24001466,93.0
957,-2.3379354,1.5910034,-1.3524323,0.30161133,-0.30479738,-0.24001466,93.0
958,-2.3379354,1.5910034,-1.3524323,-0.5256958,-0.43011475,0.14124756,93.0
959,-0.833117,-1.3012695,-2.0389557,-0.5256958,-0.43011475,0.14124756,93.0
960,-0.833117,-1.3012695,-2.0389557,-2.171814,0.0998291,1.0535157,93.0
961,-0.67771196,-3.9141235,-2.42247,-2.171814,0.0998291,1.0535157,93.0
962,-0.67771196,-3.9141235,-2.42247,-1.4071655,0.035046387,0.8496094,93.0
963,-1.4986391,-4.252075,-2.5776367,-1.4071655,0.035046387,0.8496094,93.0
964,-1.4986391,-4.252075,-2.5776367,-0.18797608,-0.22408448,0.41737062,93.0
965,-1.7589941,-3.3189583,-2.2854767,-0.18797608,-0.22408448,0.41737062,93.0
966,-1.7589941,-3.3189583,-2.2854767,0.29417726,-0.32709962,0.22089843,93.0
967,-1.8805227,-1.3461952,-2.046051,0.29417726,-0.32709962,0.22089843,93.0
968,-1.8805227,-1.3461952,-2.046051,1.4071655,-0.54906005,-0.31329346,93.0
969,-1.3592033,-0.9971714,-1.6544647,1.4071655,-0.54906005,-0.31329346,93.0
970,-1.3592033,-0.9971714,-1.6544647,1.9126831,-0.50020754,-0.38444826,93.0
971,-0.59063435,0.60219,-0.16690063,1.9126831,-0.50020754,-0.38444826,93.0
972,-0.59063435,0.60219,-0.16690063,2.182434,-0.5522461,-0.12213135,93.0
973,-0.4043069,1.2132835,0.6611023,2.182434,-0.5522461,-0.12213135,93.0
974,-0.4043069,1.2132835,0.6611023,1.531421,-0.63614506,0.14974366,93.0
975,0.5525799,2.5414639,2.6137695,1.531421,-0.63614506,0.14974366,93.0
976,0.5525799,2.5414639,2.6137695,-0.9143921,-0.5150757,0.901648,93.0
977,0.95342875,1.7105999,2.298767,-0.9143921,-0.5150757,0.901648,93.0
978,0.95342875,1.7105999,2.298767,-1.5250489,-0.2888672,1.0981201,93.0
979,2.388402,-1.66465,1.20755,-1.5250489,-0.2888672,1.0981201,93.0
980,2.388402,-1.66465,1.20755,-1.5558472,1.4974365,1.1076783,93.0
981,2.388402,-1.66465,1.20755,-1.3360108,2.1293335,1.1406006,93.0
982,2.4642372,-1.775507,0.926239,-1.3360108,2.1293335,1.1406006,93.0
983,1.9969268,-1.4650707,1.5226135,-1.3360108,2.1293335,1.1406006,93.0
984,1.9969268,-1.4650707,1.5226135,-1.2903442,2.8419435,1.0354614,93.0
985,1.8032789,-0.9579334,1.6550751,-1.2903442,2.8419435,1.0354614,93.0
986,1.8032789,-0.9579334,1.6550751,-1.2138795,2.6390991,0.86766356,93.0
987,1.7505579,-0.5718651,2.0032806,-1.2138795,2.6390991,0.86766356,93.0
988,1.7505579,-0.5718651,2.0032806,-0.8241211,1.7512573,0.7763306,93.0
989,1.9482365,0.088624954,1.2126923,-0.8241211,1.7512573,0.7763306,93.0
990,1.9482365,0.088624954,1.2126923,-0.36745605,0.51932377,0.5692383,93.0
991,1.5594444,0.3589611,0.6132965,-0.36745605,0.51932377,0.5692383,93.0
992,1.5594444,0.3589611,0.6132965,-0.21558838,0.25700685,0.51826173,93.0
993,0.780283,0.8036976,0.17590332,-0.21558838,0.25700685,0.51826173,93.0
994,0.780283,0.8036976,0.17590332,-0.045666505,-0.060534667,0.37382814,93.0
995,0.12448311,0.98508453,0.7261963,-0.045666505,-0.060534667,0.37382814,93.0
996,0.12448311,0.98508453,0.7261963,0.15823975,-0.2347046,0.29311523,93.0
997,-0.12905121,1.3407898,1.5955658,0.15823975,-0.2347046,0.29311523,93.0
998,-0.12905121,1.3407898,1.5955658,0.050976563,-0.09239502,0.29948732,93.0
999,-0.24883461,2.372692,2.1398163,0.050976563,-0.09239502,0.29948732,93.0
1000,-0.24883461,2.372692,2.1398163,-1.1108643,0.3164795,0.6945557,93.0
1001,-0.5935745,2.5354958,1.9333191,-1.1108643,0.3164795,0.6945557,93.0
1002,-0.5935745,2.5354958,1.9333191,-1.5632813,0.4970215,0.70198977,93.0
1003,-1.0572815,1.3265038,1.0449371,-1.5632813,0.4970215,0.70198977,93.0
1004,-1.0572815,1.3265038,1.0449371,-1.3774292,0.7858887,0.40356445,93.0
1005,-1.3824825,0.37903786,0.060516357,-1.3774292,0.7858887,0.40356445,93.0
1006,-1.3824825,0.37903786,0.060516357,-1.0513916,0.9834229,-0.098767094,93.0
1007,-1.3175335,0.48910713,-0.42190552,-1.0513916,0.9834229,-0.098767094,93.0
1008,-1.3175335,0.48910713,-0.42190552,-1.4273437,1.2797241,-0.30373535,93.0
1009,-0.73290825,0.58081055,-0.45413208,-1.4273437,1.2797241,-0.30373535,93.0
1010,-0.73290825,0.58081055,-0.45413208,-1.356189,1.5569092,-0.5734863,93.0
1011,0.11959362,0.123168945,-0.3385315,-1.356189,1.5569092,-0.5734863,93.0
1012,0.11959362,0.123168945,-0.3385315,-1.2191895,1.9477295,-0.9218262,93.0
1013,0.9250698,-0.208704,-0.06455994,-1.2191895,1.9477295,-0.9218262,93.0
1014,0.9250698,-0.208704,-0.06455994,-1.0991821,2.081543,-1.2765381,93.0
1015,1.5659227,-0.43195343,0.3053589,-1.0991821,2.081543,-1.2765381,93.0
1016,1.5659227,-0.43195343,0.3053589,-0.93563235,2.1112792,-1.6174439,93.0
1017,1.9184971,-0.5618458,0.8076782,-0.93563235,2.1112792,-1.6174439,93.0
1018,1.9184971,-0.5618458,0.8076782,-0.7614624,2.0188844,-1.9381714,93.0
1019,2.0160847,-0.62140083,1.2676697,-0.7614624,2.0188844,-1.9381714,93.0
1020,2.0160847,-0.62140083,1.2676697,-0.6775635,1.8234742,-2.2461548,93.0
1021,2.0324478,-0.75250435,1.4532318,-0.6775635,1.8234742,-2.2461548,93.0
1022,2.0324478,-0.75250435,1.4532318,-0.5968506,1.2531738,-2.3969605,93.0
1023,1.9535341,-0.91135406,1.5057068,-0.5968506,1.2531738,-2.3969605,93.0
1024,1.9535341,-0.91135406,1.5057068,-0.45772704,0.78164065,-2.5477662,93.0
1025,1.6599827,-0.88101196,1.543045,-0.45772704,0.78164065,-2.5477662,93.0
1026,1.6599827,-0.88101196,1.543045,-0.25063476,0.29523927,-2.4808595,93.0
1027,1.3942089,-0.65273476,1.385086,-0.25063476,0.29523927,-2.4808595,93.0
1028,1.3942089,-0.65273476,1.385086,0.1083252,-0.22302246,-2.4713013,93.0
1029,1.5496321,-0.522665,0.9125824,0.1083252,-0.22302246,-2.4713013,93.0
1030,1.5496321,-0.522665,0.9125824,0.50870365,-0.6159668,-2.2918212,93.0
1031,1.8743496,-0.96291924,0.43025208,0.50870365,-0.6159668,-2.2918212,93.0
1032,1.8743496,-0.96291924,0.43025208,0.96218264,-0.9303223,-2.1505737,93.0
1033,1.7984667,-1.8506565,0.090042114,0.96218264,-0.9303223,-2.1505737,93.0
1034,1.7984667,-1.8506565,0.090042114,1.5006226,-0.98236084,-1.9243653,93.0
1035,1.0545444,-2.1721497,-0.33525085,1.5006226,-0.98236084,-1.9243653,93.0
1036,1.0545444,-2.1721497,-0.33525085,2.0231323,-0.8379273,-1.5887696,93.0
1037,-0.14163017,-1.3656616,-0.9008026,2.0231323,-0.8379273,-1.5887696,93.0
1038,-0.14163017,-1.3656616,-0.9008026,2.3151855,-0.4991455,-0.9696167,93.0
1039,-1.3629017,-0.0569458,-1.3708801,2.3151855,-0.4991455,-0.9696167,93.0
1040,-1.3629017,-0.0569458,-1.3708801,2.4171388,-0.16248779,-0.30267334,93.0
1041,-2.19695,0.9522953,-1.4940491,2.4171388,-0.16248779,-0.30267334,93.0
1042,-2.19695,0.9522953,-1.4940491,2.2928834,0.10301514,0.2442627,93.0
1043,-2.483366,1.3751545,-1.2136536,2.2928834,0.10301514,0.2442627,93.0
1044,-2.483366,1.3751545,-1.2136536,1.9583496,0.3079834,0.7720825,93.0
1045,-2.3812237,1.274477,-0.7110443,1.9583496,0.3079834,0.7720825,93.0
1046,-2.3812237,1.274477,-0.7110443,1.6939087,0.46622315,1.1873292,93.0
1047,-2.067626,0.99733925,-0.24053955,1.6939087,0.46622315,1.1873292,93.0
1048,-2.067626,0.99733925,-0.24053955,1.4400879,0.61065674,1.5983276,93.0
1049,-1.7042475,0.8411331,0.10183716,1.4400879,0.61065674,1.5983276,93.0
1050,-1.7042475,0.8411331,0.10183716,1.1352905,0.65844727,1.9519776,93.0
1051,-1.344904,0.69659996,0.2530365,1.1352905,0.65844727,1.9519776,93.0
1052,-1.344904,0.69659996,0.2530365,0.86341554,0.65207523,2.2376587,93.0
1053,-0.8799639,0.43194962,0.1949768,0.86341554,0.65207523,2.2376587,93.0
1054,-0.8799639,0.43194962,0.1949768,0.7497803,0.6149048,2.3863404,93.0
1055,-0.28198624,0.10930443,0.010391235,0.7497803,0.6149048,2.3863404,93.0
1056,-0.28198624,0.10930443,0.010391235,0.81031495,0.5649902,2.3863404,93.0
1057,-0.28198624,0.10930443,0.010391235,0.81031495,0.5649902,2.3863404,94.0
1058,0.39168453,-0.21608353,-0.18791199,0.81031495,0.5649902,2.3863404,94.0
1059,0.39168453,-0.21608353,-0.18791199,0.9674927,0.54587406,2.256775,94.0
1060,1.0596609,-0.4876976,-0.37445068,0.9674927,0.54587406,2.256775,94.0
1061,1.0596609,-0.4876976,-0.37445068,1.1267945,0.5798584,2.0156982,94.0
1062,1.5568466,-0.6226654,-0.53759766,1.1267945,0.5798584,2.0156982,94.0
1063,1.5568466,-0.6226654,-0.53759766,1.1862671,0.6446411,1.719397,94.0
1064,1.7595634,-0.5521126,-0.6867981,1.1862671,0.6446411,1.719397,94.0
1065,1.7595634,-0.5521126,-0.6867981,1.0577637,0.7391602,1.4294678,94.0
1066,1.7121792,-0.22980118,-0.83647156,1.0577637,0.7391602,1.4294678,94.0
1067,1.7121792,-0.22980118,-0.83647156,0.7168579,0.8591675,1.2064453,94.0
1068,1.5959644,0.24167061,-0.9630585,0.7168579,0.8591675,1.2064453,94.0
1069,1.5959644,0.24167061,-0.9630585,0.26444092,0.9791748,1.0651978,94.0
1070,1.5416641,0.63372993,-1.0522003,0.26444092,0.9791748,1.0651978,94.0
1071,1.5416641,0.63372993,-1.0522003,-0.19647217,1.0938721,0.97067875,94.0
1072,1.5576725,0.88848877,-1.0580444,-0.19647217,1.0938721,0.97067875,94.0
1073,1.5576725,0.88848877,-1.0580444,-0.69986576,1.1682129,0.93138427,94.0
1074,1.5170975,0.9738655,-0.9266815,-0.69986576,1.1682129,0.93138427,94.0
1075,1.5170975,0.9738655,-0.9266815,-1.177771,1.1544068,0.8867798,94.0
1076,1.2020445,0.79234886,-0.6660614,-1.177771,1.1544068,0.8867798,94.0
1077,1.2020445,0.79234886,-0.6660614,-1.4177856,1.0386475,0.7784546,94.0
1078,0.7908468,0.45804977,-0.3393097,-1.4177856,1.0386475,0.7784546,94.0
1079,0.7908468,0.45804977,-0.3393097,-1.3986695,0.8358032,0.5692383,94.0
1080,0.69372463,0.16265488,0.0231781,-1.3986695,0.8358032,0.5692383,94.0
1081,0.69372463,0.16265488,0.0231781,-1.1671509,0.59047854,0.1985962,94.0
1082,0.8371935,0.053316116,0.39723206,-1.1671509,0.59047854,0.1985962,94.0
1083,0.8371935,0.053316116,0.39723206,-0.85491943,0.28568116,-0.29417726,94.0
1084,0.62810516,0.015882492,0.7767792,-0.85491943,0.28568116,-0.29417726,94.0
1085,0.62810516,0.015882492,0.7767792,-0.52038574,-0.1720459,-0.81031495,94.0
1086,-0.23504066,-0.20145416,1.1803741,-0.52038574,-0.1720459,-0.81031495,94.0
1087,-0.23504066,-0.20145416,1.1803741,-0.04885254,-0.5628662,-1.2468017,94.0
1088,-1.2569656,-0.52645874,1.5048981,-0.04885254,-0.5628662,-1.2468017,94.0
1089,-1.2569656,-0.52645874,1.5048981,0.43967286,-0.9781128,-1.6524903,94.0
1090,-1.7306337,-0.76776123,1.6255951,0.43967286,-0.9781128,-1.6524903,94.0
1091,-1.7306337,-0.76776123,1.6255951,0.8846558,-1.3413209,-1.9158691,94.0
1092,-1.5856552,-0.821949,1.5131531,0.8846558,-1.3413209,-1.9158691,94.0
1093,-1.5856552,-0.821949,1.5131531,1.269104,-1.6206299,-2.075171,94.0
1094,-1.2418404,-0.6317768,1.1878662,1.269104,-1.6206299,-2.075171,94.0
1095,-1.2418404,-0.6317768,1.1878662,1.536731,-1.811792,-2.085791,94.0
1096,-0.9925451,-0.1462059,0.6316681,1.536731,-1.811792,-2.085791,94.0
1097,-0.9925451,-0.1462059,0.6316681,1.6524903,-1.7650635,-1.9509156,94.0
1098,-1.0632744,0.5554466,-0.15614319,1.6524903,-1.7650635,-1.9509156,94.0
1099,-1.0632744,0.5554466,-0.15614319,1.3753052,-1.5282348,-1.7024049,94.0
1100,-1.472971,1.2462368,-0.77027893,1.3753052,-1.5282348,-1.7024049,94.0
1101,-1.472971,1.2462368,-0.77027893,0.55968016,-1.083252,-1.3986695,94.0
1102,-1.9581747,1.6338787,-1.146225,0.55968016,-1.083252,-1.3986695,94.0
1103,-1.9581747,1.6338787,-1.146225,-0.5065796,-0.7784546,-1.0556396,94.0
1104,-1.9517202,1.4765491,-0.895874,-0.5065796,-0.7784546,-1.0556396,94.0
1105,-1.9517202,1.4765491,-0.895874,-2.0316284,-0.1263794,-1.0014771,94.0
1106,-1.4094114,0.43617058,-0.19125366,-2.0316284,-0.1263794,-1.0014771,94.0
1107,-1.4094114,0.43617058,-0.19125366,-2.0241945,-0.0541626,-1.0683838,94.0
1108,-0.7808981,-0.80376244,0.1710968,-2.0241945,-0.0541626,-1.0683838,94.0
1109,-0.7808981,-0.80376244,0.1710968,-1.5579712,0.12319336,-1.2404298,94.0
1110,-0.3550043,-1.1724548,0.44129944,-1.5579712,0.12319336,-1.2404298,94.0
1111,-0.3550043,-1.1724548,0.44129944,-1.5186768,0.29630128,-1.3838013,94.0
1112,-0.07968235,-0.88755035,0.75816345,-1.5186768,0.29630128,-1.3838013,94.0
1113,-0.07968235,-0.88755035,0.75816345,-1.5186768,0.32816163,-1.5473511,94.0
1114,0.13869572,-0.62306595,0.9844055,-1.5186768,0.32816163,-1.5473511,94.0
1115,0.13869572,-0.62306595,0.9844055,-1.354065,0.2899292,-1.7055908,94.0
1116,0.2828312,-0.57104874,1.0536957,-1.354065,0.2899292,-1.7055908,94.0
1117,0.2828312,-0.57104874,1.0536957,-1.1342286,0.21240234,-1.8277222,94.0
1118,0.25139904,-0.57842255,0.98950195,-1.1342286,0.21240234,-1.8277222,94.0
1119,0.25139904,-0.57842255,0.98950195,-0.9547486,0.12213135,-1.8670167,94.0
1120,0.04286766,-0.45365715,0.8425293,-0.9547486,0.12213135,-1.8670167,94.0
1121,0.04286766,-0.45365715,0.8425293,-0.8963379,0.0,-1.8638306,94.0
1122,-0.08042812,-0.26076508,0.6965027,-0.8963379,0.0,-1.8638306,94.0
1123,-0.08042812,-0.26076508,0.6965027,-0.85704345,-0.15080567,-1.8001099,94.0
1124,0.07584286,-0.18078041,0.57777405,-0.85704345,-0.15080567,-1.8001099,94.0
1125,0.07584286,-0.18078041,0.57777405,-0.6977417,-0.2527588,-1.7109009,94.0
1126,0.3651905,-0.18627548,0.46540833,-0.6977417,-0.2527588,-1.7109009,94.0
1127,0.3651905,-0.18627548,0.46540833,-0.43754885,-0.32072756,-1.4846925,94.0
1128,0.5023451,-0.17114067,0.3136902,-0.43754885,-0.32072756,-1.4846925,94.0
1129,0.5023451,-0.17114067,0.3136902,-0.13699952,-0.32391357,-1.2319336,94.0
1130,0.42751026,-0.15640831,0.09713745,-0.13699952,-0.32391357,-1.2319336,94.0
1131,0.42751026,-0.15640831,0.09713745,0.12531738,-0.3355957,-1.0067872,94.0
1132,0.52743244,-0.24109459,-0.09365845,0.12531738,-0.3355957,-1.0067872,94.0
1133,0.52743244,-0.24109459,-0.09365845,0.39613038,-0.3419678,-0.7890747,94.0
1134,1.0608501,-0.4500904,-0.015945435,0.39613038,-0.3419678,-0.7890747,94.0
1135,1.0608501,-0.4500904,-0.015945435,0.75509036,-0.31329346,-0.56605226,94.0
1136,1.6201038,-0.8090725,0.37046814,0.75509036,-0.31329346,-0.56605226,94.0
1137,1.6201038,-0.8090725,0.37046814,1.1862671,-0.20709229,-0.27612305,94.0
1138,1.5089245,-0.9758835,0.5280304,1.1862671,-0.20709229,-0.27612305,94.0
1139,1.5089245,-0.9758835,0.5280304,1.5261109,-0.004248047,0.053100586,94.0
1140,0.7364483,-0.62994957,-0.0021972656,1.5261109,-0.004248047,0.053100586,94.0
1141,0.7364483,-0.62994957,-0.0021972656,1.6737305,0.2888672,0.4343628,94.0
1142,-0.122413635,-0.09978485,-0.86006165,1.6737305,0.2888672,0.4343628,94.0
1143,-0.122413635,-0.09978485,-0.86006165,1.8479004,0.55968016,0.79119873,94.0
1144,-0.63258743,0.28761673,-1.4569702,1.8479004,0.55968016,0.79119873,94.0
1145,-0.63258743,0.28761673,-1.4569702,1.9785279,0.79119873,1.1480347,94.0
1146,-0.7490263,0.47752953,-1.5848541,1.9785279,0.79119873,1.1480347,94.0
1147,-0.7490263,0.47752953,-1.5848541,2.0114503,0.9866089,1.4921265,94.0
1148,-0.651577,0.50312996,-1.4035339,2.0114503,0.9866089,1.4921265,94.0
1149,-0.651577,0.50312996,-1.4035339,1.9827759,1.2011353,1.8245362,94.0
1150,-0.5391941,0.4535408,-1.1205597,1.9827759,1.2011353,1.8245362,94.0
1151,-0.5391941,0.4535408,-1.1205597,1.8659546,1.3784913,2.1314576,94.0
1152,-0.4217968,0.3503456,-0.8304291,1.8659546,1.3784913,2.1314576,94.0
1153,-0.4217968,0.3503456,-0.8304291,1.6875366,1.5059327,2.4043946,94.0
1154,-0.4217968,0.3503456,-0.8304291,1.6875366,1.5059327,2.4043946,94.0
1155,-0.25526047,0.15668106,-0.55888367,1.6875366,1.5059327,2.4043946,94.0
1156,-0.25526047,0.15668106,-0.55888367,1.5123047,1.4815063,2.6040528,94.0
1157,-0.0022192001,-0.1305275,-0.38508606,1.5123047,1.4815063,2.6040528,94.0
1158,-0.0022192001,-0.1305275,-0.38508606,1.3901733,1.4220337,2.70813,94.0
1159,0.44774818,-0.44528008,-0.35928345,1.3901733,1.4220337,2.70813,94.0
1160,0.44774818,-0.44528008,-0.35928345,1.355127,1.3413209,2.6667116,94.0
1161,1.0130806,-0.7672348,-0.39256287,1.355127,1.3413209,2.6667116,94.0
1162,1.0130806,-0.7672348,-0.39256287,1.4613281,1.2351197,2.5583863,94.0
1163,1.4530544,-1.0434628,-0.44332886,1.4613281,1.2351197,2.5583863,94.0
1164,1.4530544,-1.0434628,-0.44332886,1.5717773,1.1958252,2.2886353,94.0
1165,1.6174116,-1.1746254,-0.5433655,1.5717773,1.1958252,2.2886353,94.0
1166,1.6174116,-1.1746254,-0.5433655,1.6163819,1.2244996,1.9657837,94.0
1167,1.5628624,-1.0669575,-0.69821167,1.6163819,1.2244996,1.9657837,94.0
1168,1.5628624,-1.0669575,-0.69821167,1.4379638,1.2903442,1.7332032,94.0
1169,1.4329433,-0.7845726,-0.84840393,1.4379638,1.2903442,1.7332032,94.0
1170,1.4329433,-0.7845726,-0.84840393,1.0875,1.2924683,1.4889405,94.0
1171,1.2371511,-0.47917175,-0.8939209,1.0875,1.2924683,1.4889405,94.0
1172,1.2371511,-0.47917175,-0.8939209,0.61702883,1.3498169,1.3253907,94.0
1173,0.93518066,-0.22562218,-0.80584717,0.61702883,1.3498169,1.3253907,94.0
1174,0.93518066,-0.22562218,-0.80584717,0.08071289,1.3689331,1.2552979,94.0
1175,0.74823,-0.0169487,-0.7173004,0.08071289,1.3689331,1.2552979,94.0
1176,0.74823,-0.0169487,-0.7173004,-0.45347902,1.356189,1.2244996,94.0
1177,0.7470951,0.16095352,-0.6914215,-0.45347902,1.356189,1.2244996,94.0
1178,0.7470951,0.16095352,-0.6914215,-0.9483765,1.2850342,1.2149414,94.0
1179,0.65579414,0.3285675,-0.65986633,-0.9483765,1.2850342,1.2149414,94.0
1180,0.65579414,0.3285675,-0.65986633,-1.3487549,1.1512207,1.174585,94.0
1181,0.39310455,0.5441284,-0.57650757,-1.3487549,1.1512207,1.174585,94.0
1182,0.39310455,0.5441284,-0.57650757,-1.6386842,1.0301514,1.0439576,94.0
1183,0.18524742,0.7465458,-0.35606384,-1.6386842,1.0301514,1.0439576,94.0
1184,0.18524742,0.7465458,-0.35606384,-1.8001099,0.6956177,0.7412842,94.0
1185,0.23820114,0.68206406,0.03262329,-1.8001099,0.6956177,0.7412842,94.0
1186,0.23820114,0.68206406,0.03262329,-1.7947998,0.33984375,0.30054933,94.0
1187,0.24373436,0.26517105,0.53733826,-1.7947998,0.33984375,0.30054933,94.0
1188,0.24373436,0.26517105,0.53733826,-1.5866455,-0.04885254,-0.21346436,94.0
1189,-0.27744865,-0.39422226,1.1656799,-1.5866455,-0.04885254,-0.21346436,94.0
1190,-0.27744865,-0.39422226,1.1656799,-1.1660889,-0.65207523,-0.815625,94.0
1191,-1.0529642,-0.9558563,1.7381897,-1.1660889,-0.65207523,-0.815625,94.0
1192,-1.0529642,-0.9558563,1.7381897,-0.4364868,-1.270166,-1.3678712,94.0
1193,-1.4635258,-1.0884895,2.0271454,-0.4364868,-1.270166,-1.3678712,94.0
1194,-1.4635258,-1.0884895,2.0271454,0.42268068,-1.8489624,-1.7119629,94.0
1195,-1.3846388,-0.91352844,2.0577698,0.42268068,-1.8489624,-1.7119629,94.0
1196,-1.3846388,-0.91352844,2.0577698,1.171399,-2.3651001,-1.9625977,94.0
1197,-1.143136,-0.79387283,1.8861542,1.171399,-2.3651001,-1.9625977,94.0
1198,-1.143136,-0.79387283,1.8861542,1.9625977,-2.7782228,-2.1197755,94.0
1199,-1.0967836,-0.6746254,1.4026031,1.9625977,-2.7782228,-2.1197755,94.0
1200,-1.0967836,-0.6746254,1.4026031,2.6125488,-3.0076172,-2.1080933,94.0
1201,-1.2937851,-0.18699074,0.57398987,2.6125488,-3.0076172,-2.1080933,94.0
1202,-1.2937851,-0.18699074,0.57398987,2.7378662,-2.9056642,-1.8585205,94.0
1203,-1.7165098,0.68081474,-0.37384033,2.7378662,-2.9056642,-1.8585205,94.0
1204,-1.7165098,0.68081474,-0.37384033,1.9041871,-2.450061,-1.5600952,94.0
1205,-2.1829615,1.4169788,-1.0456848,1.9041871,-2.450061,-1.5600952,94.0
1206,-2.1829615,1.4169788,-1.0456848,0.6074707,-1.8829468,-1.4209718,94.0
1207,-2.3080883,1.4870377,-1.2334442,0.6074707,-1.8829468,-1.4209718,94.0
1208,-2.3080883,1.4870377,-1.2334442,-0.5734863,-1.4836304,-1.3657471,94.0
1209,-1.8180408,0.9866142,-1.013916,-0.5734863,-1.4836304,-1.3657471,94.0
1210,-1.8180408,0.9866142,-1.013916,-1.3827393,-1.0099732,-1.3614991,94.0
1211,-1.0622082,0.311203,-0.51660156,-1.3827393,-1.0099732,-1.3614991,94.0
1212,-1.0622082,0.311203,-0.51660156,-1.7969239,-0.63933104,-1.363623,94.0
1213,-0.50702953,-0.251379,0.0032043457,-1.7969239,-0.63933104,-1.363623,94.0
1214,-0.50702953,-0.251379,0.0032043457,-1.9774659,-0.38551027,-1.4400879,94.0
1215,-0.06862354,-0.6169605,0.31401062,-1.9774659,-0.38551027,-1.4400879,94.0
1216,-0.06862354,-0.6169605,0.31401062,-1.9753418,-0.1444336,-1.5282348,94.0
1217,0.43643475,-0.8234501,0.47401428,-1.9753418,-0.1444336,-1.5282348,94.0
1218,0.43643475,-0.8234501,0.47401428,-1.8712647,0.0637207,-1.5898316,94.0
1219,0.8126364,-0.9063797,0.65786743,-1.8712647,0.0637207,-1.5898316,94.0
1220,0.8126364,-0.9063797,0.65786743,-1.7608155,0.17947999,-1.6163819,94.0
1221,0.73021126,-0.83826256,0.93351746,-1.7608155,0.17947999,-1.6163819,94.0
1222,0.73021126,-0.83826256,0.93351746,-1.6885986,0.0998291,-1.6057618,94.0
1223,0.2544937,-0.6057663,1.1324005,-1.6885986,0.0998291,-1.6057618,94.0
1224,0.2544937,-0.6057663,1.1324005,-1.6450561,-0.047790527,-1.5823975,94.0
1225,-0.1446352,-0.25186157,1.0820923,-1.6450561,-0.047790527,-1.5823975,94.0
1226,-0.1446352,-0.25186157,1.0820923,-1.5770874,-0.21877442,-1.536731,94.0
1227,-0.10933685,0.03133583,0.84446716,-1.5770874,-0.21877442,-1.536731,94.0
1228,-0.10933685,0.03133583,0.84446716,-1.4167236,-0.38657227,-1.4592041,94.0
1229,0.23234177,0.06702423,0.5742035,-1.4167236,-0.38657227,-1.4592041,94.0
1230,0.23234177,0.06702423,0.5742035,-1.1098022,-0.4959595,-1.3253907,94.0
1231,0.49115944,-0.06669235,0.35882568,-1.1098022,-0.4959595,-1.3253907,94.0
1232,0.49115944,-0.06669235,0.35882568,-0.75721437,-0.5586182,-1.1905152,94.0
1233,0.48380947,-0.11697769,0.11470032,-0.75721437,-0.5586182,-1.1905152,94.0
1234,0.48380947,-0.11697769,0.11470032,-0.44604492,-0.5384399,-0.9526245,94.0
1235,0.47729397,-0.03783226,-0.16700745,-0.44604492,-0.5384399,-0.9526245,94.0
1236,0.47729397,-0.03783226,-0.16700745,-0.18479005,-0.4895874,-0.73809814,94.0
1237,0.75524807,-0.06378746,-0.22471619,-0.18479005,-0.4895874,-0.73809814,94.0
1238,0.75524807,-0.06378746,-0.22471619,0.121069334,-0.42692873,-0.52038574,94.0
1239,1.1787224,-0.2739792,0.075408936,0.121069334,-0.42692873,-0.52038574,94.0
1240,1.1787224,-0.2739792,0.075408936,0.544812,-0.2262085,-0.23364258,94.0
1241,1.2846775,-0.48126793,0.32295227,0.544812,-0.2262085,-0.23364258,94.0
1242,1.2846775,-0.48126793,0.32295227,0.91757816,0.06690674,0.058410645,94.0
1243,0.890913,-0.45455742,0.03715515,0.91757816,0.06690674,0.058410645,94.0
1244,0.890913,-0.45455742,0.03715515,1.2202514,0.36320803,0.3695801,94.0
1245,0.3630352,-0.22847748,-0.6408539,1.2202514,0.36320803,0.3695801,94.0
1246,0.3630352,-0.22847748,-0.6408539,1.5144287,0.6531372,0.6595093,94.0
1247,-0.0070209503,0.043071747,-1.1960297,1.5144287,0.6531372,0.6595093,94.0
1248,-0.0070209503,0.043071747,-1.1960297,1.7618774,0.904834,0.95581055,94.0
1249,-0.18232536,0.3116188,-1.362381,1.7618774,0.904834,0.95581055,94.0
1250,-0.18232536,0.3116188,-1.362381,1.8394043,1.1469727,1.2829102,94.0
1251,-0.30447865,0.5246124,-1.2128601,1.8394043,1.1469727,1.2829102,94.0
1252,-0.30447865,0.5246124,-1.2128601,1.7448853,1.4018555,1.6333741,94.0
1253,-0.5299721,0.63656044,-0.89852905,1.7448853,1.4018555,1.6333741,94.0
1254,-0.5299721,0.63656044,-0.89852905,1.5048707,1.5622193,1.9806519,94.0
1255,-0.7295561,0.6327343,-0.5937195,1.5048707,1.5622193,1.9806519,94.0
1256,-0.7295561,0.6327343,-0.5937195,1.1873292,1.6333741,2.3226197,94.0
1257,-0.6790428,0.5150986,-0.3821869,1.1873292,1.6333741,2.3226197,94.0
1258,-0.6790428,0.5150986,-0.3821869,0.9197022,1.6641724,2.6497192,94.0
1259,-0.33230972,0.31386185,-0.29647827,0.9197022,1.6641724,2.6497192,94.0
1260,-0.33230972,0.31386185,-0.29647827,0.75296634,1.538855,2.8716798,94.0
1261,0.2622652,0.07680893,-0.3423462,0.75296634,1.538855,2.8716798,94.0
1262,0.2622652,0.07680893,-0.3423462,0.6754395,1.448584,3.0182374,94.0
1263,0.88838863,-0.19571877,-0.435318,0.6754395,1.448584,3.0182374,94.0
1264,0.88838863,-0.19571877,-0.435318,0.7168579,1.3381348,3.0065553,94.0
1265,1.3670464,-0.4479332,-0.53341675,0.7168579,1.3381348,3.0065553,94.0
1266,1.3670464,-0.4479332,-0.53341675,0.83049315,1.2807862,2.899292,94.0
1267,1.3670464,-0.4479332,-0.53341675,0.83049315,1.2807862,2.899292,94.0
1268,1.5483246,-0.6137543,-0.6039429,0.83049315,1.2807862,2.899292,94.0
1269,1.5483246,-0.6137543,-0.6039429,0.9197022,1.2956543,2.6486573,94.0
1270,1.3766356,-0.70038986,-0.60220337,0.9197022,1.2956543,2.6486573,94.0
1271,1.3766356,-0.70038986,-0.60220337,0.9589966,1.2478638,2.3449218,94.0
1272,1.0349388,-0.7012291,-0.5275879,0.9589966,1.2478638,2.3449218,94.0
1273,1.0349388,-0.7012291,-0.5275879,0.8867798,1.2425537,2.0624268,94.0
1274,0.61037254,-0.6025734,-0.37460327,0.8867798,1.2425537,2.0624268,94.0
1275,0.61037254,-0.6025734,-0.37460327,0.67437744,1.1629028,1.811792,94.0
1276,0.2706833,-0.3355751,-0.2882843,0.67437744,1.1629028,1.811792,94.0
1277,0.2706833,-0.3355751,-0.2882843,0.34727785,1.1151123,1.6004517,94.0
1278,0.21247005,0.09646797,-0.38983154,0.34727785,1.1151123,1.6004517,94.0
1279,0.21247005,0.09646797,-0.38983154,-0.09239502,1.0439576,1.3933594,94.0
1280,0.31024742,0.42901802,-0.52856445,-0.09239502,1.0439576,1.3933594,94.0
1281,0.31024742,0.42901802,-0.52856445,-0.5649902,0.9685547,1.176709,94.0
1282,0.36060047,0.4911518,-0.5670929,-0.5649902,0.9685547,1.176709,94.0
1283,0.36060047,0.4911518,-0.5670929,-0.9451904,0.8644776,0.90908206,94.0
1284,0.23101044,0.5253067,-0.51283264,-0.9451904,0.8644776,0.90908206,94.0
1285,0.23101044,0.5253067,-0.51283264,-1.2404298,0.7168579,0.5734863,94.0
1286,0.033185005,0.66369057,-0.40029907,-1.2404298,0.7168579,0.5734863,94.0
1287,0.033185005,0.66369057,-0.40029907,-1.5261109,0.4800293,0.15186767,94.0
1288,0.13742447,0.6590538,-0.26315308,-1.5261109,0.4800293,0.15186767,94.0
1289,0.13742447,0.6590538,-0.26315308,-1.7278931,0.34727785,-0.3090454,94.0
1290,0.36163616,0.21895409,0.04373169,-1.7278931,0.34727785,-0.3090454,94.0
1291,0.36163616,0.21895409,0.04373169,-1.718335,-0.12531738,-0.8952759,94.0
1292,0.1373434,-0.34054756,0.6455231,-1.718335,-0.12531738,-0.8952759,94.0
1293,0.1373434,-0.34054756,0.6455231,-1.4124756,-0.54587406,-1.3614991,94.0
1294,-0.5418463,-0.5188732,1.3305206,-1.4124756,-0.54587406,-1.3614991,94.0
1295,-0.5418463,-0.5188732,1.3305206,-0.7848267,-1.1331666,-1.814978,94.0
1296,-1.0926085,-0.41553688,1.844101,-0.7848267,-1.1331666,-1.814978,94.0
1297,-1.0926085,-0.41553688,1.844101,-0.021240234,-1.6832886,-2.079419,94.0
1298,-1.1125879,-0.36541367,2.0739288,-0.021240234,-1.6832886,-2.079419,94.0
1299,-1.1125879,-0.36541367,2.0739288,0.6786255,-2.173938,-2.265271,94.0
1300,-0.92768,-0.5437832,2.0603485,0.6786255,-2.173938,-2.265271,94.0
1301,-0.92768,-0.5437832,2.0603485,1.4719483,-2.5583863,-2.3969605,94.0
1302,-0.9860401,-0.63622284,1.7303925,1.4719483,-2.5583863,-2.3969605,94.0
1303,-0.9860401,-0.63622284,1.7303925,2.0422485,-2.7537963,-2.362976,94.0
1304,-1.3074837,-0.14751625,0.8661194,2.0422485,-2.7537963,-2.362976,94.0
1305,-1.3074837,-0.14751625,0.8661194,1.8797607,-2.5530763,-2.2047365,94.0
1306,-1.7873564,0.8510418,-0.27189636,1.8797607,-2.5530763,-2.2047365,94.0
1307,-1.7873564,0.8510418,-0.27189636,0.8973999,-2.0709229,-1.9434814,94.0
1308,-2.281618,1.6181622,-1.131424,0.8973999,-2.0709229,-1.9434814,94.0
1309,-2.281618,1.6181622,-1.131424,-0.40144044,-1.5016845,-1.8362182,94.0
1310,-2.4426527,1.6535149,-1.4380798,-0.40144044,-1.5016845,-1.8362182,94.0
1311,-2.4426527,1.6535149,-1.4380798,-1.4740723,-1.1459106,-1.806482,94.0
1312,-1.9841995,1.2041588,-1.2095337,-1.4740723,-1.1459106,-1.806482,94.0
1313,-1.9841995,1.2041588,-1.2095337,-2.0942872,-0.70305175,-1.7735596,94.0
1314,-1.1263361,0.63822937,-0.63108826,-2.0942872,-0.70305175,-1.7735596,94.0
1315,-1.1263361,0.63822937,-0.63108826,-2.3852785,-0.45878908,-1.7926759,94.0
1316,-0.1728096,0.124902725,-0.017929077,-2.3852785,-0.45878908,-1.7926759,94.0
1317,-0.1728096,0.124902725,-0.017929077,-2.4978516,-0.1731079,-1.8404664,94.0
1318,0.74527264,-0.22256279,0.32164,-2.4978516,-0.1731079,-1.8404664,94.0
1319,0.74527264,-0.22256279,0.32164,-2.53396,0.14868164,-1.8627685,94.0
1320,1.3999662,-0.41093636,0.43128967,-2.53396,0.14868164,-1.8627685,94.0
1321,1.3999662,-0.41093636,0.43128967,-2.552014,0.38975832,-1.8829468,94.0
1322,1.5210962,-0.437685,0.5694275,-2.552014,0.38975832,-1.8829468,94.0
1323,1.5210962,-0.437685,0.5694275,-2.5732543,0.38763428,-1.8893188,94.0
1324,1.0660105,-0.2489891,0.78471375,-2.5732543,0.38763428,-1.8893188,94.0
1325,1.0660105,-0.2489891,0.78471375,-2.6061769,0.3090454,-1.8680786,94.0
1326,0.4317751,0.09658432,0.93840027,-2.6061769,0.3090454,-1.8680786,94.0
1327,0.4317751,0.09658432,0.93840027,-2.5828125,0.1709839,-1.8298463,94.0
1328,0.057419777,0.44483376,1.0580597,-2.5828125,0.1709839,-1.8298463,94.0
1329,0.057419777,0.44483376,1.0580597,-2.430945,-0.11151123,-1.6970948,94.0
1330,0.028614044,0.6050854,1.1539001,-2.430945,-0.11151123,-1.6970948,94.0
1331,0.028614044,0.6050854,1.1539001,-2.1017213,-0.3525879,-1.5250489,94.0
1332,0.1277132,0.4392681,1.1759491,-2.1017213,-0.3525879,-1.5250489,94.0
1333,0.1277132,0.4392681,1.1759491,-1.5622193,-0.5543701,-1.3742431,94.0
1334,0.11053181,0.011583328,1.0299835,-1.5622193,-0.5543701,-1.3742431,94.0
1335,0.11053181,0.011583328,1.0299835,-0.817749,-0.72960204,-1.2446778,94.0
1336,0.15821362,-0.42234993,0.6532135,-0.817749,-0.72960204,-1.2446778,94.0
1337,0.15821362,-0.42234993,0.6532135,0.0998291,-0.82730716,-1.0959961,94.0
1338,0.5744343,-0.61063385,0.24674988,0.0998291,-0.82730716,-1.0959961,94.0
1339,0.5744343,-0.61063385,0.24674988,0.9197022,-0.8846558,-0.86978763,94.0
1340,1.2373915,-0.5612354,0.12373352,0.9197022,-0.8846558,-0.86978763,94.0
1341,1.2373915,-0.5612354,0.12373352,1.6142578,-0.7965088,-0.5543701,94.0
1342,1.4888506,-0.30874252,0.14335632,1.6142578,-0.7965088,-0.5543701,94.0
1343,1.4888506,-0.30874252,0.14335632,1.9625977,-0.33134767,-0.04885254,94.0
1344,0.81305313,0.13108253,-0.10960388,1.9625977,-0.33134767,-0.04885254,94.0
1345,0.81305313,0.13108253,-0.10960388,1.9211792,0.10938721,0.40144044,94.0
1346,-0.23025799,0.5424385,-0.68777466,1.9211792,0.10938721,0.40144044,94.0
1347,-0.23025799,0.5424385,-0.68777466,1.8171021,0.52888185,0.85385746,94.0
1348,-0.9104767,0.7178745,-1.2713623,1.8171021,0.52888185,0.85385746,94.0
1349,-0.9104767,0.7178745,-1.2713623,1.7438233,0.89208984,1.2850342,94.0
1350,-1.0768557,0.7097492,-1.581543,1.7438233,0.89208984,1.2850342,94.0
1351,-1.0768557,0.7097492,-1.581543,1.6939087,1.1586548,1.6907227,94.0
1352,-0.8578348,0.6719856,-1.5431366,1.6939087,1.1586548,1.6907227,94.0
1353,-0.8578348,0.6719856,-1.5431366,1.6100098,1.453894,2.095349,94.0
1354,-0.525465,0.6112709,-1.2271881,1.6100098,1.453894,2.095349,94.0
1355,-0.525465,0.6112709,-1.2271881,1.4592041,1.7289551,2.441565,94.0
1356,-0.22156811,0.4494419,-0.7509613,1.4592041,1.7289551,2.441565,94.0
1357,-0.22156811,0.4494419,-0.7509613,1.2914063,1.9264892,2.7739747,94.0
1358,0.06344414,0.16984367,-0.28526306,1.2914063,1.9264892,2.7739747,94.0
1359,0.06344414,0.16984367,-0.28526306,1.1363525,1.8659546,3.0617797,94.0
1360,0.37875748,-0.16276932,-0.021362305,1.1363525,1.8659546,3.0617797,94.0
1361,0.37875748,-0.16276932,-0.021362305,1.083252,1.7013428,3.2773683,94.0
1362,0.7975006,-0.45461655,0.010955811,1.083252,1.7013428,3.2773683,94.0
1363,0.7975006,-0.45461655,0.010955811,1.0790039,1.6461182,3.3633912,94.0
1364,1.1784782,-0.67642593,-0.06454468,1.0790039,1.6461182,3.3633912,94.0
1365,1.1784782,-0.67642593,-0.06454468,1.1108643,1.3965454,3.2858644,94.0
1366,1.3992281,-0.83392715,-0.23408508,1.1108643,1.3965454,3.2858644,94.0
1367,1.3992281,-0.83392715,-0.23408508,1.2000732,1.2425537,3.0893922,94.0
1368,1.4878998,-0.9210243,-0.44859314,1.2000732,1.2425537,3.0893922,94.0
1369,1.4878998,-0.9210243,-0.44859314,1.2860962,1.1820191,2.804773,94.0
1370,1.3931026,-0.96671486,-0.5825043,1.2860962,1.1820191,2.804773,94.0
1371,1.3931026,-0.96671486,-0.5825043,1.3094605,1.1809571,2.4946656,94.0
1372,1.0957928,-0.93068314,-0.61172485,1.3094605,1.1809571,2.4946656,94.0
1373,1.0957928,-0.93068314,-0.61172485,1.1629028,1.2181275,2.2249146,94.0
1374,1.0957928,-0.93068314,-0.61172485,1.1629028,1.2181275,2.2249146,96.0
1375,0.71275425,-0.7056179,-0.62667847,1.1629028,1.2181275,2.2249146,96.0
1376,0.71275425,-0.7056179,-0.62667847,0.85704345,1.268042,1.996582,96.0
1377,0.5166626,-0.26763153,-0.69070435,0.85704345,1.268042,1.996582,96.0
1378,0.5166626,-0.26763153,-0.69070435,0.41418457,1.3158325,1.7873658,96.0
1379,0.5772219,0.21012497,-0.82766724,0.41418457,1.3158325,1.7873658,96.0
1380,0.5772219,0.21012497,-0.82766724,-0.15186767,1.360437,1.6089478,96.0
1381,0.6014137,0.48020935,-0.94433594,-0.15186767,1.360437,1.6089478,96.0
1382,0.6014137,0.48020935,-0.94433594,-0.7338501,1.3699951,1.4061035,96.0
1383,0.36645794,0.436121,-0.9202423,-0.7338501,1.3699951,1.4061035,96.0
1384,0.36645794,0.436121,-0.9202423,-1.1363525,1.2776002,1.1363525,96.0
1385,0.0050678253,0.27387238,-0.70602417,-1.1363525,1.2776002,1.1363525,96.0
1386,0.0050678253,0.27387238,-0.70602417,-1.4230957,1.2903442,0.85598147,96.0
1387,-0.20691967,0.15004349,-0.35725403,-1.4230957,1.2903442,0.85598147,96.0
1388,-0.20691967,0.15004349,-0.35725403,-1.5622193,0.8793457,0.3802002,96.0
1389,-0.03855896,0.12110901,0.037643433,-1.5622193,0.8793457,0.3802002,96.0
1390,-0.03855896,0.12110901,0.037643433,-1.6057618,0.5713623,-0.14549561,96.0
1391,0.2557125,0.09919357,0.42268372,-1.6057618,0.5713623,-0.14549561,96.0
1392,0.2557125,0.09919357,0.42268372,-1.4655762,-0.0053100586,-0.79226077,96.0
1393,0.2519703,-0.020254135,0.9521942,-1.4655762,-0.0053100586,-0.79226077,96.0
1394,0.2519703,-0.020254135,0.9521942,-1.1427246,-0.5894165,-1.4145997,96.0
1395,-0.11575794,-0.08505058,1.6200256,-1.1427246,-0.5894165,-1.4145997,96.0
1396,-0.11575794,-0.08505058,1.6200256,-0.5341919,-1.264856,-2.0188844,96.0
1397,-0.5093174,-0.04155159,2.1348572,-0.5341919,-1.264856,-2.0188844,96.0
1398,-0.5093174,-0.04155159,2.1348572,0.13487549,-1.8723267,-2.4203248,96.0
1399,-0.6260328,-0.114795685,2.3495026,0.13487549,-1.8723267,-2.4203248,96.0
1400,-0.6260328,-0.114795685,2.3495026,0.78164065,-2.3746583,-2.6826417,96.0
1401,-0.6749592,-0.29161644,2.24971,0.78164065,-2.3746583,-2.6826417,96.0
1402,-0.6749592,-0.29161644,2.24971,1.3699951,-2.795215,-2.8599975,96.0
1403,-0.8453636,-0.16299248,1.6218262,1.3699951,-2.795215,-2.8599975,96.0
1404,-0.8453636,-0.16299248,1.6218262,1.5600952,-2.9375246,-2.8217652,96.0
1405,-1.0558319,0.5227318,0.41882324,1.5600952,-2.9375246,-2.8217652,96.0
1406,-1.0558319,0.5227318,0.41882324,1.1023682,-2.5658205,-2.7399902,96.0
1407,-1.4409065,1.4842262,-0.8668976,1.1023682,-2.5658205,-2.7399902,96.0
1408,-1.4409065,1.4842262,-0.8668976,0.10195313,-1.903125,-2.453247,96.0
1409,-2.0252352,2.0875645,-1.6440277,0.10195313,-1.903125,-2.453247,96.0
1410,-2.0252352,2.0875645,-1.6440277,-1.0694458,-1.3020264,-2.2355347,96.0
1411,-2.279807,1.9153881,-1.7640533,-1.0694458,-1.3020264,-2.2355347,96.0
1412,-2.279807,1.9153881,-1.7640533,-1.8479004,-0.8294312,-2.1335816,96.0
1413,-1.8117123,1.1941147,-1.3511047,-1.8479004,-0.8294312,-2.1335816,96.0
1414,-1.8117123,1.1941147,-1.3511047,-2.2217286,-0.4598511,-2.005078,96.0
1415,-0.96438503,0.43171883,-0.6971588,-2.2217286,-0.4598511,-2.005078,96.0
1416,-0.96438503,0.43171883,-0.6971588,-2.4160767,-0.15505372,-1.897815,96.0
1417,-0.15424728,-0.12736511,-0.17137146,-2.4160767,-0.15505372,-1.897815,96.0
1418,-0.15424728,-0.12736511,-0.17137146,-2.4861696,0.1901001,-1.8394043,96.0
1419,0.51822853,-0.47455978,0.16159058,-2.4861696,0.1901001,-1.8394043,96.0
1420,0.51822853,-0.47455978,0.16159058,-2.4861696,0.452417,-1.8447144,96.0
1421,1.0533037,-0.75904274,0.5840149,-2.4861696,0.452417,-1.8447144,96.0
1422,1.0533037,-0.75904274,0.5840149,-2.4139526,0.5586182,-1.8680786,96.0
1423,1.2301064,-1.0409508,1.1817474,-2.4139526,0.5586182,-1.8680786,96.0
1424,1.2301064,-1.0409508,1.1817474,-2.3024414,0.42374268,-1.9732178,96.0
1425,0.75520325,-1.1256695,1.6832733,-2.3024414,0.42374268,-1.9732178,96.0
1426,0.75520325,-1.1256695,1.6832733,-2.0741088,0.1083252,-1.992334,96.0
1427,-0.17127705,-0.81520844,1.7894745,-2.0741088,0.1083252,-1.992334,96.0
1428,-0.17127705,-0.81520844,1.7894745,-1.8372803,-0.13168946,-1.983838,96.0
1429,-0.91399956,-0.31602097,1.5368958,-1.8372803,-0.13168946,-1.983838,96.0
1430,-0.91399956,-0.31602097,1.5368958,-1.5675293,-0.38232422,-1.899939,96.0
1431,-1.1195793,-0.078927994,1.2148743,-1.5675293,-0.38232422,-1.899939,96.0
1432,-1.1195793,-0.078927994,1.2148743,-1.1098022,-0.6637573,-1.7884277,96.0
1433,-0.9436617,-0.20177841,0.97413635,-1.1098022,-0.6637573,-1.7884277,96.0
1434,-0.9436617,-0.20177841,0.97413635,-0.49277344,-0.8496094,-1.62594,96.0
1435,-0.7132673,-0.40215683,0.72003174,-0.49277344,-0.8496094,-1.62594,96.0
1436,-0.7132673,-0.40215683,0.72003174,0.16885987,-0.9420044,-1.3965454,96.0
1437,-0.55733204,-0.45051003,0.32328796,0.16885987,-0.9420044,-1.3965454,96.0
1438,-0.55733204,-0.45051003,0.32328796,0.71579593,-0.93138427,-1.0726318,96.0
1439,-0.19630527,-0.3758011,-0.14707947,0.71579593,-0.93138427,-1.0726318,96.0
1440,-0.19630527,-0.3758011,-0.14707947,1.1172364,-0.8814697,-0.77102053,96.0
1441,0.6641102,-0.32919312,-0.33120728,1.1172364,-0.8814697,-0.77102053,96.0
1442,0.6641102,-0.32919312,-0.33120728,1.5239868,-0.7508423,-0.45560303,96.0
1443,1.6520281,-0.38807297,-0.069000244,1.5239868,-0.7508423,-0.45560303,96.0
1444,1.6520281,-0.38807297,-0.069000244,1.8468384,-0.37807617,-0.07434082,96.0
1445,1.9177046,-0.3312359,0.044036865,1.8468384,-0.37807617,-0.07434082,96.0
1446,1.9177046,-0.3312359,0.044036865,1.9349854,0.1731079,0.41524658,96.0
1447,1.2612143,-0.01086235,-0.49331665,1.9349854,0.1731079,0.41524658,96.0
1448,1.2612143,-0.01086235,-0.49331665,1.8192261,0.6786255,0.8262451,96.0
1449,0.79062366,0.042554855,-0.89907837,1.8192261,0.6786255,0.8262451,96.0
1450,0.79062366,0.042554855,-0.89907837,1.7894897,0.8612915,1.0120972,96.0
1451,-0.12609482,0.5031109,-1.8442688,1.7894897,0.8612915,1.0120972,96.0
1452,-0.12609482,0.5031109,-1.8442688,1.7640015,1.3689331,1.5993897,96.0
1453,-0.022726059,0.42811203,-1.7726288,1.7640015,1.3689331,1.5993897,96.0
1454,-0.022726059,0.42811203,-1.7726288,1.7363892,1.5505371,1.8192261,96.0
1455,-0.3682785,0.81777,-1.493393,1.7363892,1.5505371,1.8192261,96.0
1456,-0.3682785,0.81777,-1.493393,1.5016845,1.9859619,2.4224489,96.0
1457,-0.18192768,0.67334557,-1.1677246,1.5016845,1.9859619,2.4224489,96.0
1458,-0.18192768,0.67334557,-1.1677246,1.4029175,2.0454347,2.625293,96.0
1459,-0.3077612,0.6262016,-0.48355103,1.4029175,2.0454347,2.625293,96.0
1460,-0.3077612,0.6262016,-0.48355103,1.0736939,2.0156982,3.183911,96.0
1461,0.12965775,0.361557,-0.24783325,1.0736939,2.0156982,3.183911,96.0
1462,0.12965775,0.361557,-0.24783325,0.991919,1.9721558,3.3166625,96.0
1463,1.0476227,-0.035816193,0.011306763,0.991919,1.9721558,3.3166625,96.0
1464,1.0476227,-0.035816193,0.011306763,0.8952759,1.7236451,3.6565063,96.0
1465,1.4709597,-0.22328186,-0.041427612,0.8952759,1.7236451,3.6565063,96.0
1466,1.4709597,-0.22328186,-0.041427612,0.8772217,1.6694825,3.717041,96.0
1467,1.9203835,-0.4424553,-0.41775513,0.8772217,1.6694825,3.717041,96.0
1468,1.9203835,-0.4424553,-0.41775513,0.93563235,1.4369019,3.624646,96.0
1469,1.8585854,-0.6095791,-0.49372864,0.93563235,1.4369019,3.624646,96.0
1470,1.8585854,-0.6095791,-0.49372864,0.9685547,1.4039795,3.516321,96.0
1471,1.7180824,-0.9119053,-0.6916809,0.9685547,1.4039795,3.516321,96.0
1472,1.7180824,-0.9119053,-0.6916809,1.1480347,1.3115845,3.0320435,96.0
1473,1.7180824,-0.9119053,-0.6916809,1.1480347,1.3115845,3.0320435,95.0
1474,1.4713535,-1.0802078,-0.55921936,1.1480347,1.3115845,3.0320435,95.0
1475,1.4713535,-1.0802078,-0.55921936,1.2266235,1.3243287,2.89292,95.0
1476,0.8386555,-0.9675102,-0.5241089,1.2266235,1.3243287,2.89292,95.0
1477,0.8386555,-0.9675102,-0.5241089,1.1214844,1.3487549,2.4351928,95.0
1478,0.7262831,-0.79971504,-0.44265747,1.1214844,1.3487549,2.4351928,95.0
1479,0.7262831,-0.79971504,-0.44265747,0.9781128,1.354065,2.2875733,95.0
1480,0.45796776,-0.016822815,-0.63171387,0.9781128,1.354065,2.2875733,95.0
1481,0.45796776,-0.016822815,-0.63171387,0.32391357,1.363623,1.899939,95.0
1482,0.42717743,0.09998131,-0.5704346,0.32391357,1.363623,1.899939,95.0
1483,0.42717743,0.09998131,-0.5704346,0.0541626,1.3487549,1.7693115,95.0
1484,0.13228226,0.37656784,-0.61839294,0.0541626,1.3487549,1.7693115,95.0
1485,0.13228226,0.37656784,-0.61839294,-0.50020754,1.2584839,1.4655762,95.0
1486,-0.42416668,0.6042576,-0.5471344,-0.50020754,1.2584839,1.4655762,95.0
1487,-0.42416668,0.6042576,-0.5471344,-1.0513916,1.089624,1.1161743,95.0
1488,-1.2229643,0.87013626,-0.2704773,-1.0513916,1.089624,1.1161743,95.0
1489,-1.2229643,0.87013626,-0.2704773,-1.5537232,0.9197022,0.724292,95.0
1490,-1.8001366,1.1679955,0.11672974,-1.5537232,0.9197022,0.724292,95.0
1491,-1.8001366,1.1679955,0.11672974,-1.8956909,0.45454103,0.13168946,95.0
1492,-1.3876066,1.0595932,0.6133728,-1.8956909,0.45454103,0.13168946,95.0
1493,-1.3876066,1.0595932,0.6133728,-2.0337524,-0.31116945,-1.0428956,95.0
1494,-0.88384056,0.7816582,0.7040558,-2.0337524,-0.31116945,-1.0428956,95.0
1495,-0.88384056,0.7816582,0.7040558,-1.8840088,-0.54693604,-1.3806152,95.0
1496,0.0034255981,-0.898159,1.1690674,-1.8840088,-0.54693604,-1.3806152,95.0
1497,0.0034255981,-0.898159,1.1690674,-0.9589966,-1.3742431,-2.5562623,95.0
1498,-0.12001419,-1.0106049,1.1233215,-0.9589966,-1.3742431,-2.5562623,95.0
1499,-0.12001419,-1.0106049,1.1233215,-0.50020754,-1.6078857,-2.819641,95.0
1500,-0.23019123,-1.307312,1.3612213,-0.50020754,-1.6078857,-2.819641,95.0
1501,-0.23019123,-1.307312,1.3612213,0.44710693,-2.076233,-3.2221437,95.0
1502,-0.40219498,-1.4905033,1.4135284,0.44710693,-2.076233,-3.2221437,95.0
1503,-0.40219498,-1.4905033,1.4135284,1.5112427,-2.5095336,-3.4972045,95.0
1504,-0.39496136,-1.4605541,1.1131592,1.5112427,-2.5095336,-3.4972045,95.0
1505,-0.39496136,-1.4605541,1.1131592,2.4097047,-2.7718506,-3.6373901,95.0
1506,-0.20232105,-0.96772385,0.33529663,2.4097047,-2.7718506,-3.6373901,95.0
1507,-0.20232105,-0.96772385,0.33529663,2.8716798,-2.9417725,-3.3963134,95.0
1508,-0.113651276,-0.111507416,-0.6622925,2.8716798,-2.9417725,-3.3963134,95.0
1509,-0.113651276,-0.111507416,-0.6622925,2.7113159,-2.6444092,-3.0171754,95.0
1510,-0.5269928,0.70295715,-1.3410339,2.7113159,-2.6444092,-3.0171754,95.0
1511,-0.5269928,0.70295715,-1.3410339,1.8829468,-2.151636,-2.552014,95.0
1512,-1.3822384,1.1700554,-1.372757,1.8829468,-2.151636,-2.552014,95.0
1513,-1.3822384,1.1700554,-1.372757,0.60109866,-1.7077149,-2.1834962,95.0
1514,-1.8936443,1.3857517,-0.908371,0.60109866,-1.7077149,-2.1834962,95.0
1515,-1.8936443,1.3857517,-0.908371,-0.7317261,-1.3710572,-1.9360474,95.0
1516,-1.6493397,1.1924629,-0.21565247,-0.7317261,-1.3710572,-1.9360474,95.0
1517,-1.6493397,1.1924629,-0.21565247,-1.7926759,-1.0609497,-1.6960328,95.0
1518,-0.96501637,0.7024441,0.44786072,-1.7926759,-1.0609497,-1.6960328,95.0
1519,-0.96501637,0.7024441,0.44786072,-2.4553711,-0.78164065,-1.537793,95.0
1520,-0.39426613,0.09087372,0.8846588,-2.4553711,-0.78164065,-1.537793,95.0
1521,-0.39426613,0.09087372,0.8846588,-2.8132691,-0.50445557,-1.4390259,95.0
1522,-0.16081047,-0.36543655,1.0172119,-2.8132691,-0.50445557,-1.4390259,95.0
1523,-0.16081047,-0.36543655,1.0172119,-2.9513307,-0.3164795,-1.4071655,95.0
1524,-0.17569447,-0.5723667,0.9416504,-2.9513307,-0.3164795,-1.4071655,95.0
1525,-0.17569447,-0.5723667,0.9416504,-2.909912,-0.23895264,-1.442212,95.0
1526,-0.28248692,-0.5777302,0.8647003,-2.909912,-0.23895264,-1.442212,95.0
1527,-0.28248692,-0.5777302,0.8647003,-2.732556,-0.24532472,-1.4878784,95.0
1528,-0.5148926,-0.42718697,0.8676758,-2.732556,-0.24532472,-1.4878784,95.0
1529,-0.5148926,-0.42718697,0.8676758,-2.4744873,-0.26019287,-1.4793824,95.0
1530,-0.85533524,-0.13602448,0.85469055,-2.4744873,-0.26019287,-1.4793824,95.0
1531,-0.85533524,-0.13602448,0.85469055,-2.2004883,-0.28355715,-1.4145997,95.0
1532,-1.0125399,0.15114212,0.7870178,-2.2004883,-0.28355715,-1.4145997,95.0
1533,-1.0125399,0.15114212,0.7870178,-1.9158691,-0.35046387,-1.3466309,95.0
1534,-0.7175884,0.20989037,0.7046356,-1.9158691,-0.35046387,-1.3466309,95.0
1535,-0.7175884,0.20989037,0.7046356,-1.5239868,-0.3982544,-1.2542359,95.0
1536,-0.17637825,0.021343231,0.6375427,-1.5239868,-0.3982544,-1.2542359,95.0
1537,-0.17637825,0.021343231,0.6375427,-1.0333375,-0.43117675,-1.1331666,95.0
1538,0.18881702,-0.24215317,0.55467224,-1.0333375,-0.43117675,-1.1331666,95.0
1539,0.18881702,-0.24215317,0.55467224,-0.4991455,-0.41524658,-0.9547486,95.0
1540,0.15664482,-0.38200378,0.3959961,-0.4991455,-0.41524658,-0.9547486,95.0
1541,0.15664482,-0.38200378,0.3959961,-0.019116212,-0.38657227,-0.74659425,95.0
1542,-0.018092155,-0.31834793,0.16819763,-0.019116212,-0.38657227,-0.74659425,95.0
1543,-0.018092155,-0.31834793,0.16819763,0.36427003,-0.36427003,-0.5065796,95.0
1544,0.07267189,-0.18037415,0.019424438,0.36427003,-0.36427003,-0.5065796,95.0
1545,0.07267189,-0.18037415,0.019424438,0.68712157,-0.33665773,-0.22833252,95.0
1546,0.52176,-0.18098068,0.13891602,0.68712157,-0.33665773,-0.22833252,95.0
1547,0.52176,-0.18098068,0.13891602,1.0779419,-0.24213867,0.070092775,95.0
1548,0.97480583,-0.31487656,0.32759094,1.0779419,-0.24213867,0.070092775,95.0
1549,0.97480583,-0.31487656,0.32759094,1.4963745,0.0,0.43861085,95.0
1550,0.97283745,-0.32167625,0.07975769,1.4963745,0.0,0.43861085,95.0
1551,0.97283745,-0.32167625,0.07975769,1.8510865,0.29630128,0.77739257,95.0
1552,0.6503277,-0.16955948,-0.605011,1.8510865,0.29630128,0.77739257,95.0
1553,0.6503277,-0.16955948,-0.605011,2.171814,0.5713623,1.0641358,95.0
1554,0.41523266,0.0036830902,-1.238678,2.171814,0.5713623,1.0641358,95.0
1555,0.41523266,0.0036830902,-1.238678,2.3831544,0.8496094,1.3222046,95.0
1556,0.3949299,0.19401169,-1.5244904,2.3831544,0.8496094,1.3222046,95.0
1557,0.3949299,0.19401169,-1.5244904,2.4086425,1.1321045,1.6004517,95.0
1558,0.43601227,0.36850357,-1.5203705,2.4086425,1.1321045,1.6004517,95.0
1559,0.43601227,0.36850357,-1.5203705,2.2854493,1.4294678,1.8893188,95.0
1560,0.39020348,0.43686867,-1.2935333,2.2854493,1.4294678,1.8893188,95.0
1561,0.39020348,0.43686867,-1.2935333,2.0295045,1.6779785,2.1813722,95.0
1562,0.25905037,0.35608673,-0.9215698,2.0295045,1.6779785,2.1813722,95.0
1563,0.25905037,0.35608673,-0.9215698,1.720459,1.7746216,2.4628053,95.0
1564,0.18087292,0.14828491,-0.56811523,1.720459,1.7746216,2.4628053,95.0
1565,0.18087292,0.14828491,-0.56811523,1.4135376,1.7873658,2.7484863,95.0
1566,0.27859688,-0.08914757,-0.40385437,1.4135376,1.7873658,2.7484863,95.0
1567,0.27859688,-0.08914757,-0.40385437,1.1841431,1.7045288,2.9492066,95.0
1568,0.59754753,-0.29689217,-0.45246887,1.1841431,1.7045288,2.9492066,95.0
1569,0.59754753,-0.29689217,-0.45246887,1.0768799,1.6439942,3.08302,95.0
1570,1.032054,-0.51255035,-0.5131531,1.0768799,1.6439942,3.08302,95.0
1571,1.032054,-0.51255035,-0.5131531,1.0662597,1.6025757,3.1085083,95.0
1572,1.3364458,-0.73877525,-0.52716064,1.0662597,1.6025757,3.1085083,95.0
1573,1.3364458,-0.73877525,-0.52716064,1.1586548,1.4846925,2.983191,95.0
1574,1.3364458,-0.73877525,-0.52716064,1.1586548,1.4846925,2.983191,95.0
1575,1.3970499,-0.8722706,-0.5339966,1.1586548,1.4846925,2.983191,95.0
1576,1.3970499,-0.8722706,-0.5339966,1.2276856,1.5133667,2.8345094,95.0
1577,1.1852913,-0.921278,-0.48939514,1.2276856,1.5133667,2.8345094,95.0
1578,1.1852913,-0.921278,-0.48939514,1.264856,1.4443359,2.543518,95.0
1579,0.8223543,-0.92038345,-0.40820312,1.264856,1.4443359,2.543518,95.0
1580,0.8223543,-0.92038345,-0.40820312,1.2128174,1.4294678,2.2886353,95.0
1581,0.3810768,-0.816494,-0.2934265,1.2128174,1.4294678,2.2886353,95.0
1582,0.3810768,-0.816494,-0.2934265,1.0503296,1.3891114,2.0454347,95.0
1583,-0.09345436,-0.63313866,-0.13711548,1.0503296,1.3891114,2.0454347,95.0
1584,-0.09345436,-0.63313866,-0.13711548,0.8219971,1.3190186,1.8510865,95.0
1585,-0.21557236,-0.33489227,-0.06414795,0.8219971,1.3190186,1.8510865,95.0
1586,-0.21557236,-0.33489227,-0.06414795,0.5129517,1.2489258,1.6376221,95.0
1587,0.1877222,-0.04014206,-0.09736633,0.5129517,1.2489258,1.6376221,95.0
1588,0.1877222,-0.04014206,-0.09736633,0.11257324,1.177771,1.4209718,95.0
1589,0.62446976,0.02973938,-0.13929749,0.11257324,1.177771,1.4209718,95.0
1590,0.62446976,0.02973938,-0.13929749,-0.23258057,1.0216553,1.1459106,95.0
1591,0.6631746,-0.09906006,-0.1453247,-0.23258057,1.0216553,1.1459106,95.0
1592,0.6631746,-0.09906006,-0.1453247,-0.4885254,0.8591675,0.8644776,95.0
1593,0.38901138,-0.1928215,-0.065216064,-0.4885254,0.8591675,0.8644776,95.0
1594,0.38901138,-0.1928215,-0.065216064,-0.6818115,0.635083,0.5363159,95.0
1595,0.09070206,-0.13005066,0.054992676,-0.6818115,0.635083,0.5363159,95.0
1596,0.09070206,-0.13005066,0.054992676,-0.8623535,0.36427003,0.14974366,95.0
1597,-0.1504488,0.040258408,0.11155701,-0.8623535,0.36427003,0.14974366,95.0
1598,-0.1504488,0.040258408,0.11155701,-0.9866089,0.04141846,-0.2538208,95.0
1599,-0.58180904,0.21731377,0.1408081,-0.9866089,0.04141846,-0.2538208,95.0
1600,-0.58180904,0.21731377,0.1408081,-1.1002442,-0.29311523,-0.62340087,95.0
1601,-1.2104912,0.30093765,0.3032074,-1.1002442,-0.29311523,-0.62340087,95.0
1602,-1.2104912,0.30093765,0.3032074,-1.1650269,-0.6552612,-0.9876709,95.0
1603,-1.579709,0.16953468,0.6666107,-1.1650269,-0.6552612,-0.9876709,95.0
1604,-1.579709,0.16953468,0.6666107,-1.0174073,-1.0694458,-1.3753052,95.0
1605,-1.4585056,-0.11709404,1.0424957,-1.0174073,-1.0694458,-1.3753052,95.0
1606,-1.4585056,-0.11709404,1.0424957,-0.632959,-1.4315919,-1.6726685,95.0
1607,-1.0933304,-0.31589127,1.2032318,-0.632959,-1.4315919,-1.6726685,95.0
