,accx,accy,accz,gyrox,gyroy,gyroz,heart rate
0,walk,walk,walk,walk,walk,walk,walk
1,-0.3296997,0.045410156,0.31905517,0.0,0.0,0.0,0.0
2,-0.3296997,0.045410156,0.31905517,0.11682129,-0.058410645,-0.078588866,0.0
3,-0.23795411,-0.015173339,0.12812012,0.11682129,-0.058410645,-0.078588866,0.0
4,-0.23795411,-0.015173339,0.12812012,0.078588866,0.033984374,-0.025488282,0.0
5,-0.16602248,0.117487796,0.030926272,0.078588866,0.033984374,-0.025488282,0.0
6,-0.16602248,0.117487796,0.030926272,0.039294433,0.03717041,-0.013806152,0.0
7,-0.16100404,0.109542,0.029965624,0.039294433,0.03717041,-0.013806152,0.0
8,-0.16100404,0.109542,0.029965624,0.06903076,0.04460449,-0.04885254,0.0
9,-0.14303663,0.13094415,0.03620395,0.06903076,0.04460449,-0.04885254,0.0
10,-0.14303663,0.13094415,0.03620395,-0.015930176,0.06903076,-0.03717041,0.0
11,-0.14303663,0.13094415,0.03620395,-0.004248047,0.060534667,-0.06159668,0.0
12,-0.09071106,0.10973579,0.01830642,-0.004248047,0.060534667,-0.06159668,0.0
13,-0.031064928,0.06203179,-0.041629285,-0.004248047,0.060534667,-0.06159668,0.0
14,-0.031064928,0.06203179,-0.041629285,-0.039294433,0.06265869,-0.04991455,0.0
15,0.017164648,0.031119585,-0.11963155,-0.039294433,0.06265869,-0.04991455,0.0
16,0.017164648,0.031119585,-0.11963155,-0.04991455,0.052038576,-0.046728518,0.0
17,0.050731212,0.039324373,-0.15475065,-0.04991455,0.052038576,-0.046728518,0.0
18,0.050731212,0.039324373,-0.15475065,-0.12213135,0.0637207,-0.032922365,0.0
19,0.058822274,-0.04201463,-0.10194994,-0.12213135,0.0637207,-0.032922365,0.0
20,0.058822274,-0.04201463,-0.10194994,0.09239502,0.0063720704,-0.06478272,0.0
21,0.05408907,-0.10504725,-0.025016982,0.09239502,0.0063720704,-0.06478272,0.0
22,0.05408907,-0.10504725,-0.025016982,0.046728518,0.011682129,-0.047790527,0.0
23,0.053110123,-0.021842979,-0.03245255,0.046728518,0.011682129,-0.047790527,0.0
24,0.053110123,-0.021842979,-0.03245255,-0.11151123,0.04991455,-0.021240234,0.0
25,9.353608E-4,-0.025775164,-0.07262952,-0.11151123,0.04991455,-0.021240234,0.0
26,9.353608E-4,-0.025775164,-0.07262952,0.060534667,-0.0021240234,-0.03717041,0.0
27,-0.04331909,-0.05331056,-0.051047955,0.060534667,-0.0021240234,-0.03717041,0.0
28,-0.04331909,-0.05331056,-0.051047955,0.04248047,-0.0053100586,-0.025488282,0.0
29,-0.04331909,-0.05331056,-0.051047955,0.04248047,-0.0053100586,-0.025488282,110.0
30,-0.03909862,-0.009396493,-0.0032773288,0.04248047,-0.0053100586,-0.025488282,110.0
31,-0.03909862,-0.009396493,-0.0032773288,-0.0722168,0.0180542,-0.007434082,110.0
32,-0.023930281,-0.016818948,0.012185266,-0.0722168,0.0180542,-0.007434082,110.0
33,-0.023930281,-0.016818948,0.012185266,0.023364259,-0.013806152,-0.019116212,110.0
34,-0.010501653,-0.030947834,0.0055489945,0.023364259,-0.013806152,-0.019116212,110.0
35,-0.010501653,-0.030947834,0.0055489945,0.033984374,-0.019116212,-0.022302246,110.0
36,0.006906301,0.011557654,1.7894153E-4,0.033984374,-0.019116212,-0.022302246,110.0
37,0.006906301,0.011557654,1.7894153E-4,-0.045666505,-0.0021240234,-0.0063720704,110.0
38,0.006906301,0.011557654,1.7894153E-4,0.015930176,-0.021240234,-0.0180542,110.0
39,0.004096806,0.022771515,-2.108505E-4,0.015930176,-0.021240234,-0.0180542,110.0
40,-0.0050599575,0.007841237,0.018813252,0.015930176,-0.021240234,-0.0180542,110.0
41,-0.0050599575,0.007841237,0.018813252,0.043542482,-0.032922365,-0.019116212,110.0
42,0.006462276,0.029039107,0.056823064,0.043542482,-0.032922365,-0.019116212,110.0
43,0.006462276,0.029039107,0.056823064,-0.039294433,-0.010620117,-0.012744141,110.0
44,0.015692264,0.019788906,0.07574409,-0.039294433,-0.010620117,-0.012744141,110.0
45,0.015692264,0.019788906,0.07574409,-0.0063720704,-0.0180542,-0.008496094,110.0
46,0.013737887,-0.04605852,0.0717525,-0.0063720704,-0.0180542,-0.008496094,110.0
47,0.013737887,-0.04605852,0.0717525,0.04141846,-0.016992187,-0.0063720704,110.0
48,0.025528878,-0.06548452,0.053068504,0.04141846,-0.016992187,-0.0063720704,110.0
49,0.025528878,-0.06548452,0.053068504,0.015930176,-0.0021240234,-0.0021240234,110.0
50,0.034522235,-0.013825603,0.034385957,0.015930176,-0.0021240234,-0.0021240234,110.0
51,0.034522235,-0.013825603,0.034385957,0.011682129,0.0053100586,-0.0063720704,110.0
52,0.028557733,0.037389226,0.011468723,0.011682129,0.0053100586,-0.0063720704,110.0
53,0.028557733,0.037389226,0.011468723,0.014868164,0.012744141,-0.011682129,110.0
54,0.0058661997,0.041337162,-0.018388495,0.014868164,0.012744141,-0.011682129,110.0
55,0.0058661997,0.041337162,-0.018388495,-0.028674318,0.0180542,-0.013806152,110.0
56,-1.2880564E-4,0.014112212,-0.034693707,-0.028674318,0.0180542,-0.013806152,110.0
57,-1.2880564E-4,0.014112212,-0.034693707,-0.016992187,0.015930176,-0.008496094,110.0
58,-0.009929717,1.2033433E-4,-0.03616561,-0.016992187,0.015930176,-0.008496094,110.0
59,-0.009929717,1.2033433E-4,-0.03616561,0.0031860352,0.010620117,-0.010620117,110.0
60,-0.0024383962,0.010118239,-0.052614126,0.0031860352,0.010620117,-0.010620117,110.0
61,-0.0024383962,0.010118239,-0.052614126,-0.0063720704,0.009558106,-0.020178223,110.0
62,0.008840308,0.029163927,-0.0731582,-0.0063720704,0.009558106,-0.020178223,110.0
63,0.008840308,0.029163927,-0.0731582,-0.009558106,0.0031860352,-0.025488282,110.0
64,0.006303206,0.03334091,-0.06275019,-0.009558106,0.0031860352,-0.025488282,110.0
65,0.006303206,0.03334091,-0.06275019,-0.016992187,-0.004248047,-0.027612304,110.0
66,0.0034800768,0.02204626,-0.058159135,-0.016992187,-0.004248047,-0.027612304,110.0
67,0.0034800768,0.02204626,-0.058159135,-0.03079834,-0.013806152,-0.03079834,110.0
68,0.012513071,-4.171878E-4,-0.050580047,-0.03079834,-0.013806152,-0.03079834,110.0
69,0.012513071,-4.171878E-4,-0.050580047,-0.021240234,-0.014868164,-0.026550293,110.0
70,0.028406456,-0.02358815,-0.032798022,-0.021240234,-0.014868164,-0.026550293,110.0
71,0.028406456,-0.02358815,-0.032798022,0.008496094,-0.02442627,-0.027612304,110.0
72,0.05214411,-0.011582926,-0.014605116,0.008496094,-0.02442627,-0.027612304,110.0
73,0.05214411,-0.011582926,-0.014605116,-0.023364259,-0.022302246,-0.03186035,110.0
74,0.059268996,0.0119128525,-0.011452161,-0.023364259,-0.022302246,-0.03186035,110.0
75,0.059268996,0.0119128525,-0.011452161,-0.033984374,-0.022302246,-0.043542482,110.0
76,0.060891762,0.0401211,-0.0012027435,-0.033984374,-0.022302246,-0.043542482,110.0
77,0.060891762,0.0401211,-0.0012027435,-0.05628662,-0.020178223,-0.06159668,110.0
78,0.07636234,0.060539275,0.010622278,-0.05628662,-0.020178223,-0.06159668,110.0
79,0.07636234,0.060539275,0.010622278,-0.09664307,0.0010620117,-0.07434082,110.0
80,0.08937357,0.03861697,0.012343038,-0.09664307,0.0010620117,-0.07434082,110.0
81,0.08937357,0.03861697,0.012343038,-0.08283692,0.010620117,-0.083898924,110.0
82,0.08937357,0.03861697,0.012343038,-0.07327881,0.032922365,-0.107263185,110.0
83,0.10655745,0.056162134,0.017137615,-0.07327881,0.032922365,-0.107263185,110.0
84,0.13795592,0.17266408,0.03954017,-0.07327881,0.032922365,-0.107263185,110.0
85,0.13795592,0.17266408,0.03954017,-0.15930176,0.083898924,-0.16673584,110.0
86,0.13673192,0.23152727,0.06859503,-0.15930176,0.083898924,-0.16673584,110.0
87,0.13673192,0.23152727,0.06859503,-0.1985962,0.11151123,-0.20921631,110.0
88,0.09961991,0.13440394,0.07231987,-0.1985962,0.11151123,-0.20921631,110.0
89,0.09961991,0.13440394,0.07231987,-0.16673584,0.13275146,-0.24320069,110.0
90,0.08776478,0.043363005,0.03671332,-0.16673584,0.13275146,-0.24320069,110.0
91,0.08776478,0.043363005,0.03671332,-0.1444336,0.1444336,-0.24001466,110.0
92,0.08695987,0.051853478,-0.0339228,-0.1444336,0.1444336,-0.24001466,110.0
93,0.08695987,0.051853478,-0.0339228,-0.1539917,0.15505372,-0.24107666,110.0
94,0.09459231,0.10168785,-0.09041949,-0.1539917,0.15505372,-0.24107666,110.0
95,0.09459231,0.10168785,-0.09041949,-0.16673584,0.16248779,-0.25063476,110.0
96,0.11732424,0.097756535,-0.12001626,-0.16673584,0.16248779,-0.25063476,110.0
97,0.11732424,0.097756535,-0.12001626,-0.17841797,0.15717773,-0.26868898,110.0
98,0.07106887,0.047882974,-0.13937238,-0.17841797,0.15717773,-0.26868898,110.0
99,0.07106887,0.047882974,-0.13937238,-0.20390625,0.14230958,-0.29630128,110.0
100,-0.011174694,0.012024641,-0.17006725,-0.20390625,0.14230958,-0.29630128,110.0
101,-0.011174694,0.012024641,-0.17006725,-0.21558838,0.14230958,-0.32285157,110.0
102,0.012276068,0.012878984,-0.19852939,-0.21558838,0.14230958,-0.32285157,110.0
103,0.012276068,0.012878984,-0.19852939,-0.1985962,0.14655761,-0.3536499,110.0
104,0.07860748,0.07933396,-0.18270048,-0.1985962,0.14655761,-0.3536499,110.0
105,0.07860748,0.07933396,-0.18270048,-0.2357666,0.14230958,-0.38232422,110.0
106,-0.007792726,0.12459999,-0.13518625,-0.2357666,0.14230958,-0.38232422,110.0
107,-0.007792726,0.12459999,-0.13518625,-0.27506104,0.14124756,-0.3982544,110.0
108,-0.17664434,0.07636458,-0.097638756,-0.27506104,0.14124756,-0.3982544,110.0
109,-0.17664434,0.07636458,-0.097638756,-0.2347046,0.1444336,-0.40993652,110.0
110,-0.20827104,0.056233257,-0.08251774,-0.2347046,0.1444336,-0.40993652,110.0
111,-0.20827104,0.056233257,-0.08251774,-0.24107666,0.15080567,-0.44498292,110.0
112,-0.116555795,0.108634055,-0.09672707,-0.24107666,0.15080567,-0.44498292,110.0
113,-0.116555795,0.108634055,-0.09672707,-0.27612305,0.1444336,-0.49277344,110.0
114,-0.05767335,0.112273455,-0.05786264,-0.27612305,0.1444336,-0.49277344,110.0
115,-0.05767335,0.112273455,-0.05786264,-0.3334717,0.1178833,-0.5787964,110.0
116,-0.06743995,-0.005859971,0.08832905,-0.3334717,0.1178833,-0.5787964,110.0
117,-0.06743995,-0.005859971,0.08832905,-0.30373535,0.0722168,-0.6403931,110.0
118,-0.07132257,-0.07396287,0.24882486,-0.30373535,0.0722168,-0.6403931,110.0
119,-0.07132257,-0.07396287,0.24882486,-0.33134767,0.03186035,-0.6924316,110.0
120,-0.0979394,0.0056978464,0.2983641,-0.33134767,0.03186035,-0.6924316,110.0
121,-0.0979394,0.0056978464,0.2983641,-0.40037844,0.022302246,-0.66269535,110.0
122,-0.18974069,0.10150653,0.30437732,-0.40037844,0.022302246,-0.66269535,110.0
123,-0.18974069,0.10150653,0.30437732,-0.41206056,0.0180542,-0.6435791,110.0
124,-0.24720271,0.08992106,0.33982754,-0.41206056,0.0180542,-0.6435791,110.0
125,-0.24720271,0.08992106,0.33982754,-0.37807617,0.025488282,-0.5968506,110.0
126,-0.24720271,0.08992106,0.33982754,-0.37807617,0.025488282,-0.5968506,110.0
127,-0.23037934,0.024341643,0.37247238,-0.37807617,0.025488282,-0.5968506,110.0
128,-0.23037934,0.024341643,0.37247238,-0.35895997,0.032922365,-0.5235718,110.0
129,-0.2654314,-0.007699549,0.33675963,-0.35895997,0.032922365,-0.5235718,110.0
130,-0.2654314,-0.007699549,0.33675963,-0.33240968,0.039294433,-0.47471926,110.0
131,-0.37038955,-0.0414868,0.23580176,-0.33240968,0.039294433,-0.47471926,110.0
132,-0.37038955,-0.0414868,0.23580176,-0.2347046,0.0541626,-0.4322388,110.0
133,-0.39127013,-0.08531344,0.12473762,-0.2347046,0.0541626,-0.4322388,110.0
134,-0.39127013,-0.08531344,0.12473762,-0.124255374,0.06796875,-0.40250245,110.0
135,-0.29846537,-0.055152595,0.05032721,-0.124255374,0.06796875,-0.40250245,110.0
136,-0.29846537,-0.055152595,0.05032721,-0.098767094,0.07646485,-0.3695801,110.0
137,-0.23263216,0.035833955,0.018838435,-0.098767094,0.07646485,-0.3695801,110.0
138,-0.23263216,0.035833955,0.018838435,-0.118945315,0.087084964,-0.34833986,110.0
139,-0.18792456,0.054973304,0.025202572,-0.118945315,0.087084964,-0.34833986,110.0
140,-0.18792456,0.054973304,0.025202572,-0.10301514,0.098767094,-0.3164795,110.0
141,-0.07393587,-0.011343598,0.041963816,-0.10301514,0.098767094,-0.3164795,110.0
142,-0.07393587,-0.011343598,0.041963816,-0.09133301,0.12000733,-0.29948732,110.0
143,0.052838624,-0.06420183,0.013795674,-0.09133301,0.12000733,-0.29948732,110.0
144,0.052838624,-0.06420183,0.013795674,-0.06584473,0.13487549,-0.26656494,110.0
145,0.095505714,-0.030902505,-0.038511813,-0.06584473,0.13487549,-0.26656494,110.0
146,0.095505714,-0.030902505,-0.038511813,-0.060534667,0.15080567,-0.2516968,110.0
147,0.07126546,0.053757012,-0.04933971,-0.060534667,0.15080567,-0.2516968,110.0
148,0.07126546,0.053757012,-0.04933971,-0.07327881,0.16248779,-0.2442627,110.0
149,0.044317067,0.08448511,-0.023602635,-0.07327881,0.16248779,-0.2442627,110.0
150,0.044317067,0.08448511,-0.023602635,-0.06690674,0.18266602,-0.21240234,110.0
151,0.045854032,0.034531474,-0.0034524202,-0.06690674,0.18266602,-0.21240234,110.0
152,0.045854032,0.034531474,-0.0034524202,0.008496094,0.1731079,-0.18160401,110.0
153,0.04489857,-0.0055168867,0.035214156,0.008496094,0.1731079,-0.18160401,110.0
154,0.04489857,-0.0055168867,0.035214156,0.098767094,0.16354981,-0.1359375,110.0
155,0.044329464,0.004265666,0.08902338,0.098767094,0.16354981,-0.1359375,110.0
156,0.044329464,0.004265666,0.08902338,0.1529297,0.1731079,-0.08814698,110.0
157,0.06342989,0.06773138,0.11692184,0.1529297,0.1731079,-0.08814698,110.0
158,0.06342989,0.06773138,0.11692184,0.17947999,0.18054199,-0.06159668,110.0
159,0.11281669,0.12474173,0.116779655,0.17947999,0.18054199,-0.06159668,110.0
160,0.11281669,0.12474173,0.116779655,0.16992188,0.19541016,-0.058410645,110.0
161,0.16182321,0.068042874,0.14800137,0.16992188,0.19541016,-0.058410645,110.0
162,0.16182321,0.068042874,0.14800137,0.18266602,0.20603028,-0.04885254,110.0
163,0.17713925,-0.102377236,0.20408225,0.18266602,0.20603028,-0.04885254,110.0
164,0.17713925,-0.102377236,0.20408225,0.25063476,0.1996582,-0.019116212,110.0
165,0.17910156,-0.18582022,0.23017251,0.25063476,0.1996582,-0.019116212,110.0
166,0.17910156,-0.18582022,0.23017251,0.31329346,0.20496826,0.019116212,110.0
167,0.19479492,-0.10413712,0.22494614,0.31329346,0.20496826,0.019116212,110.0
168,0.19479492,-0.10413712,0.22494614,0.29099122,0.24001466,0.057348635,110.0
169,0.22634375,-0.08522618,0.22909021,0.29099122,0.24001466,0.057348635,110.0
170,0.22634375,-0.08522618,0.22909021,0.3175415,0.2623169,0.08283692,110.0
171,0.21956378,-0.32718974,0.24035227,0.3175415,0.2623169,0.08283692,110.0
172,0.21956378,-0.32718974,0.24035227,0.45666504,0.22514649,0.107263185,110.0
173,0.20625407,-0.5891566,0.26907623,0.45666504,0.22514649,0.107263185,110.0
174,0.20625407,-0.5891566,0.26907623,0.5543701,0.17841797,0.0637207,110.0
175,0.26263508,-0.59604454,0.32358623,0.5543701,0.17841797,0.0637207,110.0
176,0.26263508,-0.59604454,0.32358623,0.51826173,0.15186767,0.04248047,110.0
177,0.29559392,-0.51659393,0.31043148,0.51826173,0.15186767,0.04248047,110.0
178,0.29559392,-0.51659393,0.31043148,0.43754885,0.15080567,0.0021240234,110.0
179,0.5571172,-0.33838502,0.23093796,0.43754885,0.15080567,0.0021240234,110.0
180,0.5571172,-0.33838502,0.23093796,0.14974366,0.19222413,-0.07327881,110.0
181,0.59324014,-0.2863208,0.0790863,0.14974366,0.19222413,-0.07327881,110.0
182,0.59324014,-0.2863208,0.0790863,0.06796875,0.20284425,-0.07646485,110.0
183,0.62063706,-0.41348046,-0.5481446,0.06796875,0.20284425,-0.07646485,110.0
184,0.62063706,-0.41348046,-0.5481446,-0.025488282,0.21877442,-0.107263185,110.0
185,0.51799405,-0.40649238,-0.67037606,-0.025488282,0.21877442,-0.107263185,110.0
186,0.51799405,-0.40649238,-0.67037606,-0.014868164,0.22833252,-0.1274414,110.0
187,0.4769807,-0.37055522,-1.1088595,-0.014868164,0.22833252,-0.1274414,110.0
188,0.4769807,-0.37055522,-1.1088595,-0.12956543,0.2782471,-0.21240234,110.0
189,0.42720222,-0.27626598,-1.0381007,-0.12956543,0.2782471,-0.21240234,110.0
190,0.42720222,-0.27626598,-1.0381007,-0.1720459,0.2824951,-0.2548828,110.0
191,0.28707427,-0.250566,-1.2418575,-0.1720459,0.2824951,-0.2548828,110.0
192,0.28707427,-0.250566,-1.2418575,-0.29205322,0.27718505,-0.4163086,110.0
193,0.23444462,-0.15274775,-1.1287888,-0.29205322,0.27718505,-0.4163086,110.0
194,0.23444462,-0.15274775,-1.1287888,-0.37807617,0.26762697,-0.4694092,110.0
195,0.14789504,-0.048199177,-1.3369788,-0.37807617,0.26762697,-0.4694092,110.0
196,0.14789504,-0.048199177,-1.3369788,-0.6202149,0.19434814,-0.6977417,110.0
197,0.13951963,0.08725852,-1.2111602,-0.6202149,0.19434814,-0.6977417,110.0
198,0.13951963,0.08725852,-1.2111602,-0.725354,0.16885987,-0.7784546,110.0
199,0.16991651,0.23378384,-1.23791,-0.725354,0.16885987,-0.7784546,110.0
200,0.16991651,0.23378384,-1.23791,-0.95368654,0.13168946,-0.9409424,110.0
201,0.19314754,0.25657052,-1.2018759,-0.95368654,0.13168946,-0.9409424,110.0
202,0.19314754,0.25657052,-1.2018759,-1.1193603,0.057348635,-1.1087402,110.0
203,0.18012834,0.19268316,-1.1026506,-1.1193603,0.057348635,-1.1087402,110.0
204,0.18012834,0.19268316,-1.1026506,-1.268042,-0.027612304,-1.2945923,110.0
205,0.1530993,0.18440777,-0.9511268,-1.268042,-0.027612304,-1.2945923,110.0
206,0.1530993,0.18440777,-0.9511268,-1.4135376,-0.12531738,-1.4815063,110.0
207,0.15254533,0.31022155,-0.76834774,-1.4135376,-0.12531738,-1.4815063,110.0
208,0.15254533,0.31022155,-0.76834774,-1.6514282,-0.20921631,-1.6769165,110.0
209,0.1544826,0.60035014,-0.5858207,-1.6514282,-0.20921631,-1.6769165,110.0
210,0.1544826,0.60035014,-0.5858207,-2.0507448,-0.29205322,-1.8691406,110.0
211,0.10819304,0.9499334,-0.48519707,-2.0507448,-0.29205322,-1.8691406,110.0
212,0.10819304,0.9499334,-0.48519707,-2.5042236,-0.38975832,-2.0974731,110.0
213,0.061615467,1.219578,-0.49722743,-2.5042236,-0.38975832,-2.0974731,110.0
214,0.061615467,1.219578,-0.49722743,-2.9407105,-0.46834716,-2.353418,110.0
215,0.103870034,1.3148348,-0.5409703,-2.9407105,-0.46834716,-2.353418,110.0
216,0.103870034,1.3148348,-0.5409703,-3.361267,-0.544812,-2.6104248,110.0
217,0.1796658,1.2810793,-0.5392337,-3.361267,-0.544812,-2.6104248,110.0
218,0.1796658,1.2810793,-0.5392337,-3.7510254,-0.630835,-2.902478,110.0
219,0.22774148,1.2233741,-0.512527,-3.7510254,-0.630835,-2.902478,110.0
220,0.22774148,1.2233741,-0.512527,-4.1046753,-0.7147339,-3.2423217,110.0
221,0.20593596,1.2424688,-0.45505333,-4.1046753,-0.7147339,-3.2423217,110.0
222,0.20593596,1.2424688,-0.45505333,-4.411597,-0.8028809,-3.5980957,110.0
223,0.199319,1.2553765,-0.32001185,-4.411597,-0.8028809,-3.5980957,110.0
224,0.199319,1.2553765,-0.32001185,-4.721704,-0.8793457,-3.9591796,110.0
225,0.29583216,1.044975,0.055171967,-4.721704,-0.8793457,-3.9591796,110.0
226,0.29583216,1.044975,0.055171967,-5.155005,-0.8464233,-4.2905273,110.0
227,0.62727857,0.2945006,0.7128022,-5.155005,-0.8464233,-4.2905273,110.0
228,0.62727857,0.2945006,0.7128022,-5.550073,-0.6839356,-4.5485964,110.0
229,0.62727857,0.2945006,0.7128022,-5.550073,-0.6839356,-4.5485964,111.0
230,0.97604156,-0.90133786,1.4031639,-5.550073,-0.6839356,-4.5485964,111.0
231,0.97604156,-0.90133786,1.4031639,-5.433252,-0.68712157,-4.7418823,111.0
232,0.96641684,-1.819581,1.8031828,-5.433252,-0.68712157,-4.7418823,111.0
233,0.96641684,-1.819581,1.8031828,-5.248462,-0.73809814,-4.8756957,111.0
234,0.95498157,-2.5742683,1.805327,-5.248462,-0.73809814,-4.8756957,111.0
235,0.95498157,-2.5742683,1.805327,-4.12273,-0.30267334,-4.634619,111.0
236,1.0392051,-3.5687776,1.7849599,-4.12273,-0.30267334,-4.634619,111.0
237,1.0392051,-3.5687776,1.7849599,-2.71344,-0.43117675,-4.4912477,111.0
238,0.5691447,-3.6174977,1.7295427,-2.71344,-0.43117675,-4.4912477,111.0
239,0.5691447,-3.6174977,1.7295427,-1.8585205,-0.5883545,-4.329822,111.0
240,0.28510094,-2.4447672,1.4301186,-1.8585205,-0.5883545,-4.329822,111.0
241,0.28510094,-2.4447672,1.4301186,-2.1027832,-0.68287355,-3.8189943,111.0
242,1.0681686,-1.4883211,0.946463,-2.1027832,-0.68287355,-3.8189943,111.0
243,1.0681686,-1.4883211,0.946463,-2.2185426,-0.4248047,-4.0133424,111.0
244,1.8287048,-1.1517653,0.7710742,-2.2185426,-0.4248047,-4.0133424,111.0
245,1.8287048,-1.1517653,0.7710742,-2.2089844,-0.046728518,-3.877405,111.0
246,1.9044437,-1.3715343,0.8484878,-2.2089844,-0.046728518,-3.877405,111.0
247,1.9044437,-1.3715343,0.8484878,-2.433069,0.093457036,-3.8582885,111.0
248,2.1764846,-1.9497056,0.67158806,-2.433069,0.093457036,-3.8582885,111.0
249,2.1764846,-1.9497056,0.67158806,-2.16969,0.21983643,-3.709607,111.0
250,2.2864637,-2.0823107,0.039943814,-2.16969,0.21983643,-3.709607,111.0
251,2.2864637,-2.0823107,0.039943814,-1.8351563,0.6042847,-3.2370117,111.0
252,0.62056494,-1.4708657,-0.50278616,-1.8351563,0.6042847,-3.2370117,111.0
253,0.62056494,-1.4708657,-0.50278616,-1.8425903,0.7423462,-2.7357423,111.0
254,-2.1297932,-0.6555376,-0.51764643,-1.8425903,0.7423462,-2.7357423,111.0
255,-2.1297932,-0.6555376,-0.51764643,-1.7863038,0.63933104,-2.18562,111.0
256,-3.8995132,-0.026480913,-0.18584564,-1.7863038,0.63933104,-2.18562,111.0
257,-3.8995132,-0.026480913,-0.18584564,-1.4592041,0.540564,-1.44646,111.0
258,-4.115143,0.33593202,0.08335474,-1.4592041,0.540564,-1.44646,111.0
259,-4.115143,0.33593202,0.08335474,-0.9303223,0.38975832,-0.9398804,111.0
260,-3.4674804,0.7139361,0.076486036,-0.9303223,0.38975832,-0.9398804,111.0
261,-3.4674804,0.7139361,0.076486036,-0.5872925,0.24851075,-0.5065796,111.0
262,-2.7061744,1.1272402,-0.025627583,-0.5872925,0.24851075,-0.5065796,111.0
263,-2.7061744,1.1272402,-0.025627583,-0.48640138,0.16248779,-0.12956543,111.0
264,-2.116905,1.3487403,0.03429529,-0.48640138,0.16248779,-0.12956543,111.0
265,-2.116905,1.3487403,0.03429529,-0.52250975,0.1274414,0.13912354,111.0
266,-1.6469908,1.3790045,0.26150605,-0.52250975,0.1274414,0.13912354,111.0
267,-1.6469908,1.3790045,0.26150605,-0.72854006,0.12213135,0.32603762,111.0
268,-1.3318017,1.3233819,0.43818435,-0.72854006,0.12213135,0.32603762,111.0
269,-1.3318017,1.3233819,0.43818435,-0.99722904,0.14549561,0.41737062,111.0
270,-1.280993,1.2642598,0.44114807,-0.99722904,0.14549561,0.41737062,111.0
271,-1.280993,1.2642598,0.44114807,-1.2043213,0.15823975,0.4078125,111.0
272,-1.3140888,1.1162052,0.37152198,-1.2043213,0.15823975,0.4078125,111.0
273,-1.3140888,1.1162052,0.37152198,-1.2181275,0.18266602,0.3355957,111.0
274,-1.1040299,0.8489578,0.2925545,-1.2181275,0.18266602,0.3355957,111.0
275,-1.1040299,0.8489578,0.2925545,-1.0397094,0.18585205,0.29736328,111.0
276,-0.6571009,0.71031857,0.19020817,-1.0397094,0.18585205,0.29736328,111.0
277,-0.6571009,0.71031857,0.19020817,-0.8251831,0.16673584,0.2803711,111.0
278,-0.29205036,0.8101127,0.1259214,-0.8251831,0.16673584,0.2803711,111.0
279,-0.29205036,0.8101127,0.1259214,-0.6616333,0.14018555,0.2899292,111.0
280,-0.11449969,0.8460027,0.19487774,-0.6616333,0.14018555,0.2899292,111.0
281,-0.11449969,0.8460027,0.19487774,-0.42374268,0.10195313,0.3164795,111.0
282,0.05493343,0.659871,0.36120003,-0.42374268,0.10195313,0.3164795,111.0
283,0.05493343,0.659871,0.36120003,-0.06265869,0.06265869,0.3430298,111.0
284,0.28346086,0.47425908,0.5252149,-0.06265869,0.06265869,0.3430298,111.0
285,0.28346086,0.47425908,0.5252149,0.2177124,0.023364259,0.38657227,111.0
286,0.39023304,0.47550106,0.6103697,0.2177124,0.023364259,0.38657227,111.0
287,0.39023304,0.47550106,0.6103697,0.32922363,-0.0180542,0.40993652,111.0
288,0.25922012,0.58286667,0.582412,0.32922363,-0.0180542,0.40993652,111.0
289,0.25922012,0.58286667,0.582412,0.2814331,-0.039294433,0.4619751,111.0
290,-0.013034105,0.59749454,0.44793642,0.2814331,-0.039294433,0.4619751,111.0
291,-0.013034105,0.59749454,0.44793642,0.1539917,-0.045666505,0.4598511,111.0
292,-0.1668604,0.4464893,0.27073932,0.1539917,-0.045666505,0.4598511,111.0
293,-0.1668604,0.4464893,0.27073932,0.0053100586,-0.04991455,0.4322388,111.0
294,-0.08738232,0.22241361,0.15118623,0.0053100586,-0.04991455,0.4322388,111.0
295,-0.08738232,0.22241361,0.15118623,-0.11682129,-0.0541626,0.40356445,111.0
296,0.112894416,-0.007945582,0.1210711,-0.11682129,-0.0541626,0.40356445,111.0
297,0.112894416,-0.007945582,0.1210711,-0.09664307,-0.043542482,0.35789797,111.0
298,0.32389706,-0.23222315,0.13960588,-0.09664307,-0.043542482,0.35789797,111.0
299,0.32389706,-0.23222315,0.13960588,0.004248047,-0.023364259,0.2814331,111.0
300,0.596874,-0.3557004,0.13944352,0.004248047,-0.023364259,0.2814331,111.0
301,0.596874,-0.3557004,0.13944352,0.057348635,0.0,0.20390625,111.0
302,1.1187835,-0.35316384,0.087055326,0.057348635,0.0,0.20390625,111.0
303,1.1187835,-0.35316384,0.087055326,0.040356446,0.007434082,0.14974366,111.0
304,2.1444163,-0.33398372,0.06311345,0.040356446,0.007434082,0.14974366,111.0
305,2.1444163,-0.33398372,0.06311345,-0.0031860352,-0.050976563,0.15823975,111.0
306,3.3443174,-0.6121455,0.18899179,-0.0031860352,-0.050976563,0.15823975,111.0
307,3.3443174,-0.6121455,0.18899179,0.24320069,0.04885254,0.023364259,111.0
308,3.383828,-0.946357,0.2852999,0.24320069,0.04885254,0.023364259,111.0
309,3.383828,-0.946357,0.2852999,0.9781128,0.14974366,0.004248047,111.0
310,1.8155341,-0.6331476,-0.031733274,0.9781128,0.14974366,0.004248047,111.0
311,1.8155341,-0.6331476,-0.031733274,1.6471802,0.16248779,0.09664307,111.0
312,-0.14564395,0.46405077,-0.80542815,1.6471802,0.16248779,0.09664307,111.0
313,-0.14564395,0.46405077,-0.80542815,2.0072021,0.08071289,0.25700685,111.0
314,-1.2465934,1.7501713,-1.5313299,2.0072021,0.08071289,0.25700685,111.0
315,-1.2465934,1.7501713,-1.5313299,1.9615357,-0.0031860352,0.47684327,111.0
316,-1.415268,2.434976,-1.7112211,1.9615357,-0.0031860352,0.47684327,111.0
317,-1.415268,2.434976,-1.7112211,1.6461182,-0.03186035,0.6117188,111.0
318,-1.3616943,2.2904367,-1.3371898,1.6461182,-0.03186035,0.6117188,111.0
319,-1.3616943,2.2904367,-1.3371898,1.1299804,-0.057348635,0.70305175,111.0
320,-1.3364258,1.6141244,-0.76054776,1.1299804,-0.057348635,0.70305175,111.0
321,-1.3364258,1.6141244,-0.76054776,0.71367186,-0.05522461,0.6818115,111.0
322,-1.071228,0.8580842,-0.32635814,0.71367186,-0.05522461,0.6818115,111.0
323,-1.071228,0.8580842,-0.32635814,0.48640138,0.0,0.5479981,111.0
324,-0.6683594,0.43274426,-0.2339625,0.48640138,0.0,0.5479981,111.0
325,-0.6683594,0.43274426,-0.2339625,0.2166504,0.047790527,0.51932377,111.0
326,-0.5796826,0.32181787,-0.4547115,0.2166504,0.047790527,0.51932377,111.0
327,-0.5796826,0.32181787,-0.4547115,0.035046387,0.07327881,0.46622315,111.0
328,-0.7614878,0.29605293,-0.6911374,0.035046387,0.07327881,0.46622315,111.0
329,-0.7614878,0.29605293,-0.6911374,-0.046728518,0.1083252,0.3717041,111.0
330,-0.80588216,0.17738187,-0.66302955,-0.046728518,0.1083252,0.3717041,111.0
331,-0.80588216,0.17738187,-0.66302955,0.009558106,0.13275146,0.3164795,111.0
332,-0.80588216,0.17738187,-0.66302955,0.009558106,0.13275146,0.3164795,110.0
333,-0.67561394,-0.015223384,-0.44708622,0.009558106,0.13275146,0.3164795,110.0
334,-0.67561394,-0.015223384,-0.44708622,0.2177124,0.11151123,0.27399904,110.0
335,-0.5779301,-0.06053078,-0.27544242,0.2177124,0.11151123,0.27399904,110.0
336,-0.5779301,-0.06053078,-0.27544242,0.29523927,0.09770508,0.23682861,110.0
337,-0.445413,-0.0030144453,-0.18136466,0.29523927,0.09770508,0.23682861,110.0
338,-0.445413,-0.0030144453,-0.18136466,0.2516968,0.08602295,0.18691407,110.0
339,-0.63872784,-0.94130313,0.5750987,0.2516968,0.08602295,0.18691407,110.0
340,-0.63872784,-0.94130313,0.5750987,0.22727051,0.0637207,0.10938721,110.0
341,-0.21552324,-0.8693634,0.5095052,0.22727051,0.0637207,0.10938721,110.0
342,-0.21552324,-0.8693634,0.5095052,0.21346436,0.060534667,0.02442627,110.0
343,-0.02996254,-0.78976566,0.44526285,0.21346436,0.060534667,0.02442627,110.0
344,-0.02996254,-0.78976566,0.44526285,0.14124756,0.087084964,-0.06903076,110.0
345,-0.094819665,-0.674232,0.3855438,0.14124756,0.087084964,-0.06903076,110.0
346,-0.094819665,-0.674232,0.3855438,0.040356446,0.121069334,-0.14868164,110.0
347,-0.16416138,-0.5862484,0.3446411,0.040356446,0.121069334,-0.14868164,110.0
348,-0.16416138,-0.5862484,0.3446411,-0.019116212,0.14230958,-0.20921631,110.0
349,-0.04703957,-0.5172165,0.3210864,-0.019116212,0.14230958,-0.20921631,110.0
350,-0.04703957,-0.5172165,0.3210864,-0.03717041,0.14655761,-0.24957275,110.0
351,0.21069598,-0.42322144,0.32873192,-0.03717041,0.14655761,-0.24957275,110.0
352,0.21069598,-0.42322144,0.32873192,-0.060534667,0.14868164,-0.27293703,110.0
353,0.5600851,-0.32323292,0.36646456,-0.060534667,0.14868164,-0.27293703,110.0
354,0.5600851,-0.32323292,0.36646456,-0.078588866,0.14230958,-0.28568116,110.0
355,1.0111052,-0.21246818,0.38949734,-0.078588866,0.14230958,-0.28568116,110.0
356,1.0111052,-0.21246818,0.38949734,-0.107263185,0.14655761,-0.3164795,110.0
357,1.3765966,-0.008341253,0.37269408,-0.107263185,0.14655761,-0.3164795,110.0
358,1.3765966,-0.008341253,0.37269408,-0.26975098,0.15930176,-0.30267334,110.0
359,1.3750932,0.23235288,0.33896336,-0.26975098,0.15930176,-0.30267334,110.0
360,1.3750932,0.23235288,0.33896336,-0.5363159,0.18266602,-0.30161133,110.0
361,1.2456801,0.22888768,0.35115117,-0.5363159,0.18266602,-0.30161133,110.0
362,1.2456801,0.22888768,0.35115117,-0.7306641,0.1731079,-0.3791382,110.0
363,1.6182725,-0.13553,0.463648,-0.7306641,0.1731079,-0.3791382,110.0
364,1.6182725,-0.13553,0.463648,-0.7455322,0.12850343,-0.544812,110.0
365,2.3184586,-0.4650036,0.5839555,-0.7455322,0.12850343,-0.544812,110.0
366,2.3184586,-0.4650036,0.5839555,-0.8506714,0.1359375,-0.6202149,110.0
367,2.1971374,-0.4277768,0.58211803,-0.8506714,0.1359375,-0.6202149,110.0
368,2.1971374,-0.4277768,0.58211803,-1.1331666,0.21558838,-0.5533081,110.0
369,0.6794872,-0.17143288,0.50629497,-1.1331666,0.21558838,-0.5533081,110.0
370,0.6794872,-0.17143288,0.50629497,-1.3264526,0.21346436,-0.45560303,110.0
371,-1.2183243,0.05534637,0.4954412,-1.3264526,0.21346436,-0.45560303,110.0
372,-1.2183243,0.05534637,0.4954412,-1.2542359,0.087084964,-0.29311523,110.0
373,-2.3013196,0.13901587,0.57639444,-1.2542359,0.087084964,-0.29311523,110.0
374,-2.3013196,0.13901587,0.57639444,-1.0184692,-0.04460449,-0.10513916,110.0
375,-2.464603,0.104218066,0.63197744,-1.0184692,-0.04460449,-0.10513916,110.0
376,-2.464603,0.104218066,0.63197744,-0.7805786,-0.12213135,0.008496094,110.0
377,-2.1117947,-0.07813679,0.55360436,-0.7805786,-0.12213135,0.008496094,110.0
378,-2.1117947,-0.07813679,0.55360436,-0.47578126,-0.14549561,0.039294433,110.0
379,-1.5496409,-0.30253628,0.401587,-0.47578126,-0.14549561,0.039294433,110.0
380,-1.5496409,-0.30253628,0.401587,-0.16142578,-0.1263794,0.03186035,110.0
381,-1.1140658,-0.31997094,0.2537036,-0.16142578,-0.1263794,0.03186035,110.0
382,-1.1140658,-0.31997094,0.2537036,-0.13699952,-0.035046387,0.0021240234,110.0
383,-1.0400808,-0.14090106,0.1361171,-0.13699952,-0.035046387,0.0021240234,110.0
384,-1.0400808,-0.14090106,0.1361171,-0.362146,0.07752686,-0.04885254,110.0
385,-1.129904,-0.07647817,0.10586631,-0.362146,0.07752686,-0.04885254,110.0
386,-1.129904,-0.07647817,0.10586631,-0.58623046,0.15930176,-0.107263185,110.0
387,-0.9846605,-0.27443936,0.16962957,-0.58623046,0.15930176,-0.107263185,110.0
388,-0.9846605,-0.27443936,0.16962957,-0.5872925,0.18903808,-0.1720459,110.0
389,-0.5931239,-0.48721507,0.19432187,-0.5872925,0.18903808,-0.1720459,110.0
390,-0.5931239,-0.48721507,0.19432187,-0.5129517,0.18479005,-0.1720459,110.0
391,-0.25183058,-0.4799576,0.121973634,-0.5129517,0.18479005,-0.1720459,110.0
392,-0.25183058,-0.4799576,0.121973634,-0.4885254,0.18054199,-0.124255374,110.0
393,0.064429045,-0.4351868,0.10226631,-0.4885254,0.18054199,-0.124255374,110.0
394,0.064429045,-0.4351868,0.10226631,-0.35683593,0.14761963,-0.081774905,110.0
395,0.40955114,-0.46279788,0.16062164,-0.35683593,0.14761963,-0.081774905,110.0
396,0.40955114,-0.46279788,0.16062164,-0.1901001,0.09770508,-0.038232423,110.0
397,0.44799006,-0.44241846,0.13200068,-0.1901001,0.09770508,-0.038232423,110.0
398,0.44799006,-0.44241846,0.13200068,-0.12531738,0.07434082,-0.035046387,110.0
399,0.06594825,-0.39519453,-3.9315224E-4,-0.12531738,0.07434082,-0.035046387,110.0
400,0.06594825,-0.39519453,-3.9315224E-4,-0.045666505,0.046728518,-0.11682129,110.0
401,-0.36618674,-0.38709068,-0.13444543,-0.045666505,0.046728518,-0.11682129,110.0
402,-0.36618674,-0.38709068,-0.13444543,0.06159668,0.03717041,-0.22089843,110.0
403,-0.6035085,-0.42347872,-0.18844008,0.06159668,0.03717041,-0.22089843,110.0
404,-0.6035085,-0.42347872,-0.18844008,0.13275146,0.04991455,-0.30054933,110.0
405,-0.653339,-0.47463512,-0.17943859,0.13275146,0.04991455,-0.30054933,110.0
406,-0.653339,-0.47463512,-0.17943859,0.17629395,0.046728518,-0.36002198,110.0
407,-0.39876986,-0.5098473,-0.14663935,0.17629395,0.046728518,-0.36002198,110.0
408,-0.39876986,-0.5098473,-0.14663935,0.22089843,0.046728518,-0.37807617,110.0
409,0.23537874,-0.5206952,-0.0809834,0.22089843,0.046728518,-0.37807617,110.0
410,0.23537874,-0.5206952,-0.0809834,0.23364258,0.06796875,-0.3419678,110.0
411,0.9195043,-0.45591164,0.009383202,0.23364258,0.06796875,-0.3419678,110.0
412,0.9195043,-0.45591164,0.009383202,0.15717773,0.11363526,-0.22727051,110.0
413,1.2339432,-0.28914332,0.062487006,0.15717773,0.11363526,-0.22727051,110.0
414,1.2339432,-0.28914332,0.062487006,-0.052038576,0.14018555,-0.115759276,110.0
415,1.337533,-0.18136346,0.03361988,-0.052038576,0.14018555,-0.115759276,110.0
416,1.337533,-0.18136346,0.03361988,-0.24001466,0.10195313,-0.0637207,110.0
417,1.9511544,-0.34661663,0.03583145,-0.24001466,0.10195313,-0.0637207,110.0
418,1.9511544,-0.34661663,0.03583145,-0.21983643,0.04991455,-0.07965088,110.0
419,3.0044415,-0.65724945,0.22649229,-0.21983643,0.04991455,-0.07965088,110.0
420,3.0044415,-0.65724945,0.22649229,-0.10195313,0.13062744,0.025488282,110.0
421,3.0015268,-0.67453,0.35157955,-0.10195313,0.13062744,0.025488282,110.0
422,3.0015268,-0.67453,0.35157955,0.09664307,0.18479005,0.2538208,110.0
423,1.3901985,-0.27269292,0.05330944,0.09664307,0.18479005,0.2538208,110.0
424,1.3901985,-0.27269292,0.05330944,0.44073486,0.1178833,0.38869628,110.0
425,-0.3152461,0.31281495,-0.51479876,0.44073486,0.1178833,0.38869628,110.0
426,-0.3152461,0.31281495,-0.51479876,0.74871826,0.026550293,0.5171997,110.0
427,-1.0396115,0.7742022,-0.9085431,0.74871826,0.026550293,0.5171997,110.0
428,-1.0396115,0.7742022,-0.9085431,0.9483765,-0.004248047,0.6711914,110.0
429,-1.0396115,0.7742022,-0.9085431,0.9483765,-0.004248047,0.6711914,109.0
430,-1.2818967,0.942958,-0.9167149,0.9483765,-0.004248047,0.6711914,109.0
431,-1.2818967,0.942958,-0.9167149,1.0036011,-0.019116212,0.75509036,109.0
432,-1.5423021,0.83925414,-0.6924174,1.0036011,-0.019116212,0.75509036,109.0
433,-1.5423021,0.83925414,-0.6924174,0.90058595,-0.009558106,0.7604004,109.0
434,-1.7161293,0.58110785,-0.49588948,0.90058595,-0.009558106,0.7604004,109.0
435,-1.7161293,0.58110785,-0.49588948,0.89208984,0.007434082,0.7051758,109.0
436,-1.6375519,0.38394153,-0.45729512,0.89208984,0.007434082,0.7051758,109.0
437,-1.6375519,0.38394153,-0.45729512,0.9526245,0.040356446,0.6287109,109.0
438,-1.3935376,0.41374505,-0.5698889,0.9526245,0.040356446,0.6287109,109.0
439,-1.3935376,0.41374505,-0.5698889,0.9674927,0.095581055,0.60959476,109.0
440,-1.1680162,0.60702145,-0.73810107,0.9674927,0.095581055,0.60959476,109.0
441,-1.1680162,0.60702145,-0.73810107,0.81881106,0.18585205,0.59472656,109.0
442,-1.0075697,0.73078316,-0.8146752,0.81881106,0.18585205,0.59472656,109.0
443,-1.0075697,0.73078316,-0.8146752,0.6042847,0.2538208,0.57561034,109.0
444,-0.79395866,0.6456617,-0.7488959,0.6042847,0.2538208,0.57561034,109.0
445,-0.79395866,0.6456617,-0.7488959,0.49277344,0.27399904,0.5384399,109.0
446,-0.45893407,0.46679795,-0.61714655,0.49277344,0.27399904,0.5384399,109.0
447,-0.45893407,0.46679795,-0.61714655,0.42374268,0.27399904,0.5055176,109.0
448,-0.10378051,0.3891,-0.5278481,0.42374268,0.27399904,0.5055176,109.0
449,-0.10378051,0.3891,-0.5278481,0.32072756,0.2803711,0.4970215,109.0
450,0.16689014,0.39620432,-0.52279115,0.32072756,0.2803711,0.4970215,109.0
451,0.16689014,0.39620432,-0.52279115,0.14018555,0.28568116,0.4725952,109.0
452,0.33730853,0.41916072,-0.5276812,0.14018555,0.28568116,0.4725952,109.0
453,0.33730853,0.41916072,-0.5276812,-0.026550293,0.26550293,0.46622315,109.0
454,0.40290356,0.39787742,-0.48540175,-0.026550293,0.26550293,0.46622315,109.0
455,0.40290356,0.39787742,-0.48540175,-0.1444336,0.22514649,0.43861085,109.0
456,0.3720665,0.35283563,-0.4026891,-0.1444336,0.22514649,0.43861085,109.0
457,0.3720665,0.35283563,-0.4026891,-0.22196046,0.18479005,0.40462646,109.0
458,0.26069033,0.34392625,-0.3107133,-0.22196046,0.18479005,0.40462646,109.0
459,0.26069033,0.34392625,-0.3107133,-0.32497558,0.14868164,0.3791382,109.0
460,0.098615766,0.3465277,-0.22005498,-0.32497558,0.14868164,0.3791382,109.0
461,0.098615766,0.3465277,-0.22005498,-0.3982544,0.11257324,0.3419678,109.0
462,0.026768565,0.29868215,-0.15910059,-0.3982544,0.11257324,0.3419678,109.0
463,0.026768565,0.29868215,-0.15910059,-0.38338622,0.06265869,0.28461915,109.0
464,0.1785804,0.1826469,-0.05776143,-0.38338622,0.06265869,0.28461915,109.0
465,0.1785804,0.1826469,-0.05776143,-0.30373535,0.0021240234,0.21240234,109.0
466,0.5592339,0.08452085,0.09236503,-0.30373535,0.0021240234,0.21240234,109.0
467,0.5592339,0.08452085,0.09236503,-0.22939454,-0.05522461,0.12850343,109.0
468,1.0561273,0.06635934,0.27149945,-0.22939454,-0.05522461,0.12850343,109.0
469,1.0561273,0.06635934,0.27149945,-0.25806886,-0.09664307,0.015930176,109.0
470,1.5032637,0.077135324,0.46215808,-0.25806886,-0.09664307,0.015930176,109.0
471,1.5032637,0.077135324,0.46215808,-0.35577393,-0.124255374,-0.10195313,109.0
472,1.8002551,0.045057863,0.66038805,-0.35577393,-0.124255374,-0.10195313,109.0
473,1.8002551,0.045057863,0.66038805,-0.4970215,-0.23151855,-0.24744873,109.0
474,2.1747499,-0.15656847,0.8266625,-0.4970215,-0.23151855,-0.24744873,109.0
475,2.1747499,-0.15656847,0.8266625,-0.5979126,-0.41418457,-0.5299439,109.0
476,2.788616,-0.54568934,1.0244281,-0.5979126,-0.41418457,-0.5299439,109.0
477,2.788616,-0.54568934,1.0244281,-0.542688,-0.56605226,-0.8421753,109.0
478,2.8308928,-0.83192503,1.3441153,-0.542688,-0.56605226,-0.8421753,109.0
479,2.8308928,-0.83192503,1.3441153,-0.58304447,-0.5543701,-0.97067875,109.0
480,1.3778124,-0.86988574,1.6527947,-0.58304447,-0.5543701,-0.97067875,109.0
481,1.3778124,-0.86988574,1.6527947,-0.6403931,-0.47578126,-1.0237793,109.0
482,-0.94118285,-0.7717265,1.7015083,-0.6403931,-0.47578126,-1.0237793,109.0
483,-0.94118285,-0.7717265,1.7015083,-0.52675784,-0.5161377,-0.96430665,109.0
484,-2.5736494,-0.56364584,1.4851813,-0.52675784,-0.5161377,-0.96430665,109.0
485,-2.5736494,-0.56364584,1.4851813,-0.24744873,-0.6074707,-0.7720825,109.0
486,-2.9325159,-0.25542104,1.1787701,-0.24744873,-0.6074707,-0.7720825,109.0
487,-2.9325159,-0.25542104,1.1787701,0.05522461,-0.6425171,-0.5055176,109.0
488,-2.4425337,-0.014285564,0.8356552,0.05522461,-0.6425171,-0.5055176,109.0
489,-2.4425337,-0.014285564,0.8356552,0.35577393,-0.68499756,-0.18160401,109.0
490,-1.5830431,-0.0010646582,0.41679072,0.35577393,-0.68499756,-0.18160401,109.0
491,-1.5830431,-0.0010646582,0.41679072,0.5214478,-0.68287355,-0.08071289,109.0
492,-0.748893,-0.15141326,0.070090294,0.5214478,-0.68287355,-0.08071289,109.0
493,-0.748893,-0.15141326,0.070090294,0.6573853,-0.56605226,-0.03717041,109.0
494,-0.37996155,-0.19704616,0.09181452,0.6573853,-0.56605226,-0.03717041,109.0
495,-0.37996155,-0.19704616,0.09181452,0.44710693,-0.35577393,-0.081774905,109.0
496,-0.53313184,0.07811749,0.45036817,0.44710693,-0.35577393,-0.081774905,109.0
497,-0.53313184,0.07811749,0.45036817,-0.4067505,-0.124255374,-0.07752686,109.0
498,-0.8473185,0.32175916,0.7499063,-0.4067505,-0.124255374,-0.07752686,109.0
499,-0.8473185,0.32175916,0.7499063,-1.2935303,0.078588866,0.012744141,109.0
500,-1.0694442,0.029953718,0.5503888,-1.2935303,0.078588866,0.012744141,109.0
501,-1.0694442,0.029953718,0.5503888,-1.0237793,0.11682129,0.098767094,109.0
502,-1.2293469,-0.38843942,-0.102669716,-1.0237793,0.11682129,0.098767094,109.0
503,-1.2293469,-0.38843942,-0.102669716,-0.70092773,0.0722168,0.081774905,109.0
504,-1.2419248,-0.47991657,-0.68545604,-0.70092773,0.0722168,0.081774905,109.0
505,-1.2419248,-0.47991657,-0.68545604,-0.5076416,0.060534667,0.10089111,109.0
506,-0.949033,-0.42154312,-0.8492682,-0.5076416,0.060534667,0.10089111,109.0
507,-0.949033,-0.42154312,-0.8492682,-0.21983643,0.040356446,0.11044922,109.0
508,-0.46330357,-0.3401764,-0.7388506,-0.21983643,0.040356446,0.11044922,109.0
509,-0.46330357,-0.3401764,-0.7388506,0.14974366,0.043542482,0.06478272,109.0
510,-0.015955448,-0.24340582,-0.5986366,0.14974366,0.043542482,0.06478272,109.0
511,-0.015955448,-0.24340582,-0.5986366,0.3536499,0.05628662,0.0021240234,109.0
512,0.21366382,-0.12907529,-0.5188751,0.3536499,0.05628662,0.0021240234,109.0
513,0.21366382,-0.12907529,-0.5188751,0.452417,0.057348635,-0.045666505,109.0
514,0.22984219,-0.0066171885,-0.48044443,0.452417,0.057348635,-0.045666505,109.0
515,0.22984219,-0.0066171885,-0.48044443,0.5097656,0.053100586,-0.10938721,109.0
516,0.20887375,0.107450366,-0.42756844,0.5097656,0.053100586,-0.10938721,109.0
517,0.20887375,0.107450366,-0.42756844,0.42374268,0.046728518,-0.18691407,109.0
518,0.33891296,0.13212729,-0.31428385,0.42374268,0.046728518,-0.18691407,109.0
519,0.33891296,0.13212729,-0.31428385,0.25913087,0.02442627,-0.23258057,109.0
520,0.64786386,-0.0046008825,-0.12245989,0.25913087,0.02442627,-0.23258057,109.0
521,0.64786386,-0.0046008825,-0.12245989,0.15717773,0.0063720704,-0.26762697,109.0
522,1.0017383,-0.21419096,0.08912921,0.15717773,0.0063720704,-0.26762697,109.0
523,1.0017383,-0.21419096,0.08912921,0.07540283,-0.008496094,-0.27612305,109.0
524,1.0017383,-0.21419096,0.08912921,0.07540283,-0.008496094,-0.27612305,107.0
525,1.3197501,-0.36267352,0.22592986,0.07540283,-0.008496094,-0.27612305,107.0
526,1.3197501,-0.36267352,0.22592986,-0.090270996,-0.010620117,-0.26444092,107.0
527,1.8631121,-0.5574118,0.36542416,-0.090270996,-0.010620117,-0.26444092,107.0
528,1.8631121,-0.5574118,0.36542416,-0.271875,-0.11151123,-0.3154175,107.0
529,3.2652457,-0.9014715,0.62118447,-0.271875,-0.11151123,-0.3154175,107.0
530,3.2652457,-0.9014715,0.62118447,-0.18797608,-0.16142578,-0.3727661,107.0
531,4.5803485,-1.3731303,0.87490165,-0.18797608,-0.16142578,-0.3727661,107.0
532,4.5803485,-1.3731303,0.87490165,0.29099122,0.083898924,-0.13487549,107.0
533,3.49548,-1.5943539,0.7223213,0.29099122,0.083898924,-0.13487549,107.0
534,3.49548,-1.5943539,0.7223213,1.3944215,0.19647217,0.047790527,107.0
535,0.59082985,-0.9066477,-0.12568307,1.3944215,0.19647217,0.047790527,107.0
536,0.59082985,-0.9066477,-0.12568307,2.1218994,0.22302246,0.23151855,107.0
537,-1.4775681,0.4752555,-1.2480562,2.1218994,0.22302246,0.23151855,107.0
538,-1.4775681,0.4752555,-1.2480562,2.3746583,0.20072022,0.4163086,107.0
539,-1.8519398,1.7616986,-1.8700637,2.3746583,0.20072022,0.4163086,107.0
540,-1.8519398,1.7616986,-1.8700637,2.078357,0.25806886,0.7423462,107.0
541,-1.6210661,2.296566,-1.7068908,2.078357,0.25806886,0.7423462,107.0
542,-1.6210661,2.296566,-1.7068908,1.5834595,0.24320069,1.0004151,107.0
543,-1.6733544,2.0163543,-1.016599,1.5834595,0.24320069,1.0004151,107.0
544,-1.6733544,2.0163543,-1.016599,1.1522827,0.17735596,1.0471436,107.0
545,-1.8469477,1.3753271,-0.30530804,1.1522827,0.17735596,1.0471436,107.0
546,-1.8469477,1.3753271,-0.30530804,0.8050049,0.124255374,0.9674927,107.0
547,-1.7642403,0.8296807,0.034891725,0.8050049,0.124255374,0.9674927,107.0
548,-1.7642403,0.8296807,0.034891725,0.4609131,0.12213135,0.9228882,107.0
549,-1.4302278,0.51931095,-0.07605392,0.4609131,0.12213135,0.9228882,107.0
550,-1.4302278,0.51931095,-0.07605392,0.087084964,0.15717773,0.8209351,107.0
551,-1.083794,0.42455524,-0.46140465,0.087084964,0.15717773,0.8209351,107.0
552,-1.083794,0.42455524,-0.46140465,-0.21452637,0.20390625,0.7391602,107.0
553,-0.8559634,0.35708803,-0.8111037,-0.21452637,0.20390625,0.7391602,107.0
554,-0.8559634,0.35708803,-0.8111037,-0.23364258,0.22939454,0.5936646,107.0
555,-0.6716604,0.21264797,-0.9047668,-0.23364258,0.22939454,0.5936646,107.0
556,-0.6716604,0.21264797,-0.9047668,0.039294433,0.21558838,0.49277344,107.0
557,-0.44440842,0.09375119,-0.77178705,0.039294433,0.21558838,0.49277344,107.0
558,-0.44440842,0.09375119,-0.77178705,0.42268068,0.19328614,0.40144044,107.0
559,-0.16808772,0.14165135,-0.56828415,0.42268068,0.19328614,0.40144044,107.0
560,-0.16808772,0.14165135,-0.56828415,0.5851685,0.18266602,0.32072756,107.0
561,0.08784437,0.30620438,-0.3996957,0.5851685,0.18266602,0.32072756,107.0
562,0.08784437,0.30620438,-0.3996957,0.5586182,0.18691407,0.24744873,107.0
563,0.2119137,0.41200453,-0.3000666,0.5586182,0.18691407,0.24744873,107.0
564,0.2119137,0.41200453,-0.3000666,0.4439209,0.17523193,0.17947999,107.0
565,0.1729734,0.43280187,-0.2581197,0.4439209,0.17523193,0.17947999,107.0
566,0.1729734,0.43280187,-0.2581197,0.24107666,0.16036378,0.11469727,107.0
567,0.01955545,0.42171758,-0.25005043,0.24107666,0.16036378,0.11469727,107.0
568,0.01955545,0.42171758,-0.25005043,-0.04248047,0.15186767,0.060534667,107.0
569,-0.15178728,0.3919273,-0.23794317,-0.04248047,0.15186767,0.060534667,107.0
570,-0.15178728,0.3919273,-0.23794317,-0.29417726,0.1359375,0.028674318,107.0
571,-0.2576481,0.3054242,-0.21002007,-0.29417726,0.1359375,0.028674318,107.0
572,-0.2576481,0.3054242,-0.21002007,-0.4428589,0.10195313,-0.0063720704,107.0
573,-0.16365016,0.1355747,-0.15765226,-0.4428589,0.10195313,-0.0063720704,107.0
574,-0.16365016,0.1355747,-0.15765226,-0.47471926,0.04460449,-0.070092775,107.0
575,0.25629914,-0.09161353,-0.05643183,-0.47471926,0.04460449,-0.070092775,107.0
576,0.25629914,-0.09161353,-0.05643183,-0.42374268,-0.0053100586,-0.16992188,107.0
577,0.8264992,-0.2654661,0.12369001,-0.42374268,-0.0053100586,-0.16992188,107.0
578,0.8264992,-0.2654661,0.12369001,-0.40250245,-0.04460449,-0.2623169,107.0
579,1.2573054,-0.28186756,0.3505878,-0.40250245,-0.04460449,-0.2623169,107.0
580,1.2573054,-0.28186756,0.3505878,-0.4630371,-0.06690674,-0.35152587,107.0
581,1.511838,-0.23972744,0.57463527,-0.4630371,-0.06690674,-0.35152587,107.0
582,1.511838,-0.23972744,0.57463527,-0.5033936,-0.11682129,-0.43117675,107.0
583,1.8461893,-0.3078098,0.74476683,-0.5033936,-0.11682129,-0.43117675,107.0
584,1.8461893,-0.3078098,0.74476683,-0.5214478,-0.25913087,-0.5777344,107.0
585,2.5683331,-0.5463699,0.90271044,-0.5214478,-0.25913087,-0.5777344,107.0
586,2.5683331,-0.5463699,0.90271044,-0.47684327,-0.38551027,-0.8251831,107.0
587,3.249149,-0.73989135,1.133765,-0.47684327,-0.38551027,-0.8251831,107.0
588,3.249149,-0.73989135,1.133765,-0.53737795,-0.3812622,-0.95368654,107.0
589,2.7658234,-0.681354,1.3645438,-0.53737795,-0.3812622,-0.95368654,107.0
590,2.7658234,-0.681354,1.3645438,-0.78164065,-0.26762697,-1.0184692,107.0
591,0.95151377,-0.4823879,1.4262054,-0.78164065,-0.26762697,-1.0184692,107.0
592,0.95151377,-0.4823879,1.4262054,-0.86553955,-0.23258057,-0.98448485,107.0
593,-0.9827099,-0.273215,1.3533301,-0.86553955,-0.23258057,-0.98448485,107.0
594,-0.9827099,-0.273215,1.3533301,-0.81243896,-0.27293703,-0.8241211,107.0
595,-2.1900988,-0.024162829,1.2852154,-0.81243896,-0.27293703,-0.8241211,107.0
596,-2.1900988,-0.024162829,1.2852154,-0.6138428,-0.3706421,-0.541626,107.0
597,-2.6425085,0.16674152,1.1857285,-0.6138428,-0.3706421,-0.541626,107.0
598,-2.6425085,0.16674152,1.1857285,-0.25913087,-0.4322388,-0.24851075,107.0
599,-2.3447564,0.17663053,0.9428699,-0.25913087,-0.4322388,-0.24851075,107.0
600,-2.3447564,0.17663053,0.9428699,0.19116211,-0.45560303,-0.08496094,107.0
601,-1.4022455,0.15067942,0.61838293,0.19116211,-0.45560303,-0.08496094,107.0
602,-1.4022455,0.15067942,0.61838293,0.4163086,-0.41524658,-0.060534667,107.0
603,-0.41082236,0.2720084,0.35638857,0.4163086,-0.41524658,-0.060534667,107.0
604,-0.41082236,0.2720084,0.35638857,0.24001466,-0.2782471,-0.04460449,107.0
605,-0.13505438,0.46117362,0.18069196,0.24001466,-0.2782471,-0.04460449,107.0
606,-0.13505438,0.46117362,0.18069196,-0.2262085,-0.11044922,-0.07327881,107.0
607,-0.6236929,0.55685395,0.03331089,-0.2262085,-0.11044922,-0.07327881,107.0
608,-0.6236929,0.55685395,0.03331089,-0.68499756,-0.0053100586,-0.19434814,107.0
609,-1.2188762,0.47886938,-0.06650329,-0.68499756,-0.0053100586,-0.19434814,107.0
610,-1.2188762,0.47886938,-0.06650329,-1.0280274,0.035046387,-0.20072022,107.0
611,-1.4392368,0.11827618,-0.16810751,-1.0280274,0.035046387,-0.20072022,107.0
612,-1.4392368,0.11827618,-0.16810751,-0.9547486,0.038232423,-0.24744873,107.0
613,-1.3678446,-0.45758852,-0.33355832,-0.9547486,0.038232423,-0.24744873,107.0
614,-1.3678446,-0.45758852,-0.33355832,-0.55755615,0.012744141,-0.26656494,107.0
615,-1.1585335,-0.88615143,-0.47583103,-0.55755615,0.012744141,-0.26656494,107.0
616,-1.1585335,-0.88615143,-0.47583103,-0.16142578,0.03186035,-0.30054933,107.0
617,-0.7839191,-1.0550148,-0.5317756,-0.16142578,0.03186035,-0.30054933,107.0
618,-0.7839191,-1.0550148,-0.5317756,0.20603028,0.060534667,-0.3079834,107.0
619,-0.31907868,-1.0387019,-0.51296926,0.20603028,0.060534667,-0.3079834,107.0
620,-0.31907868,-1.0387019,-0.51296926,0.53525394,0.081774905,-0.32603762,107.0
621,0.049034,-0.8771041,-0.45841002,0.53525394,0.081774905,-0.32603762,107.0
622,0.049034,-0.8771041,-0.45841002,0.72216797,0.10195313,-0.3462158,107.0
623,0.18608999,-0.6247668,-0.41008747,0.72216797,0.10195313,-0.3462158,107.0
624,0.18608999,-0.6247668,-0.41008747,0.7072998,0.11469727,-0.38657227,107.0
625,0.10376704,-0.38605613,-0.38394165,0.7072998,0.11469727,-0.38657227,107.0
626,0.10376704,-0.38605613,-0.38394165,0.55968016,0.09664307,-0.40993652,107.0
627,-0.005352974,-0.2873361,-0.35488284,0.55968016,0.09664307,-0.40993652,107.0
628,-0.005352974,-0.2873361,-0.35488284,0.3727661,0.05628662,-0.43861085,107.0
629,0.11673808,-0.36536694,-0.26125002,0.3727661,0.05628662,-0.43861085,107.0
630,0.11673808,-0.36536694,-0.26125002,0.23682861,0.009558106,-0.45772704,107.0
631,0.47106385,-0.5845543,-0.09322858,0.23682861,0.009558106,-0.45772704,107.0
632,0.47106385,-0.5845543,-0.09322858,0.2262085,-0.0010620117,-0.45560303,107.0
633,0.47106385,-0.5845543,-0.09322858,0.2262085,-0.0010620117,-0.45560303,105.0
634,0.8210771,-0.8181195,0.10163784,0.2262085,-0.0010620117,-0.45560303,105.0
635,0.8210771,-0.8181195,0.10163784,0.2347046,0.007434082,-0.42799073,105.0
636,0.94600964,-0.9218906,0.21028972,0.2347046,0.007434082,-0.42799073,105.0
637,0.94600964,-0.9218906,0.21028972,0.20921631,0.016992187,-0.3802002,105.0
638,0.985775,-0.93038356,0.20733082,0.20921631,0.016992187,-0.3802002,105.0
639,0.985775,-0.93038356,0.20733082,0.21558838,-0.010620117,-0.35789797,105.0
640,1.4833953,-0.9307327,0.2927811,0.21558838,-0.010620117,-0.35789797,105.0
641,1.4833953,-0.9307327,0.2927811,0.29417726,-0.046728518,-0.3462158,105.0
642,2.666892,-1.1248107,0.63083136,0.29417726,-0.046728518,-0.3462158,105.0
643,2.666892,-1.1248107,0.63083136,0.3462158,-0.03186035,-0.2262085,105.0
644,3.323333,-1.4917064,0.9590719,0.3462158,-0.03186035,-0.2262085,105.0
645,3.323333,-1.4917064,0.9590719,0.996167,0.07646485,-0.14230958,105.0
646,2.2635248,-1.370306,0.7061491,0.996167,0.07646485,-0.14230958,105.0
647,2.2635248,-1.370306,0.7061491,1.8776368,0.095581055,0.083898924,105.0
648,0.40885448,-0.53242636,-0.23620367,1.8776368,0.095581055,0.083898924,105.0
649,0.40885448,-0.53242636,-0.23620367,2.5105958,0.07434082,0.31860352,105.0
650,-0.8415687,0.54966927,-1.2489972,2.5105958,0.07434082,0.31860352,105.0
651,-0.8415687,0.54966927,-1.2489972,2.879114,0.10407715,0.6924316,105.0
652,-1.3003546,1.3467302,-1.6562047,2.879114,0.10407715,0.6924316,105.0
653,-1.3003546,1.3467302,-1.6562047,2.8376954,0.19541016,0.9600586,105.0
654,-1.3511723,1.638041,-1.3959233,2.8376954,0.19541016,0.9600586,105.0
655,-1.3511723,1.638041,-1.3959233,2.5159059,0.2347046,1.2149414,105.0
656,-1.2735893,1.5441852,-0.86850864,2.5159059,0.2347046,1.2149414,105.0
657,-1.2735893,1.5441852,-0.86850864,2.1208375,0.24851075,1.3190186,105.0
658,-1.2116205,1.3540738,-0.4738108,2.1208375,0.24851075,1.3190186,105.0
659,-1.2116205,1.3540738,-0.4738108,1.6524903,0.24638672,1.3083985,105.0
660,-1.21644,1.2741038,-0.37076008,1.6524903,0.24638672,1.3083985,105.0
661,-1.21644,1.2741038,-0.37076008,1.0513916,0.30054933,1.3476928,105.0
662,-1.2701124,1.1953329,-0.5167497,1.0513916,0.30054933,1.3476928,105.0
663,-1.2701124,1.1953329,-0.5167497,0.48321533,0.33878174,1.3678712,105.0
664,-1.2079844,1.0652874,-0.76994276,0.48321533,0.33878174,1.3678712,105.0
665,-1.2079844,1.0652874,-0.76994276,-0.010620117,0.3695801,1.3200806,105.0
666,-0.8693539,0.9020223,-0.9524166,-0.010620117,0.3695801,1.3200806,105.0
667,-0.8693539,0.9020223,-0.9524166,-0.3536499,0.38338622,1.2903442,105.0
668,-0.42446256,0.6367912,-0.994465,-0.3536499,0.38338622,1.2903442,105.0
669,-0.42446256,0.6367912,-0.994465,-0.24213867,0.33028564,1.2298096,105.0
670,-0.14195037,0.52933043,-0.900699,-0.24213867,0.33028564,1.2298096,105.0
671,-0.14195037,0.52933043,-0.900699,-0.13062744,0.3175415,1.1607789,105.0
672,0.37561202,0.34828126,-0.9264186,-0.13062744,0.3175415,1.1607789,105.0
673,0.37561202,0.34828126,-0.9264186,0.14337158,0.29523927,1.0067872,105.0
674,0.50422496,0.39276075,-0.83943814,0.14337158,0.29523927,1.0067872,105.0
675,0.50422496,0.39276075,-0.83943814,0.21346436,0.2824951,0.9547486,105.0
676,0.7884752,0.48870814,-0.7901784,0.21346436,0.2824951,0.9547486,105.0
677,0.7884752,0.48870814,-0.7901784,0.3345337,0.23258057,0.8071289,105.0
678,0.7398256,0.5361325,-0.6567155,0.3345337,0.23258057,0.8071289,105.0
679,0.7398256,0.5361325,-0.6567155,0.30479738,0.20709229,0.7593384,105.0
680,0.54155535,0.7430906,-0.3972962,0.30479738,0.20709229,0.7593384,105.0
681,0.54155535,0.7430906,-0.3972962,0.026550293,0.15930176,0.64782715,105.0
682,0.36446986,0.7451439,-0.27834725,0.026550293,0.15930176,0.64782715,105.0
683,0.36446986,0.7451439,-0.27834725,-0.08602295,0.1359375,0.6180908,105.0
684,-0.048878223,0.75951844,-0.14928913,-0.08602295,0.1359375,0.6180908,105.0
685,-0.048878223,0.75951844,-0.14928913,-0.36002198,0.038232423,0.5299439,105.0
686,-0.036172897,0.675962,-0.10451436,-0.36002198,0.038232423,0.5299439,105.0
687,-0.036172897,0.675962,-0.10451436,-0.4088745,-0.0010620117,0.4959595,105.0
688,0.4448532,0.40923882,-0.039263368,-0.4088745,-0.0010620117,0.4959595,105.0
689,0.4448532,0.40923882,-0.039263368,-0.3993164,-0.12319336,0.35789797,105.0
690,0.65092653,0.3195175,0.07619429,-0.3993164,-0.12319336,0.35789797,105.0
691,0.65092653,0.3195175,0.07619429,-0.38869628,-0.1539917,0.31329346,105.0
692,1.3077407,0.29936397,0.5026791,-0.38869628,-0.1539917,0.31329346,105.0
693,1.3077407,0.29936397,0.5026791,-0.44710693,-0.16036378,0.13275146,105.0
694,1.2613659,0.3389175,0.62859595,-0.44710693,-0.16036378,0.13275146,105.0
695,1.2613659,0.3389175,0.62859595,-0.4991455,-0.17735596,0.053100586,105.0
696,1.931273,0.508219,1.0774617,-0.4991455,-0.17735596,0.053100586,105.0
697,1.931273,0.508219,1.0774617,-0.7072998,-0.3706421,-0.27399904,105.0
698,1.9944569,0.42663145,1.1539005,-0.7072998,-0.3706421,-0.27399904,105.0
699,1.9944569,0.42663145,1.1539005,-0.7497803,-0.4163086,-0.40250245,105.0
700,2.525534,0.3734585,1.5338504,-0.7497803,-0.4163086,-0.40250245,105.0
701,2.525534,0.3734585,1.5338504,-0.8496094,-0.3717041,-0.63826907,105.0
702,2.2625413,0.4023924,1.9002981,-0.8496094,-0.3717041,-0.63826907,105.0
703,2.2625413,0.4023924,1.9002981,-1.0736939,-0.271875,-0.85704345,105.0
704,0.8813586,0.41474843,1.9435173,-1.0736939,-0.271875,-0.85704345,105.0
705,0.8813586,0.41474843,1.9435173,-1.3816773,-0.26337892,-0.98448485,105.0
706,-0.8632114,0.2628901,1.6811934,-1.3816773,-0.26337892,-0.98448485,105.0
707,-0.8632114,0.2628901,1.6811934,-1.5622193,-0.3164795,-0.994043,105.0
708,-2.6234915,-0.12915325,1.5498253,-1.5622193,-0.3164795,-0.994043,105.0
709,-2.6234915,-0.12915325,1.5498253,-1.1480347,-0.30161133,-0.89421386,105.0
710,-2.5570817,-0.31726313,1.4885907,-1.1480347,-0.30161133,-0.89421386,105.0
711,-2.5570817,-0.31726313,1.4885907,-0.7858887,-0.33665773,-0.77314454,105.0
712,-2.4504995,-0.56256294,1.6229527,-0.7858887,-0.33665773,-0.77314454,105.0
713,-2.4504995,-0.56256294,1.6229527,-0.04885254,-0.32816163,-0.6605713,105.0
714,-1.8261344,-0.5781753,1.5347147,-0.04885254,-0.32816163,-0.6605713,105.0
715,-1.8261344,-0.5781753,1.5347147,-0.02442627,-0.22833252,-0.63720703,105.0
716,-1.1727606,-0.6519934,1.3039436,-0.02442627,-0.22833252,-0.63720703,105.0
717,-1.1727606,-0.6519934,1.3039436,-0.544812,0.118945315,-0.70092773,105.0
718,-0.9071172,-0.9789311,0.9649811,-0.544812,0.118945315,-0.70092773,105.0
719,-0.9071172,-0.9789311,0.9649811,-0.7338501,0.17523193,-0.63826907,105.0
720,-1.0107036,-1.0586209,0.34466553,-0.7338501,0.17523193,-0.63826907,105.0
721,-1.0107036,-1.0586209,0.34466553,-0.7104859,0.13699952,-0.7317261,105.0
722,-1.1380428,-0.81171614,-0.48653555,-0.7104859,0.13699952,-0.7317261,105.0
723,-1.1380428,-0.81171614,-0.48653555,-0.39400634,0.13062744,-0.74447024,105.0
724,-1.1248629,-0.67851114,-1.1957958,-0.39400634,0.13062744,-0.74447024,105.0
725,-1.1248629,-0.67851114,-1.1957958,-0.06903076,0.13275146,-0.77526855,105.0
726,-0.97915065,-0.80851936,-1.4856284,-0.06903076,0.13275146,-0.77526855,105.0
727,-0.97915065,-0.80851936,-1.4856284,0.2803711,0.14018555,-0.8782837,105.0
728,-0.7516433,-1.0401382,-1.341115,0.2803711,0.14018555,-0.8782837,105.0
729,-0.7516433,-1.0401382,-1.341115,0.631897,0.1359375,-0.95368654,105.0
730,-0.5284265,-1.153717,-1.0098062,0.631897,0.1359375,-0.95368654,105.0
731,-0.5284265,-1.153717,-1.0098062,0.88359374,0.1263794,-1.0343994,105.0
732,-0.33790243,-1.1289917,-0.70669746,0.88359374,0.1263794,-1.0343994,105.0
733,-0.33790243,-1.1289917,-0.70669746,1.09281,0.10407715,-1.1448487,105.0
734,-0.15829802,-1.04438,-0.5111587,1.09281,0.10407715,-1.1448487,105.0
735,-0.15829802,-1.04438,-0.5111587,1.1204224,0.10301514,-1.2436157,105.0
736,-0.014687777,-0.9738951,-0.40025997,1.1204224,0.10301514,-1.2436157,105.0
737,-0.014687777,-0.9738951,-0.40025997,0.97067875,0.0998291,-1.3243287,105.0
738,0.035149217,-0.9597924,-0.36296916,0.97067875,0.0998291,-1.3243287,105.0
739,0.035149217,-0.9597924,-0.36296916,0.74871826,0.083898924,-1.3742431,105.0
740,0.007684827,-0.99301696,-0.38263607,0.74871826,0.083898924,-1.3742431,105.0
741,0.007684827,-0.99301696,-0.38263607,0.5214478,0.039294433,-1.3614991,105.0
742,0.09508824,-1.0558271,-0.41110158,0.5214478,0.039294433,-1.3614991,105.0
743,0.09508824,-1.0558271,-0.41110158,0.5055176,-0.008496094,-1.3115845,105.0
744,0.33948612,-1.2198937,-0.3651117,0.5055176,-0.008496094,-1.3115845,105.0
745,0.33948612,-1.2198937,-0.3651117,0.6680054,-0.039294433,-1.1926392,105.0
746,0.61232376,-1.3936517,-0.29250443,0.6680054,-0.039294433,-1.1926392,105.0
747,0.61232376,-1.3936517,-0.29250443,0.814563,-0.05522461,-1.0269654,105.0
748,0.61232376,-1.3936517,-0.29250443,0.814563,-0.05522461,-1.0269654,105.0
749,0.9333283,-1.4296799,-0.31989223,0.814563,-0.05522461,-1.0269654,105.0
750,0.9333283,-1.4296799,-0.31989223,1.0078491,-0.1263794,-0.8442993,105.0
751,1.7284131,-1.4330871,-0.2680232,1.0078491,-0.1263794,-0.8442993,105.0
752,1.7284131,-1.4330871,-0.2680232,1.1618408,-0.14549561,-0.72216797,105.0
753,3.317264,-1.6848607,0.30579627,1.1618408,-0.14549561,-0.72216797,105.0
754,3.317264,-1.6848607,0.30579627,1.3795532,-0.10938721,-0.4980835,105.0
755,4.534512,-2.0001469,1.1537435,1.3795532,-0.10938721,-0.4980835,105.0
756,4.534512,-2.0001469,1.1537435,1.7353271,0.03079834,-0.011682129,105.0
757,3.4038794,-1.6826248,1.2480924,1.7353271,0.03079834,-0.011682129,105.0
758,3.4038794,-1.6826248,1.2480924,1.9392334,0.10938721,0.5256958,105.0
759,0.44424605,-0.5796447,0.34871805,1.9392334,0.10938721,0.5256958,105.0
760,0.44424605,-0.5796447,0.34871805,2.0677369,0.04885254,1.0216553,105.0
761,-1.6603746,0.76287127,-0.5795095,2.0677369,0.04885254,1.0216553,105.0
762,-1.6603746,0.76287127,-0.5795095,2.2875733,0.0722168,1.5473511,105.0
763,-1.944767,1.7996526,-0.8568815,2.2875733,0.0722168,1.5473511,105.0
764,-1.944767,1.7996526,-0.8568815,2.6592774,0.09451904,2.1240234,105.0
765,-1.4889557,2.344324,-0.7576244,2.6592774,0.09451904,2.1240234,105.0
766,-1.4889557,2.344324,-0.7576244,2.7792847,0.15823975,2.5583863,105.0
767,-1.0524561,2.3859332,-0.7290487,2.7792847,0.15823975,2.5583863,105.0
768,-1.0524561,2.3859332,-0.7290487,2.811145,0.22727051,2.7739747,105.0
769,-0.62970906,2.1161075,-0.84404224,2.811145,0.22727051,2.7739747,105.0
770,-0.62970906,2.1161075,-0.84404224,2.7346802,0.3175415,2.8334472,105.0
771,-0.3653151,1.8641628,-0.87776065,2.7346802,0.3175415,2.8334472,105.0
772,-0.3653151,1.8641628,-0.87776065,2.5010376,0.4056885,2.799463,105.0
773,-0.3436193,1.804636,-0.7440665,2.5010376,0.4056885,2.799463,105.0
774,-0.3436193,1.804636,-0.7440665,1.901001,0.5787964,2.7357423,105.0
775,-0.3743217,1.8218461,-0.6353166,1.901001,0.5787964,2.7357423,105.0
776,-0.3743217,1.8218461,-0.6353166,1.2712281,0.66588134,2.6720216,105.0
777,-0.3108099,1.7255921,-0.6718031,1.2712281,0.66588134,2.6720216,105.0
778,-0.3108099,1.7255921,-0.6718031,0.8400513,0.6573853,2.438379,105.0
779,-0.11795944,1.5106617,-0.8360265,0.8400513,0.6573853,2.438379,105.0
780,-0.11795944,1.5106617,-0.8360265,0.4895874,0.68287355,2.1941164,105.0
781,0.1258595,1.2718351,-1.0290141,0.4895874,0.68287355,2.1941164,105.0
782,0.1258595,1.2718351,-1.0290141,0.16461182,0.67225343,1.9264892,105.0
783,0.3635416,1.0673583,-1.1991879,0.16461182,0.67225343,1.9264892,105.0
784,0.3635416,1.0673583,-1.1991879,-0.04991455,0.6966797,1.6811646,105.0
785,0.5695076,0.97415024,-1.3370602,-0.04991455,0.6966797,1.6811646,105.0
786,0.5695076,0.97415024,-1.3370602,-0.1996582,0.725354,1.4390259,105.0
787,0.6655915,0.9754628,-1.3894114,-0.1996582,0.725354,1.4390259,105.0
788,0.6655915,0.9754628,-1.3894114,-0.19541016,0.724292,1.2446778,105.0
789,0.60281014,0.98342204,-1.3334165,-0.19541016,0.724292,1.2446778,105.0
790,0.60281014,0.98342204,-1.3334165,-0.14549561,0.68924564,1.083252,105.0
791,0.4160738,1.0140326,-1.1589208,-0.14549561,0.68924564,1.083252,105.0
792,0.4160738,1.0140326,-1.1589208,-0.20709229,0.631897,0.9505005,105.0
793,0.21587908,1.0605669,-0.90177035,-0.20709229,0.631897,0.9505005,105.0
794,0.21587908,1.0605669,-0.90177035,-0.36745605,0.55755615,0.8687256,105.0
795,0.04385805,1.1018715,-0.63491726,-0.36745605,0.55755615,0.8687256,105.0
796,0.04385805,1.1018715,-0.63491726,-0.5936646,0.45666504,0.814563,105.0
797,-0.039925814,1.0934234,-0.41180348,-0.5936646,0.45666504,0.814563,105.0
798,-0.039925814,1.0934234,-0.41180348,-0.80394286,0.32391357,0.7412842,105.0
799,0.110259056,0.9308057,-0.19943786,-0.80394286,0.32391357,0.7412842,105.0
800,0.110259056,0.9308057,-0.19943786,-0.86978763,0.16142578,0.63614506,105.0
801,0.566198,0.6519809,0.03827691,-0.86978763,0.16142578,0.63614506,105.0
802,0.566198,0.6519809,0.03827691,-0.81243896,-0.009558106,0.50020754,105.0
803,1.0886396,0.41743422,0.27521396,-0.81243896,-0.009558106,0.50020754,105.0
804,1.0886396,0.41743422,0.27521396,-0.72641605,-0.1709839,0.34940186,105.0
805,1.3704113,0.3173213,0.5027151,-0.72641605,-0.1709839,0.34940186,105.0
806,1.3704113,0.3173213,0.5027151,-0.7147339,-0.31966552,0.15611573,105.0
807,1.5211339,0.2293086,0.7555046,-0.7147339,-0.31966552,0.15611573,105.0
808,1.5211339,0.2293086,0.7555046,-0.6701294,-0.4885254,-0.12531738,105.0
809,1.867188,0.0067989826,1.1024995,-0.6701294,-0.4885254,-0.12531738,105.0
810,1.867188,0.0067989826,1.1024995,-0.46834716,-0.6064087,-0.4725952,105.0
811,2.101148,-0.19291282,1.5419239,-0.46834716,-0.6064087,-0.4725952,105.0
812,2.101148,-0.19291282,1.5419239,-0.35789797,-0.6531372,-0.76358646,105.0
813,1.4639263,-0.20390296,1.8799503,-0.35789797,-0.6531372,-0.76358646,105.0
814,1.4639263,-0.20390296,1.8799503,-0.45666504,-0.6425171,-0.9855469,105.0
815,-0.07561183,-0.119409084,2.0158987,-0.45666504,-0.6425171,-0.9855469,105.0
816,-0.07561183,-0.119409084,2.0158987,-0.58623046,-0.721106,-1.1352905,105.0
817,-1.638114,-0.09918928,1.9859123,-0.58623046,-0.721106,-1.1352905,105.0
818,-1.638114,-0.09918928,1.9859123,-0.5363159,-0.901648,-1.183081,105.0
819,-2.522857,-0.19390225,1.8690643,-0.5363159,-0.901648,-1.183081,105.0
820,-2.522857,-0.19390225,1.8690643,-0.26337892,-0.9483765,-1.1947632,105.0
821,-2.7019403,-0.32357883,1.8242189,-0.26337892,-0.9483765,-1.1947632,105.0
822,-2.7019403,-0.32357883,1.8242189,0.21027832,-0.9611206,-1.268042,105.0
823,-2.2272506,-0.39932942,1.8731325,0.21027832,-0.9611206,-1.268042,105.0
824,-2.2272506,-0.39932942,1.8731325,0.6573853,-0.9366943,-1.4719483,105.0
825,-1.2014904,-0.42343092,1.9020338,0.6573853,-0.9366943,-1.4719483,105.0
826,-1.2014904,-0.42343092,1.9020338,0.903772,-0.81987303,-1.6386842,105.0
827,-0.37469327,-0.3814938,1.8792565,0.903772,-0.81987303,-1.6386842,105.0
828,-0.37469327,-0.3814938,1.8792565,0.18372802,-0.4322388,-1.7565674,105.0
829,-0.41297483,-0.60363245,1.9684932,0.18372802,-0.4322388,-1.7565674,105.0
830,-0.41297483,-0.60363245,1.9684932,-0.9260742,-0.12531738,-1.9094971,105.0
831,-1.04642,-1.1974078,2.1448388,-0.9260742,-0.12531738,-1.9094971,105.0
832,-1.04642,-1.1974078,2.1448388,-1.9615357,0.08814698,-2.0677369,105.0
833,-1.406008,-1.9488565,1.9103293,-1.9615357,0.08814698,-2.0677369,105.0
834,-1.406008,-1.9488565,1.9103293,-1.9381714,0.17629395,-1.8340943,105.0
835,-1.3216449,-2.4967194,0.85923266,-1.9381714,0.17629395,-1.8340943,105.0
836,-1.3216449,-2.4967194,0.85923266,-1.1161743,0.19434814,-1.7066529,105.0
837,-1.0588418,-2.4311523,-0.6446085,-1.1161743,0.19434814,-1.7066529,105.0
838,-1.0588418,-2.4311523,-0.6446085,0.24744873,0.2262085,-1.4337158,105.0
839,-1.0588418,-2.4311523,-0.6446085,0.24744873,0.2262085,-1.4337158,104.0
840,-0.7390535,-1.9651613,-1.8747323,0.24744873,0.2262085,-1.4337158,104.0
841,-0.7390535,-1.9651613,-1.8747323,1.1862671,0.23364258,-1.3041505,104.0
842,-0.36352062,-1.3722267,-2.3347223,1.1862671,0.23364258,-1.3041505,104.0
843,-0.36352062,-1.3722267,-2.3347223,1.5770874,0.2262085,-1.1363525,104.0
844,0.07527238,-0.91637266,-2.0965009,1.5770874,0.2262085,-1.1363525,104.0
845,0.07527238,-0.91637266,-2.0965009,1.6620483,0.26656494,-0.9834229,104.0
846,0.32478094,-0.66885257,-1.5772129,1.6620483,0.26656494,-0.9834229,104.0
847,0.32478094,-0.66885257,-1.5772129,1.621692,0.31435546,-0.8814697,104.0
848,0.23274958,-0.49977934,-1.0845366,1.621692,0.31435546,-0.8814697,104.0
849,0.23274958,-0.49977934,-1.0845366,1.3009644,0.3334717,-0.81668705,104.0
850,-0.009039581,-0.37663007,-0.6882225,1.3009644,0.3334717,-0.81668705,104.0
851,-0.009039581,-0.37663007,-0.6882225,0.7041138,0.33771974,-0.77951664,104.0
852,-0.19812524,-0.3883524,-0.42302668,0.7041138,0.33771974,-0.77951664,104.0
853,-0.19812524,-0.3883524,-0.42302668,0.09770508,0.32603762,-0.6701294,104.0
854,-0.32649332,-0.48718333,-0.36322606,0.09770508,0.32603762,-0.6701294,104.0
855,-0.32649332,-0.48718333,-0.36322606,-0.3069214,0.3090454,-0.54375,104.0
856,-0.34344566,-0.5695807,-0.49370587,-0.3069214,0.3090454,-0.54375,104.0
857,-0.34344566,-0.5695807,-0.49370587,-0.67225343,0.26019287,-0.4364868,104.0
858,0.09027034,-0.7019658,-0.6463807,-0.67225343,0.26019287,-0.4364868,104.0
859,0.09027034,-0.7019658,-0.6463807,-0.86978763,0.16885987,-0.3430298,104.0
860,1.512646,-1.1700687,-0.5337916,-0.86978763,0.16885987,-0.3430298,104.0
861,1.512646,-1.1700687,-0.5337916,-0.5097656,0.12956543,-0.2814331,104.0
862,3.354697,-1.8003738,-0.09093708,-0.5097656,0.12956543,-0.2814331,104.0
863,3.354697,-1.8003738,-0.09093708,0.2177124,0.1274414,-0.04248047,104.0
864,3.6560233,-1.8307042,0.038041353,0.2177124,0.1274414,-0.04248047,104.0
865,3.6560233,-1.8307042,0.038041353,0.7072998,0.15930176,0.32391357,104.0
866,1.9663348,-1.0325444,-0.54827785,0.7072998,0.15930176,0.32391357,104.0
867,1.9663348,-1.0325444,-0.54827785,0.97067875,0.053100586,0.6467652,104.0
868,0.31364393,0.0011618137,-1.2133415,0.97067875,0.053100586,0.6467652,104.0
869,0.31364393,0.0011618137,-1.2133415,1.3827393,-0.10195313,1.0227174,104.0
870,-0.18612099,0.7938614,-1.2836249,1.3827393,-0.10195313,1.0227174,104.0
871,-0.18612099,0.7938614,-1.2836249,1.8871949,-0.18585205,1.4273437,104.0
872,-0.39643097,1.281317,-0.8618365,1.8871949,-0.18585205,1.4273437,104.0
873,-0.39643097,1.281317,-0.8618365,2.1537597,-0.24532472,1.7278931,104.0
874,-0.828473,1.5382738,-0.44795308,2.1537597,-0.24532472,1.7278931,104.0
875,-0.828473,1.5382738,-0.44795308,2.163318,-0.27612305,1.9902099,104.0
876,-1.2039893,1.6254556,-0.30155095,2.163318,-0.27612305,1.9902099,104.0
877,-1.2039893,1.6254556,-0.30155095,2.0964112,-0.29205322,2.257837,104.0
878,-1.3237505,1.6404158,-0.3494805,2.0964112,-0.29205322,2.257837,104.0
879,-1.3237505,1.6404158,-0.3494805,1.988086,-0.2824951,2.4744873,104.0
880,-1.1325356,1.6877354,-0.51144475,1.988086,-0.2824951,2.4744873,104.0
881,-1.1325356,1.6877354,-0.51144475,1.8298463,-0.25700685,2.6539674,104.0
882,-0.66967595,1.791436,-0.706043,1.8298463,-0.25700685,2.6539674,104.0
883,-0.66967595,1.791436,-0.706043,1.6174439,-0.21558838,2.72406,104.0
884,-0.15069434,1.8496283,-0.8029692,1.6174439,-0.21558838,2.72406,104.0
885,-0.15069434,1.8496283,-0.8029692,1.4114136,-0.20284425,2.7251222,104.0
886,0.18183711,1.8022002,-0.7686571,1.4114136,-0.20284425,2.7251222,104.0
887,0.18183711,1.8022002,-0.7686571,1.2361816,-0.19541016,2.6348512,104.0
888,0.22678071,1.6822143,-0.6216395,1.2361816,-0.19541016,2.6348512,104.0
889,0.22678071,1.6822143,-0.6216395,1.0779419,-0.18054199,2.5190918,104.0
890,0.12407595,1.5282665,-0.456833,1.0779419,-0.18054199,2.5190918,104.0
891,0.12407595,1.5282665,-0.456833,0.903772,-0.1359375,2.3300538,104.0
892,0.08910453,1.3887143,-0.37114263,0.903772,-0.1359375,2.3300538,104.0
893,0.08910453,1.3887143,-0.37114263,0.6701294,-0.11044922,2.1218994,104.0
894,0.18358833,1.2769017,-0.38102055,0.6701294,-0.11044922,2.1218994,104.0
895,0.18358833,1.2769017,-0.38102055,0.4343628,-0.08814698,1.8882569,104.0
896,0.25065482,1.1935184,-0.409626,0.4343628,-0.08814698,1.8882569,104.0
897,0.25065482,1.1935184,-0.409626,0.2347046,-0.06903076,1.6439942,104.0
898,0.071935,1.0659475,-0.3620392,0.2347046,-0.06903076,1.6439942,104.0
899,0.071935,1.0659475,-0.3620392,0.13275146,-0.05628662,1.4050416,104.0
900,-0.16368008,0.9938469,-0.3224194,0.13275146,-0.05628662,1.4050416,104.0
901,-0.16368008,0.9938469,-0.3224194,0.121069334,-0.059472658,1.1671509,104.0
902,-0.25777513,0.9198334,-0.2702769,0.121069334,-0.059472658,1.1671509,104.0
903,-0.25777513,0.9198334,-0.2702769,0.08071289,-0.08814698,0.93350834,104.0
904,-0.0052679777,0.8217678,-0.19252777,0.08071289,-0.08814698,0.93350834,104.0
905,-0.0052679777,0.8217678,-0.19252777,0.027612304,-0.13168946,0.67225343,104.0
906,0.57789016,0.61985326,0.005535841,0.027612304,-0.13168946,0.67225343,104.0
907,0.57789016,0.61985326,0.005535841,0.029736329,-0.16992188,0.38551027,104.0
908,1.27209,0.3695886,0.3321874,0.029736329,-0.16992188,0.38551027,104.0
909,1.27209,0.3695886,0.3321874,0.019116212,-0.19647217,0.11257324,104.0
910,1.6773033,0.21395707,0.7053008,0.019116212,-0.19647217,0.11257324,104.0
911,1.6773033,0.21395707,0.7053008,-0.04141846,-0.18266602,-0.1178833,104.0
912,1.6329803,0.15833616,1.0603832,-0.04141846,-0.18266602,-0.1178833,104.0
913,1.6329803,0.15833616,1.0603832,-0.13168946,-0.1720459,-0.33028564,104.0
914,1.5356324,0.07222557,1.3445957,-0.13168946,-0.1720459,-0.33028564,104.0
915,1.5356324,0.07222557,1.3445957,-0.2262085,-0.20603028,-0.6265869,104.0
916,1.7287011,-0.07156515,1.4719534,-0.2262085,-0.20603028,-0.6265869,104.0
917,1.7287011,-0.07156515,1.4719534,-0.39613038,-0.29417726,-0.96430665,104.0
918,2.0092306,-0.18933201,1.4521356,-0.39613038,-0.29417726,-0.96430665,104.0
919,2.0092306,-0.18933201,1.4521356,-0.6860596,-0.37595215,-1.265918,104.0
920,1.8836908,-0.3334601,1.4774067,-0.6860596,-0.37595215,-1.265918,104.0
921,1.8836908,-0.3334601,1.4774067,-0.905896,-0.3791382,-1.4804443,104.0
922,0.87621546,-0.5250077,1.6819742,-0.905896,-0.3791382,-1.4804443,104.0
923,0.87621546,-0.5250077,1.6819742,-0.8814697,-0.36427003,-1.4783204,104.0
924,-0.8343303,-0.6847155,1.9523543,-0.8814697,-0.36427003,-1.4783204,104.0
925,-0.8343303,-0.6847155,1.9523543,-0.58623046,-0.42799073,-1.3083985,104.0
926,-2.4023886,-0.68794584,1.996649,-0.58623046,-0.42799073,-1.3083985,104.0
927,-2.4023886,-0.68794584,1.996649,-0.12319336,-0.47790527,-1.0598878,104.0
928,-3.1320305,-0.43144798,1.6770799,-0.12319336,-0.47790527,-1.0598878,104.0
929,-3.1320305,-0.43144798,1.6770799,-0.0180542,-0.41312256,-0.9483765,104.0
930,-2.8389983,-0.15536356,1.0652602,-0.0180542,-0.41312256,-0.9483765,104.0
931,-2.8389983,-0.15536356,1.0652602,0.05522461,-0.3982544,-0.7827026,104.0
932,-2.0090895,0.0094127655,0.31266952,0.05522461,-0.3982544,-0.7827026,104.0
933,-2.0090895,0.0094127655,0.31266952,-0.27399904,-0.5161377,-0.8050049,104.0
934,-1.2165,-0.06349039,-7.555485E-4,-0.27399904,-0.5161377,-0.8050049,104.0
935,-1.2165,-0.06349039,-7.555485E-4,-0.75509036,0.1901001,-0.98448485,104.0
936,-0.9845526,-1.0508168,0.13986182,-0.75509036,0.1901001,-0.98448485,104.0
937,-0.9845526,-1.0508168,0.13986182,-0.24957275,-0.058410645,-0.62552494,104.0
938,-0.9845526,-1.0508168,0.13986182,-0.24957275,-0.058410645,-0.62552494,105.0
939,-1.4449053,-1.5394205,0.13463116,-0.24957275,-0.058410645,-0.62552494,105.0
940,-1.4449053,-1.5394205,0.13463116,-0.6202149,-0.04885254,-1.1639649,105.0
941,-1.6016884,-0.78613853,-0.18136978,-0.6202149,-0.04885254,-1.1639649,105.0
942,-1.6016884,-0.78613853,-0.18136978,-1.1490967,0.10620117,-1.2223755,105.0
943,-1.2740144,-0.60331273,-0.68922424,-1.1490967,0.10620117,-1.2223755,105.0
944,-1.2740144,-0.60331273,-0.68922424,-0.92501223,0.14337158,-1.2404298,105.0
945,-0.9957618,-1.0690027,-0.9737916,-0.92501223,0.14337158,-1.2404298,105.0
946,-0.9957618,-1.0690027,-0.9737916,-0.3802002,0.11682129,-1.3030884,105.0
947,-0.77270806,-1.4923971,-0.90323985,-0.3802002,0.11682129,-1.3030884,105.0
948,-0.77270806,-1.4923971,-0.90323985,0.04885254,0.10407715,-1.3487549,105.0
949,-0.46209955,-1.5350431,-0.67798734,0.04885254,0.10407715,-1.3487549,105.0
950,-0.46209955,-1.5350431,-0.67798734,0.3355957,0.11363526,-1.3200806,105.0
951,-0.15920603,-1.3879344,-0.48970437,0.3355957,0.11363526,-1.3200806,105.0
952,-0.15920603,-1.3879344,-0.48970437,0.64995116,0.11257324,-1.265918,105.0
953,-8.511543E-4,-1.161727,-0.41756916,0.64995116,0.11257324,-1.265918,105.0
954,-8.511543E-4,-1.161727,-0.41756916,0.7805786,0.10407715,-1.1958252,105.0
955,0.038015366,-0.8799431,-0.44360125,0.7805786,0.10407715,-1.1958252,105.0
956,0.038015366,-0.8799431,-0.44360125,0.71579593,0.0637207,-1.0949341,105.0
957,0.086393714,-0.6693841,-0.46771055,0.71579593,0.0637207,-1.0949341,105.0
958,0.086393714,-0.6693841,-0.46771055,0.5734863,0.008496094,-1.0110352,105.0
959,0.26486695,-0.63632524,-0.33664405,0.5734863,0.008496094,-1.0110352,105.0
960,0.26486695,-0.63632524,-0.33664405,0.3727661,-0.03717041,-0.88996583,105.0
961,0.6053262,-0.74510765,-0.032498837,0.3727661,-0.03717041,-0.88996583,105.0
962,0.6053262,-0.74510765,-0.032498837,0.21983643,-0.06159668,-0.74871826,105.0
963,0.98798406,-0.8679855,0.29663277,0.21983643,-0.06159668,-0.74871826,105.0
964,0.98798406,-0.8679855,0.29663277,0.1178833,-0.06690674,-0.5607422,105.0
965,1.2477481,-0.86312616,0.46639562,0.1178833,-0.06690674,-0.5607422,105.0
966,1.2477481,-0.86312616,0.46639562,-0.083898924,-0.070092775,-0.34727785,105.0
967,1.4183645,-0.7901714,0.45865119,-0.083898924,-0.070092775,-0.34727785,105.0
968,1.4183645,-0.7901714,0.45865119,-0.24851075,-0.11257324,-0.16779785,105.0
969,1.9552727,-0.85177827,0.54738975,-0.24851075,-0.11257324,-0.16779785,105.0
970,1.9552727,-0.85177827,0.54738975,-0.18160401,-0.18372802,-0.027612304,105.0
971,3.0501556,-1.1224504,1.0082731,-0.18160401,-0.18372802,-0.027612304,105.0
972,3.0501556,-1.1224504,1.0082731,0.1178833,-0.14018555,0.2166504,105.0
973,3.39646,-1.2667346,1.4750878,0.1178833,-0.14018555,0.2166504,105.0
974,3.39646,-1.2667346,1.4750878,0.8793457,-0.013806152,0.59047854,105.0
975,1.7015185,-0.7210293,1.2129195,0.8793457,-0.013806152,0.59047854,105.0
976,1.7015185,-0.7210293,1.2129195,1.7873658,-0.022302246,0.92076415,105.0
977,-0.6992345,0.47167516,0.13111448,1.7873658,-0.022302246,0.92076415,105.0
978,-0.6992345,0.47167516,0.13111448,2.5583863,-0.057348635,1.2999023,105.0
979,-1.6803837,1.6600916,-1.0819614,2.5583863,-0.057348635,1.2999023,105.0
980,-1.6803837,1.6600916,-1.0819614,2.71875,0.020178223,1.6238159,105.0
981,-1.3267044,2.275217,-1.7045951,2.71875,0.020178223,1.6238159,105.0
982,-1.3267044,2.275217,-1.7045951,2.6837037,0.18479005,1.8372803,105.0
983,-0.93992794,2.2977738,-1.6090008,2.6837037,0.18479005,1.8372803,105.0
984,-0.93992794,2.2977738,-1.6090008,2.353418,0.35683593,1.9530395,105.0
985,-0.9620743,2.0542102,-1.1476499,2.353418,0.35683593,1.9530395,105.0
986,-0.9620743,2.0542102,-1.1476499,1.8818848,0.48746338,1.988086,105.0
987,-1.1472352,1.7830533,-0.68574685,1.8818848,0.48746338,1.988086,105.0
988,-1.1472352,1.7830533,-0.68574685,1.3115845,0.5564942,1.9551636,105.0
989,-1.328982,1.6663963,-0.51112187,1.3115845,0.5564942,1.9551636,105.0
990,-1.328982,1.6663963,-0.51112187,0.5564942,0.62552494,1.8372803,105.0
991,-1.404421,1.6333855,-0.664586,0.5564942,0.62552494,1.8372803,105.0
992,-1.404421,1.6333855,-0.664586,-0.3090454,0.6860596,1.7756836,105.0
993,-1.3030045,1.4286811,-0.93041146,-0.3090454,0.6860596,1.7756836,105.0
994,-1.3030045,1.4286811,-0.93041146,-0.81668705,0.60322267,1.6439942,105.0
995,-0.8771571,1.0835333,-1.0986505,-0.81668705,0.60322267,1.6439942,105.0
996,-0.8771571,1.0835333,-1.0986505,-1.0651978,0.5341919,1.5292969,105.0
997,-0.23182821,0.72853327,-1.1072651,-1.0651978,0.5341919,1.5292969,105.0
998,-0.23182821,0.72853327,-1.1072651,-0.9589966,0.45560303,1.3891114,105.0
999,0.28240854,0.44070017,-1.018881,-0.9589966,0.45560303,1.3891114,105.0
1000,0.28240854,0.44070017,-1.018881,-0.6680054,0.40993652,1.2276856,105.0
1001,0.56627107,0.3103727,-0.93362284,-0.6680054,0.40993652,1.2276856,105.0
1002,0.56627107,0.3103727,-0.93362284,-0.3164795,0.3791382,1.0906861,105.0
1003,0.6420916,0.34621072,-0.8460438,-0.3164795,0.3791382,1.0906861,105.0
1004,0.6420916,0.34621072,-0.8460438,-0.008496094,0.3525879,0.95368654,105.0
1005,0.6420916,0.34621072,-0.8460438,0.11363526,0.31223145,0.8219971,105.0
1006,0.542372,0.5580845,-0.74849033,0.11363526,0.31223145,0.8219971,105.0
1007,0.10805532,1.2267165,-0.6379036,0.11363526,0.31223145,0.8219971,105.0
1008,0.10805532,1.2267165,-0.6379036,0.04248047,0.26444092,0.69136965,105.0
1009,0.10805532,1.2267165,-0.6379036,-0.09451904,0.18585205,0.5649902,105.0
1010,0.10805532,1.2267165,-0.6379036,-0.2527588,0.09451904,0.42799073,105.0
1011,0.11730364,0.9463513,-0.46479058,-0.2527588,0.09451904,0.42799073,105.0
1012,0.11730364,0.9463513,-0.46479058,-0.33134767,-0.007434082,0.25913087,105.0
1013,0.4307814,0.58444905,-0.28894675,-0.33134767,-0.007434082,0.25913087,105.0
1014,0.4307814,0.58444905,-0.28894675,-0.29630128,-0.10195313,0.06265869,105.0
1015,0.92990345,0.29077697,-0.092778444,-0.29630128,-0.10195313,0.06265869,105.0
1016,0.92990345,0.29077697,-0.092778444,-0.3079834,-0.19434814,-0.13699952,105.0
1017,1.404311,0.14995575,0.11143398,-0.3079834,-0.19434814,-0.13699952,105.0
1018,1.404311,0.14995575,0.11143398,-0.40462646,-0.26550293,-0.36002198,105.0
1019,1.6406972,0.07653189,0.35679865,-0.40462646,-0.26550293,-0.36002198,105.0
1020,1.6406972,0.07653189,0.35679865,-0.4980835,-0.3334717,-0.59047854,105.0
1021,1.6872649,-0.07629895,0.6572529,-0.4980835,-0.3334717,-0.59047854,105.0
1022,1.6872649,-0.07629895,0.6572529,-0.5533081,-0.42161867,-0.8708496,105.0
1023,1.9313793,-0.33339024,0.98622715,-0.5533081,-0.42161867,-0.8708496,105.0
1024,1.9313793,-0.33339024,0.98622715,-0.58410645,-0.4991455,-1.183081,105.0
1025,2.3395982,-0.52139974,1.2829636,-0.58410645,-0.4991455,-1.183081,105.0
1026,2.3395982,-0.52139974,1.2829636,-0.724292,-0.5543701,-1.4007934,105.0
1027,2.3111928,-0.59602594,1.5364051,-0.724292,-0.5543701,-1.4007934,105.0
1028,2.3111928,-0.59602594,1.5364051,-0.85704345,-0.5065796,-1.5898316,105.0
1029,1.592936,-0.648,1.710838,-0.85704345,-0.5065796,-1.5898316,105.0
1030,1.592936,-0.648,1.710838,-0.9388184,-0.5214478,-1.725769,105.0
1031,0.42624092,-0.68949366,1.790289,-0.9388184,-0.5214478,-1.725769,105.0
1032,0.42624092,-0.68949366,1.790289,-0.9717407,-0.62977296,-1.725769,105.0
1033,-0.9401841,-0.7336384,1.7956345,-0.9717407,-0.62977296,-1.725769,105.0
1034,-0.9401841,-0.7336384,1.7956345,-0.7805786,-0.65207523,-1.5569092,105.0
1035,-2.2551992,-0.6499356,1.8479457,-0.7805786,-0.65207523,-1.5569092,105.0
1036,-2.2551992,-0.6499356,1.8479457,-0.53100586,-0.5214478,-1.3349488,105.0
1037,-3.1267424,-0.40639865,2.1081417,-0.53100586,-0.5214478,-1.3349488,105.0
1038,-3.1267424,-0.40639865,2.1081417,-0.34940186,-0.41099855,-1.0556396,105.0
1039,-3.3316064,-0.2913909,2.3928611,-0.34940186,-0.41099855,-1.0556396,105.0
1040,-3.3316064,-0.2913909,2.3928611,-0.52038574,-0.24638672,-1.0588257,105.0
1041,-2.8074603,-0.45410883,2.3779852,-0.52038574,-0.24638672,-1.0588257,105.0
1042,-2.8074603,-0.45410883,2.3779852,-1.2043213,-0.15080567,-0.88253176,105.0
1043,-2.0941982,-0.8282163,1.8571248,-1.2043213,-0.15080567,-0.88253176,105.0
1044,-2.0941982,-0.8282163,1.8571248,-1.5707153,-0.11151123,-0.8442993,105.0
1045,-1.672075,-0.90707994,0.80606127,-1.5707153,-0.11151123,-0.8442993,105.0
1046,-1.672075,-0.90707994,0.80606127,-1.7831177,-0.012744141,-0.62552494,105.0
1047,-1.3283705,-0.84673333,-0.71385455,-1.7831177,-0.012744141,-0.62552494,105.0
1048,-1.3283705,-0.84673333,-0.71385455,-0.89421386,0.12213135,-0.53100586,105.0
1049,-1.0786388,-0.99555075,-1.9974751,-0.89421386,0.12213135,-0.53100586,105.0
1050,-1.0786388,-0.99555075,-1.9974751,0.16885987,0.10513916,-0.5161377,105.0
1051,-1.0786388,-0.99555075,-1.9974751,0.16885987,0.10513916,-0.5161377,105.0
1052,-0.88588464,-0.9542165,-2.3646548,0.16885987,0.10513916,-0.5161377,105.0
1053,-0.88588464,-0.9542165,-2.3646548,0.79013675,0.11257324,-0.5341919,105.0
1054,-0.58506274,-0.7493473,-1.9607668,0.79013675,0.11257324,-0.5341919,105.0
1055,-0.58506274,-0.7493473,-1.9607668,1.0598878,0.12000733,-0.62552494,105.0
1056,-0.25058198,-0.5392484,-1.2630593,1.0598878,0.12000733,-0.62552494,105.0
1057,-0.25058198,-0.5392484,-1.2630593,1.1161743,0.20178223,-0.62127686,105.0
1058,-0.016249299,-0.45689923,-0.639549,1.1161743,0.20178223,-0.62127686,105.0
1059,-0.016249299,-0.45689923,-0.639549,1.0673218,0.27293703,-0.6956177,105.0
1060,-0.016249299,-0.45689923,-0.639549,0.9398804,0.2888672,-0.75721437,105.0
1061,0.059974194,-0.4581097,-0.24511099,0.9398804,0.2888672,-0.75721437,105.0
1062,0.094085336,-0.22427586,-0.46518064,0.9398804,0.2888672,-0.75721437,105.0
1063,0.094085336,-0.22427586,-0.46518064,0.5320679,0.28674316,-0.81881106,105.0
1064,0.094085336,-0.22427586,-0.46518064,0.011682129,0.24851075,-0.8400513,105.0
1065,0.094085336,-0.22427586,-0.46518064,-0.47365722,0.18266602,-0.85385746,105.0
1066,0.4323728,-0.3933733,-0.47307217,-0.47365722,0.18266602,-0.85385746,105.0
1067,0.4323728,-0.3933733,-0.47307217,-0.76677245,0.14549561,-0.8336792,105.0
1068,0.95850813,-0.72231585,-0.26358962,-0.76677245,0.14549561,-0.8336792,105.0
1069,0.95850813,-0.72231585,-0.26358962,-0.8729736,0.10938721,-0.75509036,105.0
1070,1.325974,-0.9937951,-0.036591887,-0.8729736,0.10938721,-0.75509036,105.0
1071,1.325974,-0.9937951,-0.036591887,-0.8995239,0.06584473,-0.62552494,105.0
1072,1.5030156,-1.1276655,0.024767041,-0.8995239,0.06584473,-0.62552494,105.0
1073,1.5030156,-1.1276655,0.024767041,-0.76358646,-0.04460449,-0.5246338,105.0
1074,2.1722977,-1.3333946,0.16322184,-0.76358646,-0.04460449,-0.5246338,105.0
1075,2.1722977,-1.3333946,0.16322184,-0.33028564,-0.14124756,-0.48215333,105.0
1076,3.545724,-1.72404,0.7166004,-0.33028564,-0.14124756,-0.48215333,105.0
1077,3.545724,-1.72404,0.7166004,0.46622315,-0.0722168,-0.21983643,105.0
1078,3.8266673,-1.7977257,1.2668228,0.46622315,-0.0722168,-0.21983643,105.0
1079,3.8266673,-1.7977257,1.2668228,1.3200806,0.124255374,0.20178223,105.0
1080,1.8534236,-1.0264373,0.9436829,1.3200806,0.124255374,0.20178223,105.0
1081,1.8534236,-1.0264373,0.9436829,1.9647217,0.08602295,0.5777344,105.0
1082,-0.53663373,0.37015867,-0.23080802,1.9647217,0.08602295,0.5777344,105.0
1083,-0.53663373,0.37015867,-0.23080802,2.444751,0.035046387,1.0768799,105.0
1084,-1.5641336,1.7315396,-1.3183744,2.444751,0.035046387,1.0768799,105.0
1085,-1.5641336,1.7315396,-1.3183744,2.611487,0.06478272,1.5579712,105.0
1086,-1.5396127,2.515725,-1.6626952,2.611487,0.06478272,1.5579712,105.0
1087,-1.5396127,2.515725,-1.6626952,2.552014,0.13487549,1.9848999,105.0
1088,-1.3338873,2.5645697,-1.3810961,2.552014,0.13487549,1.9848999,105.0
1089,-1.3338873,2.5645697,-1.3810961,2.073047,0.24320069,2.0454347,105.0
1090,-1.2247393,2.1283648,-0.90736717,2.073047,0.24320069,2.0454347,105.0
1091,-1.2247393,2.1283648,-0.90736717,1.6068238,0.2793091,2.1728761,105.0
1092,-1.1391542,1.6108462,-0.54288596,1.6068238,0.2793091,2.1728761,105.0
1093,-1.1391542,1.6108462,-0.54288596,1.1809571,0.31329346,2.1505737,105.0
1094,-1.0151442,1.3885915,-0.4285959,1.1809571,0.31329346,2.1505737,105.0
1095,-1.0151442,1.3885915,-0.4285959,0.4630371,0.44179687,2.0932252,105.0
1096,-1.0009825,1.424887,-0.5201228,0.4630371,0.44179687,2.0932252,105.0
1097,-1.0009825,1.424887,-0.5201228,-0.40250245,0.5161377,2.0464966,105.0
1098,-1.0882128,1.3481982,-0.7200167,-0.40250245,0.5161377,2.0464966,105.0
1099,-1.0882128,1.3481982,-0.7200167,-0.811377,0.45666504,1.9264892,105.0
1100,-1.0139663,1.1160829,-0.9116945,-0.811377,0.45666504,1.9264892,105.0
1101,-1.0139663,1.1160829,-0.9116945,-0.9653687,0.39082032,1.718335,105.0
1102,-0.7535803,0.8949537,-0.9462868,-0.9653687,0.39082032,1.718335,105.0
1103,-0.7535803,0.8949537,-0.9462868,-0.9515625,0.33878174,1.5101807,105.0
1104,-0.4654985,0.7070885,-0.83310366,-0.9515625,0.33878174,1.5101807,105.0
1105,-0.4654985,0.7070885,-0.83310366,-0.7625244,0.29417726,1.3030884,105.0
1106,-0.20919079,0.54312444,-0.69635355,-0.7625244,0.29417726,1.3030884,105.0
1107,-0.20919079,0.54312444,-0.69635355,-0.45347902,0.24957275,1.0683838,105.0
1108,0.049627364,0.47163343,-0.5867826,-0.45347902,0.24957275,1.0683838,105.0
1109,0.049627364,0.47163343,-0.5867826,-0.18797608,0.21877442,0.83686525,105.0
1110,0.049627364,0.47163343,-0.5867826,0.019116212,0.18054199,0.60216063,105.0
1111,0.2473557,0.50120807,-0.4912889,0.019116212,0.18054199,0.60216063,105.0
1112,0.30640507,0.84038305,-0.29200578,0.019116212,0.18054199,0.60216063,105.0
1113,0.30640507,0.84038305,-0.29200578,0.09770508,0.14549561,0.38975832,105.0
1114,0.30640507,0.84038305,-0.29200578,0.0637207,0.1083252,0.20603028,105.0
1115,0.30640507,0.84038305,-0.29200578,-0.052038576,0.03717041,0.025488282,105.0
1116,0.46735308,0.63568544,-0.15145123,-0.052038576,0.03717041,0.025488282,105.0
1117,0.46735308,0.63568544,-0.15145123,-0.09451904,-0.029736329,-0.18054199,105.0
1118,0.92748356,0.3249302,0.065850735,-0.09451904,-0.029736329,-0.18054199,105.0
1119,0.92748356,0.3249302,0.065850735,-0.081774905,-0.08283692,-0.37489015,105.0
1120,1.4954293,0.0903883,0.36334956,-0.081774905,-0.08283692,-0.37489015,105.0
1121,1.4954293,0.0903883,0.36334956,-0.15186767,-0.107263185,-0.56605226,105.0
1122,1.9904718,-0.04175186,0.69124115,-0.15186767,-0.107263185,-0.56605226,105.0
1123,1.9904718,-0.04175186,0.69124115,-0.23789063,-0.083898924,-0.76677245,105.0
1124,2.313752,-0.1426301,1.0491477,-0.23789063,-0.083898924,-0.76677245,105.0
1125,2.313752,-0.1426301,1.0491477,-0.38657227,-0.09664307,-0.9547486,105.0
1126,2.5892463,-0.28459978,1.3176262,-0.38657227,-0.09664307,-0.9547486,105.0
1127,2.5892463,-0.28459978,1.3176262,-0.5968506,-0.17629395,-1.2096313,105.0
1128,2.8789287,-0.40454745,1.3770992,-0.5968506,-0.17629395,-1.2096313,105.0
1129,2.8789287,-0.40454745,1.3770992,-0.91120607,-0.24532472,-1.4687623,105.0
1130,2.7777033,-0.43665075,1.3435372,-0.91120607,-0.24532472,-1.4687623,105.0
1131,2.7777033,-0.43665075,1.3435372,-1.2627319,-0.24638672,-1.5654052,105.0
1132,1.8527536,-0.58469653,1.4302986,-1.2627319,-0.24638672,-1.5654052,105.0
1133,1.8527536,-0.58469653,1.4302986,-1.2298096,-0.27718505,-1.5643433,105.0
1134,0.26250076,-0.7962117,1.6504523,-1.2298096,-0.27718505,-1.5643433,105.0
1135,0.26250076,-0.7962117,1.6504523,-0.98129886,-0.26444092,-1.4846925,105.0
1136,-1.4763031,-0.8196598,1.8047247,-0.98129886,-0.26444092,-1.4846925,105.0
1137,-1.4763031,-0.8196598,1.8047247,-0.74871826,-0.26762697,-1.2000732,105.0
1138,-2.858789,-0.66936314,1.6491387,-0.74871826,-0.26762697,-1.2000732,105.0
1139,-2.858789,-0.66936314,1.6491387,-0.40250245,-0.2824951,-0.8666016,105.0
1140,-3.3951368,-0.4352951,1.10144,-0.40250245,-0.2824951,-0.8666016,105.0
1141,-3.3951368,-0.4352951,1.10144,-0.095581055,-0.29523927,-0.6616333,105.0
1142,-3.3951368,-0.4352951,1.10144,-0.095581055,-0.29523927,-0.6616333,106.0
1143,-2.9749842,-0.26032114,0.3320918,-0.095581055,-0.29523927,-0.6616333,106.0
1144,-2.9749842,-0.26032114,0.3320918,0.19116211,-0.29523927,-0.5363159,106.0
1145,-2.062336,-0.21702158,-0.33797646,0.19116211,-0.29523927,-0.5363159,106.0
1146,-2.062336,-0.21702158,-0.33797646,0.44179687,-0.22833252,-0.50020754,106.0
1147,-1.3186554,-0.19008446,-0.68687284,0.44179687,-0.22833252,-0.50020754,106.0
1148,-1.3186554,-0.19008446,-0.68687284,0.50020754,-0.090270996,-0.48427734,106.0
1149,-1.10219,-0.05088353,-0.73605824,0.50020754,-0.090270996,-0.48427734,106.0
1150,-1.10219,-0.05088353,-0.73605824,0.070092775,0.0722168,-0.50020754,106.0
1151,-1.10219,-0.05088353,-0.73605824,-0.39294434,0.18585205,-0.50870365,106.0
1152,-1.2122817,0.0387609,-0.66179585,-0.39294434,0.18585205,-0.50870365,106.0
1153,-1.304408,-0.12781692,-0.5884943,-0.39294434,0.18585205,-0.50870365,106.0
1154,-1.304408,-0.12781692,-0.5884943,-0.58410645,0.20072022,-0.54906005,106.0
1155,-1.19598,-0.43341815,-0.5218452,-0.58410645,0.20072022,-0.54906005,106.0
1156,-1.19598,-0.43341815,-0.5218452,-0.61278075,0.18372802,-0.5809204,106.0
1157,-0.9725921,-0.54826045,-0.42902398,-0.61278075,0.18372802,-0.5809204,106.0
1158,-0.9725921,-0.54826045,-0.42902398,-0.6117188,0.17416993,-0.6000366,106.0
1159,-0.64711666,-0.8242895,-0.38302636,-0.6117188,0.17416993,-0.6000366,106.0
1160,-0.64711666,-0.8242895,-0.38302636,-0.6573853,0.16461182,-0.67225343,106.0
1161,-0.48346484,-0.84044963,-0.3092165,-0.6573853,0.16461182,-0.67225343,106.0
1162,-0.48346484,-0.84044963,-0.3092165,-0.6414551,0.16354981,-0.6956177,106.0
1163,-0.26239443,-1.0547694,-0.24404073,-0.6414551,0.16354981,-0.6956177,106.0
1164,-0.26239443,-1.0547694,-0.24404073,-0.42055663,0.15823975,-0.7593384,106.0
1165,-0.19614601,-1.0037764,-0.20330143,-0.42055663,0.15823975,-0.7593384,106.0
1166,-0.19614601,-1.0037764,-0.20330143,-0.30373535,0.14868164,-0.76677245,106.0
1167,0.03514862,-0.86469114,-0.21973348,-0.30373535,0.14868164,-0.76677245,106.0
1168,0.03514862,-0.86469114,-0.21973348,-0.11469727,0.095581055,-0.8230591,106.0
1169,0.12086797,-0.748479,-0.20529115,-0.11469727,0.095581055,-0.8230591,106.0
1170,0.12086797,-0.748479,-0.20529115,-0.1263794,0.07540283,-0.83049315,106.0
1171,0.5932275,-0.6845742,-0.0282588,-0.1263794,0.07540283,-0.83049315,106.0
1172,0.5932275,-0.6845742,-0.0282588,-0.16461182,0.053100586,-0.811377,106.0
1173,0.66100776,-0.7056794,0.11741984,-0.16461182,0.053100586,-0.811377,106.0
1174,0.66100776,-0.7056794,0.11741984,-0.17629395,0.052038576,-0.7678345,106.0
1175,0.9952491,-0.7388722,0.47160923,-0.17629395,0.052038576,-0.7678345,106.0
1176,0.9952491,-0.7388722,0.47160923,-0.31435546,0.043542482,-0.54906005,106.0
1177,0.8721392,-0.63359046,0.42278302,-0.31435546,0.043542482,-0.54906005,106.0
1178,0.8721392,-0.63359046,0.42278302,-0.37701416,0.011682129,-0.46728516,106.0
1179,1.594977,-0.6889037,0.3984437,-0.37701416,0.011682129,-0.46728516,106.0
1180,1.594977,-0.6889037,0.3984437,-0.23895264,-0.09451904,-0.34833986,106.0
1181,2.0218923,-0.7892699,0.47963142,-0.23895264,-0.09451904,-0.34833986,106.0
1182,2.0218923,-0.7892699,0.47963142,-0.04460449,-0.09664307,-0.30161133,106.0
1183,4.0154996,-1.3994336,1.1614273,-0.04460449,-0.09664307,-0.30161133,106.0
1184,4.0154996,-1.3994336,1.1614273,0.6467652,0.095581055,0.15080567,106.0
1185,3.3790746,-1.185941,1.0122716,0.6467652,0.095581055,0.15080567,106.0
1186,3.3790746,-1.185941,1.0122716,0.9154541,0.15186767,0.36320803,106.0
1187,1.8016849,-0.5108011,0.41594517,0.9154541,0.15186767,0.36320803,106.0
1188,1.8016849,-0.5108011,0.41594517,1.3338867,0.13912354,0.70305175,106.0
1189,0.043190956,0.70694757,-0.6873244,1.3338867,0.13912354,0.70305175,106.0
1190,0.043190956,0.70694757,-0.6873244,1.6078857,0.118945315,1.1342286,106.0
1191,-1.4356987,2.2692568,-1.6697326,1.6078857,0.118945315,1.1342286,106.0
1192,-1.4356987,2.2692568,-1.6697326,1.6142578,0.10195313,1.7300171,106.0
1193,-1.4244502,2.296509,-1.4853222,1.6142578,0.10195313,1.7300171,106.0
1194,-1.4244502,2.296509,-1.4853222,1.5505371,0.078588866,1.8383423,106.0
1195,-1.636191,2.0458133,-0.9353647,1.5505371,0.078588866,1.8383423,106.0
1196,-1.636191,2.0458133,-0.9353647,1.2425537,0.0637207,1.9615357,106.0
1197,-1.3030202,1.7109303,-0.642762,1.2425537,0.0637207,1.9615357,106.0
1198,-1.3030202,1.7109303,-0.642762,1.1002442,0.07752686,1.9827759,106.0
1199,-1.4077239,1.2620549,-0.23894107,1.1002442,0.07752686,1.9827759,106.0
1200,-1.4077239,1.2620549,-0.23894107,0.46516114,0.18585205,1.9562256,106.0
1201,-1.2450145,1.2540654,-0.2544219,0.46516114,0.18585205,1.9562256,106.0
1202,-1.2450145,1.2540654,-0.2544219,0.20709229,0.2166504,1.9594116,106.0
1203,-1.3853915,1.3111746,-0.50982416,0.20709229,0.2166504,1.9594116,106.0
1204,-1.3853915,1.3111746,-0.50982416,-0.17416993,0.24001466,1.905249,106.0
1205,-1.3853915,1.3111746,-0.50982416,-0.31223145,0.21983643,1.7491333,106.0
1206,-1.35199,1.2873064,-0.82494915,-0.31223145,0.21983643,1.7491333,106.0
1207,-1.35199,1.2873064,-0.82494915,-0.24957275,0.19116211,1.5515991,106.0
1208,-1.0803835,1.1355824,-0.96412194,-0.24957275,0.19116211,1.5515991,106.0
1209,-0.6741335,0.8862004,-0.8673303,-0.24957275,0.19116211,1.5515991,106.0
1210,-0.6741335,0.8862004,-0.8673303,-0.08602295,0.16885987,1.3232666,106.0
1211,-0.2723146,0.67180204,-0.67202586,-0.08602295,0.16885987,1.3232666,106.0
1212,-0.2723146,0.67180204,-0.67202586,0.07434082,0.15930176,1.088562,106.0
1213,0.029365122,0.5622952,-0.50104845,0.07434082,0.15930176,1.088562,106.0
1214,0.029365122,0.5622952,-0.50104845,0.17735596,0.15717773,0.8464233,106.0
1215,0.28229332,0.5654123,-0.37581432,0.17735596,0.15717773,0.8464233,106.0
1216,0.28229332,0.5654123,-0.37581432,0.16248779,0.16248779,0.5968506,106.0
1217,0.4535324,0.590904,-0.27581012,0.16248779,0.16248779,0.5968506,106.0
1218,0.4535324,0.590904,-0.27581012,0.090270996,0.16036378,0.34833986,106.0
1219,0.49445435,0.5438659,-0.16610706,0.090270996,0.16036378,0.34833986,106.0
1220,0.49445435,0.5438659,-0.16610706,-0.059472658,0.12850343,0.0063720704,106.0
1221,0.4197212,0.42205548,-0.11759019,-0.059472658,0.12850343,0.0063720704,106.0
1222,0.4197212,0.42205548,-0.11759019,-0.11363526,0.1083252,-0.095581055,106.0
1223,0.47599912,0.26045942,-0.03928697,-0.11363526,0.1083252,-0.095581055,106.0
1224,0.47599912,0.26045942,-0.03928697,-0.19116211,0.0722168,-0.2814331,106.0
1225,0.47599912,0.26045942,-0.03928697,-0.21134034,0.03079834,-0.43754885,106.0
1226,0.6693369,0.074077845,0.08617294,-0.21134034,0.03079834,-0.43754885,106.0
1227,0.9021443,-0.0672636,0.21176064,-0.21134034,0.03079834,-0.43754885,106.0
1228,0.9021443,-0.0672636,0.21176064,-0.24638672,-0.016992187,-0.56605226,106.0
1229,1.1343498,-0.15819335,0.352221,-0.24638672,-0.016992187,-0.56605226,106.0
1230,1.1343498,-0.15819335,0.352221,-0.3154175,-0.05522461,-0.69136965,106.0
1231,1.4857025,-0.2715497,0.5566914,-0.3154175,-0.05522461,-0.69136965,106.0
1232,1.4857025,-0.2715497,0.5566914,-0.36745605,-0.11151123,-0.8517334,106.0
1233,2.1310058,-0.49225187,0.82645667,-0.36745605,-0.11151123,-0.8517334,106.0
1234,2.1310058,-0.49225187,0.82645667,-0.41312256,-0.20284425,-1.085376,106.0
1235,2.9638991,-0.7296536,1.0783162,-0.41312256,-0.20284425,-1.085376,106.0
1236,2.9638991,-0.7296536,1.0783162,-0.51188964,-0.24320069,-1.3062744,106.0
1237,3.1862926,-0.826545,1.2283146,-0.51188964,-0.24320069,-1.3062744,106.0
1238,3.1862926,-0.826545,1.2283146,-0.7678345,-0.20178223,-1.3710572,106.0
1239,2.1696029,-0.8059137,1.1839945,-0.7678345,-0.20178223,-1.3710572,106.0
1240,2.1696029,-0.8059137,1.1839945,-0.94625247,-0.15080567,-1.3891114,106.0
1241,0.4464488,-0.7445723,1.0234773,-0.94625247,-0.15080567,-1.3891114,106.0
1242,0.4464488,-0.7445723,1.0234773,-0.8464233,-0.16992188,-1.26167,106.0
1243,-1.1539493,-0.5885656,0.91419196,-0.8464233,-0.16992188,-1.26167,106.0
1244,-1.1539493,-0.5885656,0.91419196,-0.5692383,-0.2177124,-1.0067872,106.0
1245,-2.2883573,-0.32084024,0.85289896,-0.5692383,-0.2177124,-1.0067872,106.0
1246,-2.2883573,-0.32084024,0.85289896,-0.39188233,-0.27399904,-0.7349121,106.0
1247,-2.2883573,-0.32084024,0.85289896,-0.39188233,-0.27399904,-0.7349121,106.0
1248,-2.2883573,-0.32084024,0.85289896,-0.10513916,-0.32285157,-0.51188964,106.0
1249,-2.7812717,-0.15109348,0.7062571,-0.10513916,-0.32285157,-0.51188964,106.0
1250,-2.5446463,-0.18700027,0.38207114,-0.10513916,-0.32285157,-0.51188964,106.0
1251,-2.5446463,-0.18700027,0.38207114,0.18054199,-0.34833986,-0.3706421,106.0
1252,-1.8737054,-0.29437554,0.004204273,0.18054199,-0.34833986,-0.3706421,106.0
1253,-1.8737054,-0.29437554,0.004204273,0.3355957,-0.3069214,-0.31010744,106.0
1254,-1.3236958,-0.2939477,-0.21359217,0.3355957,-0.3069214,-0.31010744,106.0
1255,-1.3236958,-0.2939477,-0.21359217,0.26019287,-0.20390625,-0.27612305,106.0
1256,-1.3236958,-0.2939477,-0.21359217,-0.060534667,-0.06690674,-0.28461915,106.0
1257,-1.1667813,-0.12492871,-0.24400616,-0.060534667,-0.06690674,-0.28461915,106.0
1258,-1.2616966,0.05966401,-0.20257795,-0.060534667,-0.06690674,-0.28461915,106.0
1259,-1.2616966,0.05966401,-0.20257795,-0.48215333,0.046728518,-0.32178956,106.0
1260,-1.3392767,0.037062287,-0.16700625,-0.48215333,0.046728518,-0.32178956,106.0
1261,-1.3392767,0.037062287,-0.16700625,-0.7890747,0.07434082,-0.38232422,106.0
1262,-1.26179,-0.21732283,-0.14351714,-0.7890747,0.07434082,-0.38232422,106.0
1263,-1.26179,-0.21732283,-0.14351714,-0.91120607,0.07434082,-0.4694092,106.0
1264,-1.0544516,-0.52450526,-0.12210131,-0.91120607,0.07434082,-0.4694092,106.0
1265,-1.0544516,-0.52450526,-0.12210131,-0.9165161,0.07965088,-0.5671143,106.0
1266,-0.81973314,-0.7447995,-0.08863568,-0.9165161,0.07965088,-0.5671143,106.0
1267,-0.81973314,-0.7447995,-0.08863568,-0.9122681,0.095581055,-0.6467652,106.0
1268,-0.60752,-0.90233374,-0.03129673,-0.9122681,0.095581055,-0.6467652,106.0
1269,-0.60752,-0.90233374,-0.03129673,-0.7848267,0.10301514,-0.6966797,106.0
1270,-0.4275931,-0.9997479,0.014391303,-0.7848267,0.10301514,-0.6966797,106.0
1271,-0.4275931,-0.9997479,0.014391303,-0.51188964,0.10301514,-0.7423462,106.0
1272,-0.2800262,-0.9782529,0.023707867,-0.51188964,0.10301514,-0.7423462,106.0
1273,-0.2800262,-0.9782529,0.023707867,-0.22089843,0.09239502,-0.7614624,106.0
1274,-0.115683556,-0.8270359,0.011532187,-0.22089843,0.09239502,-0.7614624,106.0
1275,-0.115683556,-0.8270359,0.011532187,-0.027612304,0.060534667,-0.77102053,106.0
1276,0.0702827,-0.6594681,0.024362445,-0.027612304,0.060534667,-0.77102053,106.0
1277,0.0702827,-0.6594681,0.024362445,0.038232423,0.03186035,-0.77102053,106.0
1278,0.27548885,-0.5870594,0.1122756,0.038232423,0.03186035,-0.77102053,106.0
1279,0.27548885,-0.5870594,0.1122756,0.050976563,0.023364259,-0.725354,106.0
1280,0.55136037,-0.6272403,0.26312375,0.050976563,0.023364259,-0.725354,106.0
1281,0.55136037,-0.6272403,0.26312375,0.06903076,0.016992187,-0.6573853,106.0
1282,0.8897699,-0.6573464,0.34647322,0.06903076,0.016992187,-0.6573853,106.0
1283,0.8897699,-0.6573464,0.34647322,0.035046387,0.0,-0.5331299,106.0
1284,1.2380611,-0.60051095,0.2700863,0.035046387,0.0,-0.5331299,106.0
1285,1.2380611,-0.60051095,0.2700863,0.0,-0.019116212,-0.3993164,106.0
1286,1.715522,-0.55770373,0.19882047,0.0,-0.019116212,-0.3993164,106.0
1287,1.715522,-0.55770373,0.19882047,-0.026550293,-0.078588866,-0.30373535,106.0
1288,2.705511,-0.6713827,0.346825,-0.026550293,-0.078588866,-0.30373535,106.0
1289,2.705511,-0.6713827,0.346825,0.058410645,-0.11151123,-0.17523193,106.0
1290,3.7393844,-0.93387127,0.675104,0.058410645,-0.11151123,-0.17523193,106.0
1291,3.7393844,-0.93387127,0.675104,0.16142578,0.0031860352,0.078588866,106.0
1292,3.2584264,-1.0378442,0.73682404,0.16142578,0.0031860352,0.078588866,106.0
1293,3.2584264,-1.0378442,0.73682404,0.8379273,0.1083252,0.35577393,106.0
1294,1.1882477,-0.57141304,0.16915894,0.8379273,0.1083252,0.35577393,106.0
1295,1.1882477,-0.57141304,0.16915894,1.5760254,0.05628662,0.5012695,106.0
1296,-0.6049926,0.47571874,-0.7507813,1.5760254,0.05628662,0.5012695,106.0
1297,-0.6049926,0.47571874,-0.7507813,2.0146363,0.032922365,0.7986328,106.0
1298,-1.1651342,1.5267664,-1.3974146,2.0146363,0.032922365,0.7986328,106.0
1299,-1.1651342,1.5267664,-1.3974146,2.0231323,0.09770508,1.0790039,106.0
1300,-1.247,1.998525,-1.4786494,2.0231323,0.09770508,1.0790039,106.0
1301,-1.247,1.998525,-1.4786494,1.7640015,0.18054199,1.2584839,106.0
1302,-1.4659716,1.8489788,-1.1210177,1.7640015,0.18054199,1.2584839,106.0
1303,-1.4659716,1.8489788,-1.1210177,1.4007934,0.22514649,1.3689331,106.0
1304,-1.6483631,1.4286337,-0.61916524,1.4007934,0.22514649,1.3689331,106.0
1305,-1.6483631,1.4286337,-0.61916524,1.1023682,0.22727051,1.5016845,106.0
1306,-1.6656876,1.1618035,-0.27834004,1.1023682,0.22727051,1.5016845,106.0
1307,-1.6656876,1.1618035,-0.27834004,0.6616333,0.24851075,1.5346069,106.0
1308,-1.5956117,1.11831,-0.3038854,0.6616333,0.24851075,1.5346069,106.0
1309,-1.5956117,1.11831,-0.3038854,0.15930176,0.3058594,1.5123047,106.0
1310,-1.3849244,1.0971017,-0.60028607,0.15930176,0.3058594,1.5123047,106.0
1311,-1.3849244,1.0971017,-0.60028607,-0.118945315,0.30054933,1.4719483,106.0
1312,-1.0480518,0.9843464,-0.9009564,-0.118945315,0.30054933,1.4719483,106.0
1313,-1.0480518,0.9843464,-0.9009564,-0.22196046,0.31435546,1.3487549,106.0
1314,-0.6910904,0.7812271,-0.97788185,-0.22196046,0.31435546,1.3487549,106.0
1315,-0.6910904,0.7812271,-0.97788185,-0.27506104,0.34090576,1.1883911,106.0
1316,-0.37639523,0.5183289,-0.8637874,-0.27506104,0.34090576,1.1883911,106.0
1317,-0.37639523,0.5183289,-0.8637874,-0.2442627,0.35046387,0.99085695,106.0
1318,-0.09065473,0.25602055,-0.6277487,-0.2442627,0.35046387,0.99085695,106.0
1319,-0.09065473,0.25602055,-0.6277487,-0.093457036,0.34833986,0.79332274,106.0
1320,0.13261533,0.23699427,-0.44037032,-0.093457036,0.34833986,0.79332274,106.0
1321,0.13261533,0.23699427,-0.44037032,0.022302246,0.3345337,0.6117188,106.0
1322,0.29415375,0.4265095,-0.40743542,0.022302246,0.3345337,0.6117188,106.0
1323,0.29415375,0.4265095,-0.40743542,-0.08071289,0.32922363,0.43754885,106.0
1324,0.39805496,0.48948646,-0.3633507,-0.08071289,0.32922363,0.43754885,106.0
1325,0.39805496,0.48948646,-0.3633507,-0.2081543,0.30054933,0.26975098,106.0
1326,0.35969153,0.4297483,-0.2665472,-0.2081543,0.30054933,0.26975098,106.0
1327,0.35969153,0.4297483,-0.2665472,-0.31435546,0.24638672,0.12531738,106.0
1328,0.19567558,0.2579589,-0.13173139,-0.31435546,0.24638672,0.12531738,106.0
1329,0.19567558,0.2579589,-0.13173139,-0.41099855,0.19541016,0.0063720704,106.0
1330,0.117844194,0.03996086,0.0010358095,-0.41099855,0.19541016,0.0063720704,106.0
1331,0.117844194,0.03996086,0.0010358095,-0.44073486,0.12531738,-0.083898924,106.0
1332,0.30124557,-0.16060948,0.114085495,-0.44073486,0.12531738,-0.083898924,106.0
1333,0.30124557,-0.16060948,0.114085495,-0.3802002,0.04141846,-0.17523193,106.0
1334,0.30124557,-0.16060948,0.114085495,-0.270813,-0.028674318,-0.26656494,106.0
1335,0.7624442,-0.27638793,0.2304774,-0.270813,-0.028674318,-0.26656494,106.0
1336,1.2417914,-0.32574916,0.4005074,-0.270813,-0.028674318,-0.26656494,106.0
1337,1.2417914,-0.32574916,0.4005074,-0.22089843,-0.070092775,-0.3451538,106.0
1338,1.5730962,-0.2606603,0.5643634,-0.22089843,-0.070092775,-0.3451538,106.0
1339,1.5730962,-0.2606603,0.5643634,-0.32603762,-0.095581055,-0.40993652,106.0
1340,1.6855034,-0.19276893,0.72548974,-0.32603762,-0.095581055,-0.40993652,106.0
1341,1.6855034,-0.19276893,0.72548974,-0.48746338,-0.16673584,-0.4895874,106.0
1342,1.6855034,-0.19276893,0.72548974,-0.5883545,-0.27399904,-0.6701294,106.0
1343,1.8559711,-0.27771378,0.8735193,-0.5883545,-0.27399904,-0.6701294,106.0
1344,2.3217397,-0.50072324,1.0203242,-0.5883545,-0.27399904,-0.6701294,106.0
1345,2.3217397,-0.50072324,1.0203242,-0.6180908,-0.3451538,-0.84323734,106.0
1346,2.5640812,-0.690752,1.174194,-0.6180908,-0.3451538,-0.84323734,106.0
1347,2.5640812,-0.690752,1.174194,-0.6680054,-0.3812622,-0.93350834,106.0
1348,2.011177,-0.7738663,1.2459592,-0.6680054,-0.3812622,-0.93350834,106.0
1349,2.011177,-0.7738663,1.2459592,-0.60322267,-0.38763428,-0.9366943,106.0
1350,0.728827,-0.7350477,1.2559104,-0.60322267,-0.38763428,-0.9366943,106.0
1351,0.728827,-0.7350477,1.2559104,-0.2824951,-0.39082032,-0.77739257,106.0
1352,-0.8539257,-0.44658315,1.2270428,-0.2824951,-0.39082032,-0.77739257,106.0
1353,-0.8539257,-0.44658315,1.2270428,-0.052038576,-0.33771974,-0.5384399,106.0
1354,-0.8539257,-0.44658315,1.2270428,-0.052038576,-0.33771974,-0.5384399,107.0
1355,-2.2560532,0.0837003,1.0925473,-0.052038576,-0.33771974,-0.5384399,107.0
1356,-2.2560532,0.0837003,1.0925473,-0.0361084,-0.3175415,-0.24744873,107.0
1357,-3.0150843,0.5578172,0.7923484,-0.0361084,-0.3175415,-0.24744873,107.0
1358,-3.0150843,0.5578172,0.7923484,-0.095581055,-0.31223145,-0.059472658,107.0
1359,-2.8901436,0.6818129,0.35580254,-0.095581055,-0.31223145,-0.059472658,107.0
1360,-2.8901436,0.6818129,0.35580254,-0.11044922,-0.27612305,0.025488282,107.0
1361,-2.2806818,0.49516952,0.052952528,-0.11044922,-0.27612305,0.025488282,107.0
1362,-2.2806818,0.49516952,0.052952528,-0.0010620117,-0.22302246,0.043542482,107.0
1363,-1.8065035,0.40325236,0.14919794,-0.0010620117,-0.22302246,0.043542482,107.0
1364,-1.8065035,0.40325236,0.14919794,-0.5140137,-0.08071289,-0.107263185,107.0
1365,-1.5511599,0.39456236,0.42847705,-0.5140137,-0.08071289,-0.107263185,107.0
1366,-1.5511599,0.39456236,0.42847705,-1.442212,0.08071289,-0.13487549,107.0
1367,-1.2572731,0.07645309,0.33700776,-1.442212,0.08071289,-0.13487549,107.0
1368,-1.2572731,0.07645309,0.33700776,-1.8510865,0.26125488,-0.17841797,107.0
1369,-1.2572731,0.07645309,0.33700776,-1.4868164,0.29417726,-0.1901001,107.0
1370,-1.0064533,-0.60751426,-0.16534257,-1.4868164,0.29417726,-0.1901001,107.0
1371,-0.892504,-1.1086555,-0.53282344,-1.4868164,0.29417726,-0.1901001,107.0
1372,-0.892504,-1.1086555,-0.53282344,-0.9451904,0.29948732,-0.30054933,107.0
1373,-0.73623216,-1.0904766,-0.6765883,-0.9451904,0.29948732,-0.30054933,107.0
1374,-0.73623216,-1.0904766,-0.6765883,-0.3993164,0.2899292,-0.35046387,107.0
1375,-0.49317276,-0.7831479,-0.66536736,-0.3993164,0.2899292,-0.35046387,107.0
1376,-0.49317276,-0.7831479,-0.66536736,-0.13699952,0.271875,-0.42374268,107.0
1377,-0.49317276,-0.7831479,-0.66536736,0.081774905,0.22514649,-0.4885254,107.0
1378,-0.26070023,-0.4820481,-0.58385634,0.081774905,0.22514649,-0.4885254,107.0
1379,-0.04863584,-0.35549933,-0.4927442,0.081774905,0.22514649,-0.4885254,107.0
1380,-0.04863584,-0.35549933,-0.4927442,0.25700685,0.17523193,-0.55755615,107.0
1381,0.11999035,-0.31894535,-0.3888365,0.25700685,0.17523193,-0.55755615,107.0
1382,0.11999035,-0.31894535,-0.3888365,0.3355957,0.13275146,-0.64570314,107.0
1383,0.2468102,-0.30175054,-0.26836896,0.3355957,0.13275146,-0.64570314,107.0
1384,0.2468102,-0.30175054,-0.26836896,0.29948732,0.09451904,-0.7189819,107.0
1385,0.364892,-0.31437406,-0.13519073,0.29948732,0.09451904,-0.7189819,107.0
1386,0.364892,-0.31437406,-0.13519073,0.20072022,0.06478272,-0.7763306,107.0
1387,0.57677686,-0.405906,0.019191146,0.20072022,0.06478272,-0.7763306,107.0
1388,0.57677686,-0.405906,0.019191146,0.09770508,0.04248047,-0.81881106,107.0
1389,0.889046,-0.5438776,0.19971573,0.09770508,0.04248047,-0.81881106,107.0
1390,0.889046,-0.5438776,0.19971573,-0.009558106,0.0361084,-0.815625,107.0
1391,1.088727,-0.6659249,0.34215784,-0.009558106,0.0361084,-0.815625,107.0
1392,1.088727,-0.6659249,0.34215784,-0.16354981,0.04141846,-0.7880127,107.0
1393,1.1108986,-0.720716,0.4217732,-0.16354981,0.04141846,-0.7880127,107.0
1394,1.1108986,-0.720716,0.4217732,-0.31966552,0.029736329,-0.70092773,107.0
1395,1.6759992,-0.8921734,0.59641516,-0.31966552,0.029736329,-0.70092773,107.0
1396,1.6759992,-0.8921734,0.59641516,-0.38551027,-0.053100586,-0.727478,107.0
1397,3.1384068,-1.3596983,0.99469805,-0.38551027,-0.053100586,-0.727478,107.0
1398,3.1384068,-1.3596983,0.99469805,-0.093457036,0.03717041,-0.58410645,107.0
1399,3.699373,-1.8417381,1.2363956,-0.093457036,0.03717041,-0.58410645,107.0
1400,3.699373,-1.8417381,1.2363956,0.5320679,0.24532472,-0.3791382,107.0
1401,2.131349,-1.7632587,0.74059343,0.5320679,0.24532472,-0.3791382,107.0
1402,2.131349,-1.7632587,0.74059343,1.634436,0.25063476,-0.12956543,107.0
1403,0.03874612,-0.9074209,-0.43760347,1.634436,0.25063476,-0.12956543,107.0
1404,0.03874612,-0.9074209,-0.43760347,2.2769532,0.21983643,0.06796875,107.0
1405,-1.0732512,0.3798983,-1.5601293,2.2769532,0.21983643,0.06796875,107.0
1406,-1.0732512,0.3798983,-1.5601293,2.5084717,0.2899292,0.44073486,107.0
1407,-1.4242505,1.4840212,-1.9658769,2.5084717,0.2899292,0.44073486,107.0
1408,-1.4242505,1.4840212,-1.9658769,2.066675,0.38338622,0.79969484,107.0
1409,-1.5537071,1.8678323,-1.612582,2.066675,0.38338622,0.79969484,107.0
1410,-1.5537071,1.8678323,-1.612582,1.5760254,0.43011475,0.99935305,107.0
1411,-1.5240326,1.6342561,-0.9251729,1.5760254,0.43011475,0.99935305,107.0
1412,-1.5240326,1.6342561,-0.9251729,1.1204224,0.40356445,1.0906861,107.0
1413,-1.4022584,1.3226026,-0.39633954,1.1204224,0.40356445,1.0906861,107.0
1414,-1.4022584,1.3226026,-0.39633954,0.5363159,0.40462646,1.1522827,107.0
1415,-1.3088185,1.1154796,-0.16522837,0.5363159,0.40462646,1.1522827,107.0
1416,-1.3088185,1.1154796,-0.16522837,-0.20603028,0.44923097,1.1852051,107.0
1417,-1.2690275,1.0341196,-0.41769296,-0.20603028,0.44923097,1.1852051,107.0
1418,-1.2690275,1.0341196,-0.41769296,-0.8846558,0.44710693,1.2234375,107.0
1419,-1.0933592,0.9616096,-0.85893464,-0.8846558,0.44710693,1.2234375,107.0
1420,-1.0933592,0.9616096,-0.85893464,-1.4103516,0.4609131,1.2064453,107.0
1421,-0.8091234,0.76804256,-0.9960589,-1.4103516,0.4609131,1.2064453,107.0
1422,-0.8091234,0.76804256,-0.9960589,-1.535669,0.41737062,1.1586548,107.0
1423,-0.6342982,0.50807416,-0.9346767,-1.535669,0.41737062,1.1586548,107.0
1424,-0.6342982,0.50807416,-0.9346767,-1.2744141,0.33984375,1.0694458,107.0
1425,-0.5123092,0.28851497,-0.7735226,-1.2744141,0.33984375,1.0694458,107.0
1426,-0.5123092,0.28851497,-0.7735226,-0.8358032,0.26444092,0.96643066,107.0
1427,-0.30768675,0.22913957,-0.6372385,-0.8358032,0.26444092,0.96643066,107.0
1428,-0.30768675,0.22913957,-0.6372385,-0.40462646,0.2081543,0.84111327,107.0
1429,-0.018915534,0.30899525,-0.53505933,-0.40462646,0.2081543,0.84111327,107.0
1430,-0.018915534,0.30899525,-0.53505933,-0.060534667,0.15823975,0.71579593,107.0
1431,0.2164594,0.43972552,-0.41725647,-0.060534667,0.15823975,0.71579593,107.0
1432,0.2164594,0.43972552,-0.41725647,0.14761963,0.09770508,0.58198243,107.0
1433,0.27115333,0.56804013,-0.24813622,0.14761963,0.09770508,0.58198243,107.0
1434,0.27115333,0.56804013,-0.24813622,0.20178223,0.06796875,0.44604492,107.0
1435,0.15809697,0.62567234,-0.08234686,0.20178223,0.06796875,0.44604492,107.0
1436,0.15809697,0.62567234,-0.08234686,0.19753419,0.027612304,0.31223145,107.0
1437,0.08526659,0.5981697,0.018997967,0.19753419,0.027612304,0.31223145,107.0
1438,0.08526659,0.5981697,0.018997967,0.13912354,-0.032922365,0.1720459,107.0
1439,0.29976845,0.48269832,0.04808414,0.13912354,-0.032922365,0.1720459,107.0
1440,0.29976845,0.48269832,0.04808414,0.0722168,-0.09239502,0.012744141,107.0
1441,0.8122269,0.2898451,0.10434866,0.0722168,-0.09239502,0.012744141,107.0
1442,0.8122269,0.2898451,0.10434866,0.013806152,-0.12850343,-0.16461182,107.0
1443,0.8122269,0.2898451,0.10434866,0.013806152,-0.12850343,-0.16461182,107.0
1444,1.4156995,0.08878517,0.27315176,0.013806152,-0.12850343,-0.16461182,107.0
1445,1.4156995,0.08878517,0.27315176,-0.04460449,-0.12000733,-0.33240968,107.0
1446,1.8810825,-0.030693054,0.5523227,-0.04460449,-0.12000733,-0.33240968,107.0
1447,1.8810825,-0.030693054,0.5523227,-0.098767094,-0.11151123,-0.4630371,107.0
1448,2.094307,-0.018316746,0.84239525,-0.098767094,-0.11151123,-0.4630371,107.0
1449,2.094307,-0.018316746,0.84239525,-0.23045655,-0.16673584,-0.58198243,107.0
1450,2.2934387,0.017451048,1.002383,-0.23045655,-0.16673584,-0.58198243,107.0
1451,2.2934387,0.017451048,1.002383,-0.35046387,-0.28674316,-0.7965088,107.0
1452,2.6259863,-0.023063183,1.0592673,-0.35046387,-0.28674316,-0.7965088,107.0
1453,2.6259863,-0.023063183,1.0592673,-0.46834716,-0.3717041,-1.0067872,107.0
1454,2.6376667,-0.124468684,1.126906,-0.46834716,-0.3717041,-1.0067872,107.0
1455,2.6376667,-0.124468684,1.126906,-0.69136965,-0.39188233,-1.1490967,107.0
1456,1.7791886,-0.28077614,1.2198842,-0.69136965,-0.39188233,-1.1490967,107.0
1457,1.7791886,-0.28077614,1.2198842,-0.79119873,-0.38444826,-1.2096313,107.0
1458,0.20347786,-0.3801874,1.2676309,-0.79119873,-0.38444826,-1.2096313,107.0
1459,0.20347786,-0.3801874,1.2676309,-0.6988037,-0.39613038,-1.1172364,107.0
1460,-1.4272568,-0.314587,1.233343,-0.6988037,-0.39613038,-1.1172364,107.0
1461,-1.4272568,-0.314587,1.233343,-0.50020754,-0.4354248,-0.9218262,107.0
1462,-2.5837,-0.15126681,1.0601363,-0.50020754,-0.4354248,-0.9218262,107.0
1463,-2.5837,-0.15126681,1.0601363,-0.16779785,-0.4800293,-0.7126099,107.0
1464,-2.9591231,-0.034001827,0.74549675,-0.16779785,-0.4800293,-0.7126099,107.0
1465,-2.9591231,-0.034001827,0.74549675,0.23895264,-0.53100586,-0.57242435,107.0
1466,-2.537904,-0.014249802,0.34871674,0.23895264,-0.53100586,-0.57242435,107.0
1467,-2.537904,-0.014249802,0.34871674,0.52888185,-0.50233155,-0.5384399,107.0
1468,-1.8546275,0.007142544,0.004058838,0.52888185,-0.50233155,-0.5384399,107.0
1469,-1.8546275,0.007142544,0.004058838,0.45029297,-0.3727661,-0.5129517,107.0
1470,-1.471971,0.038404465,-0.1769898,0.45029297,-0.3727661,-0.5129517,107.0
1471,-1.471971,0.038404465,-0.1769898,0.121069334,-0.22196046,-0.5501221,107.0
1472,-1.4170421,0.03652191,-0.24388683,0.121069334,-0.22196046,-0.5501221,107.0
1473,-1.4170421,0.03652191,-0.24388683,-0.3069214,-0.06796875,-0.6244629,107.0
1474,-1.3916416,-0.072149634,-0.23306108,-0.3069214,-0.06796875,-0.6244629,107.0
1475,-1.3916416,-0.072149634,-0.23306108,-0.6531372,0.012744141,-0.6903076,107.0
1476,-1.2152419,-0.36776614,-0.16473258,-0.6531372,0.012744141,-0.6903076,107.0
1477,-1.2152419,-0.36776614,-0.16473258,-0.7848267,0.04141846,-0.75296634,107.0
1478,-0.9289197,-0.7351309,-0.08400774,-0.7848267,0.04141846,-0.75296634,107.0
1479,-0.9289197,-0.7351309,-0.08400774,-0.74871826,0.06478272,-0.7975708,107.0
1480,-0.63307714,-0.9951726,-0.047259927,-0.74871826,0.06478272,-0.7975708,107.0
1481,-0.63307714,-0.9951726,-0.047259927,-0.70092773,0.10089111,-0.8050049,107.0
1482,-0.3553264,-1.1094561,-0.04776883,-0.70092773,0.10089111,-0.8050049,107.0
1483,-0.3553264,-1.1094561,-0.04776883,-0.61278075,0.14337158,-0.7986328,107.0
1484,-0.12596035,-1.1398964,-0.06345916,-0.61278075,0.14337158,-0.7986328,107.0
1485,-0.12596035,-1.1398964,-0.06345916,-0.4248047,0.16142578,-0.76464844,107.0
1486,0.037281036,-1.1036774,-0.092063665,-0.4248047,0.16142578,-0.76464844,107.0
1487,0.037281036,-1.1036774,-0.092063665,-0.1996582,0.14761963,-0.7306641,107.0
1488,0.20040584,-0.9797437,-0.14109468,-0.1996582,0.14761963,-0.7306641,107.0
1489,0.20040584,-0.9797437,-0.14109468,-0.095581055,0.13275146,-0.7104859,107.0
1490,0.3905859,-0.83864117,-0.13395727,-0.095581055,0.13275146,-0.7104859,107.0
1491,0.3905859,-0.83864117,-0.13395727,-0.09451904,0.1274414,-0.6839356,107.0
1492,0.56802297,-0.78550035,-0.03917265,-0.09451904,0.1274414,-0.6839356,107.0
1493,0.56802297,-0.78550035,-0.03917265,-0.12531738,0.124255374,-0.6467652,107.0
1494,0.7739374,-0.8389594,0.10533178,-0.12531738,0.124255374,-0.6467652,107.0
1495,0.7739374,-0.8389594,0.10533178,-0.1359375,0.13062744,-0.59897465,107.0
1496,1.0107026,-0.9053472,0.2316531,-0.1359375,0.13062744,-0.59897465,107.0
1497,1.0107026,-0.9053472,0.2316531,-0.18054199,0.14018555,-0.52250975,107.0
1498,1.122942,-0.9043925,0.2569046,-0.18054199,0.14018555,-0.52250975,107.0
1499,1.122942,-0.9043925,0.2569046,-0.2793091,0.14549561,-0.4364868,107.0
1500,1.1227555,-0.8382113,0.18700552,-0.2793091,0.14549561,-0.4364868,107.0
1501,1.1227555,-0.8382113,0.18700552,-0.38551027,0.11469727,-0.35046387,107.0
1502,1.4377552,-0.88499784,0.23241687,-0.38551027,0.11469727,-0.35046387,107.0
1503,1.4377552,-0.88499784,0.23241687,-0.32072756,0.08283692,-0.28461915,107.0
1504,2.1453702,-1.1141505,0.53510344,-0.32072756,0.08283692,-0.28461915,107.0
1505,2.1453702,-1.1141505,0.53510344,-0.058410645,0.1274414,-0.13381349,107.0
1506,2.339685,-1.2815304,0.8094671,-0.058410645,0.1274414,-0.13381349,107.0
1507,2.339685,-1.2815304,0.8094671,0.35789797,0.18372802,0.13381349,107.0
1508,1.465266,-1.067656,0.574173,0.35789797,0.18372802,0.13381349,107.0
1509,1.465266,-1.067656,0.574173,1.0163453,0.18797608,0.45454103,107.0
1510,0.3543905,-0.3553822,-0.18601084,1.0163453,0.18797608,0.45454103,107.0
1511,0.3543905,-0.3553822,-0.18601084,1.5515991,0.14655761,0.72323,107.0
1512,-0.21842849,0.58556724,-0.94385266,1.5515991,0.14655761,0.72323,107.0
1513,-0.21842849,0.58556724,-0.94385266,1.8712647,0.16248779,1.0683838,107.0
1514,-0.55198884,1.3625333,-1.2506754,1.8712647,0.16248779,1.0683838,107.0
1515,-0.55198884,1.3625333,-1.2506754,1.8914429,0.21983643,1.3784913,107.0
1516,-0.9277849,1.6676146,-1.1370882,1.8914429,0.21983643,1.3784913,107.0
1517,-0.9277849,1.6676146,-1.1370882,1.8617066,0.24107666,1.6163819,107.0
1518,-1.1593056,1.5817357,-0.84854996,1.8617066,0.24107666,1.6163819,107.0
1519,-1.1593056,1.5817357,-0.84854996,1.7448853,0.28568116,1.7045288,107.0
1520,-1.1808869,1.492598,-0.5575021,1.7448853,0.28568116,1.7045288,107.0
1521,-1.1808869,1.492598,-0.5575021,1.3806152,0.35789797,1.8255981,107.0
1522,-1.1551099,1.5884266,-0.45347238,1.3806152,0.35789797,1.8255981,107.0
1523,-1.1551099,1.5884266,-0.45347238,0.7412842,0.4598511,1.8903809,107.0
1524,-1.2066929,1.6961441,-0.61574423,0.7412842,0.4598511,1.8903809,107.0
1525,-1.2066929,1.6961441,-0.61574423,0.06584473,0.55543214,1.906311,107.0
1526,-1.24481,1.63974,-0.87771505,0.06584473,0.55543214,1.906311,107.0
1527,-1.24481,1.63974,-0.87771505,-0.3090454,0.52038574,1.8893188,107.0
1528,-1.0790999,1.4435914,-1.0430412,-0.3090454,0.52038574,1.8893188,107.0
1529,-1.0790999,1.4435914,-1.0430412,-0.5076416,0.49171144,1.7799317,107.0
1530,-0.68572867,1.1791407,-1.0031097,-0.5076416,0.49171144,1.7799317,107.0
1531,-0.68572867,1.1791407,-1.0031097,-0.49064943,0.44816896,1.6609863,107.0
1532,-0.23784077,0.93023884,-0.85801756,-0.49064943,0.44816896,1.6609863,107.0
1533,-0.23784077,0.93023884,-0.85801756,-0.34727785,0.4354248,1.537793,107.0
1534,0.11959064,0.8285905,-0.7534063,-0.34727785,0.4354248,1.537793,107.0
1535,0.11959064,0.8285905,-0.7534063,-0.29948732,0.4439209,1.3657471,107.0
1536,0.31659538,0.8504212,-0.71438277,-0.29948732,0.4439209,1.3657471,107.0
