,accx,accy,accz,gyrox,gyroy,gyroz,heart rate
0,walk,walk,walk,walk,walk,walk,walk
1,-7.242224,-57.661987,32.026012,0.0,0.0,0.0,0.0
2,-7.242224,-57.661987,32.026012,0.09239502,-0.09451904,-0.087084964,0.0
3,-5.8033133,-46.070972,25.596739,0.09239502,-0.09451904,-0.087084964,0.0
4,-5.8033133,-46.070972,25.596739,0.07115479,-0.07965088,-0.015930176,0.0
5,-4.5973625,-36.830887,20.408154,0.07115479,-0.07965088,-0.015930176,0.0
6,-4.5973625,-36.830887,20.408154,0.021240234,-0.06265869,-0.023364259,0.0
7,-3.657382,-29.46471,16.304905,0.021240234,-0.06265869,-0.023364259,0.0
8,-3.657382,-29.46471,16.304905,-0.0031860352,-0.0541626,-0.012744141,0.0
9,-2.870266,-23.56403,13.03162,-0.0031860352,-0.0541626,-0.012744141,0.0
10,-2.870266,-23.56403,13.03162,-0.04141846,-0.04885254,-0.019116212,0.0
11,-2.2555509,-18.8605,10.489384,-0.04141846,-0.04885254,-0.019116212,0.0
12,-2.2555509,-18.8605,10.489384,-0.008496094,-0.025488282,0.021240234,0.0
13,-1.8502655,-15.073486,8.500919,-0.008496094,-0.025488282,0.021240234,0.0
14,-1.8502655,-15.073486,8.500919,0.020178223,0.0021240234,0.09664307,0.0
15,-1.5944948,-12.012257,6.8867226,0.020178223,0.0021240234,0.09664307,0.0
16,-1.5944948,-12.012257,6.8867226,-0.0031860352,-0.047790527,0.05522461,0.0
17,-1.3225079,-9.635635,5.5001984,-0.0031860352,-0.047790527,0.05522461,0.0
18,-1.3225079,-9.635635,5.5001984,0.026550293,-0.06584473,-0.0180542,0.0
19,-0.98264027,-7.774658,4.314636,0.026550293,-0.06584473,-0.0180542,0.0
20,-0.98264027,-7.774658,4.314636,0.045666505,-0.043542482,-0.058410645,0.0
21,-0.73428154,-6.1938324,3.368801,0.045666505,-0.043542482,-0.058410645,0.0
22,-0.73428154,-6.1938324,3.368801,-0.013806152,0.0063720704,-0.015930176,0.0
23,-0.65430737,-4.971817,2.6985817,-0.013806152,0.0063720704,-0.015930176,0.0
24,-0.65430737,-4.971817,2.6985817,0.02442627,-0.06796875,0.0053100586,0.0
25,-0.58241844,-4.0552826,2.2577171,0.02442627,-0.06796875,0.0053100586,0.0
26,-0.58241844,-4.0552826,2.2577171,0.0722168,-0.06796875,0.035046387,0.0
27,-0.44473076,-3.250183,1.8074303,0.0722168,-0.06796875,0.035046387,0.0
28,-0.44473076,-3.250183,1.8074303,0.078588866,-0.047790527,0.03717041,0.0
29,-0.2802353,-2.6148071,1.399826,0.078588866,-0.047790527,0.03717041,0.0
30,-0.2802353,-2.6148071,1.399826,0.09239502,-0.011682129,0.026550293,0.0
31,-0.17390728,-2.117302,1.0802116,0.09239502,-0.011682129,0.026550293,0.0
32,-0.17390728,-2.117302,1.0802116,0.11363526,0.0053100586,0.022302246,0.0
33,-0.1316185,-1.636261,0.87664413,0.11363526,0.0053100586,0.022302246,0.0
34,-0.1316185,-1.636261,0.87664413,0.012744141,0.011682129,0.013806152,0.0
35,-0.15452576,-1.2333145,0.7557602,0.012744141,0.011682129,0.013806152,0.0
36,-0.15452576,-1.2333145,0.7557602,0.0,-0.013806152,-0.019116212,0.0
37,-0.19185829,-0.9927826,0.6480789,0.0,-0.013806152,-0.019116212,0.0
38,-0.19185829,-0.9927826,0.6480789,0.04460449,-0.06690674,0.0010620117,0.0
39,-0.13556671,-0.828331,0.48918152,0.04460449,-0.06690674,0.0010620117,0.0
40,-0.13556671,-0.828331,0.48918152,0.046728518,-0.06796875,-0.011682129,0.0
41,-0.0039129257,-0.7038498,0.29891205,0.046728518,-0.06796875,-0.011682129,0.0
42,-0.0039129257,-0.7038498,0.29891205,0.0361084,0.0021240234,-0.004248047,0.0
43,0.030743599,-0.56876373,0.20085907,0.0361084,0.0021240234,-0.004248047,0.0
44,0.030743599,-0.56876373,0.20085907,0.0031860352,0.045666505,-0.03717041,0.0
45,-0.057351112,-0.4247284,0.22309113,0.0031860352,0.045666505,-0.03717041,0.0
46,-0.057351112,-0.4247284,0.22309113,0.0010620117,-0.008496094,-0.0180542,0.0
47,-0.08419895,-0.30057526,0.24933624,0.0010620117,-0.008496094,-0.0180542,0.0
48,-0.08419895,-0.30057526,0.24933624,0.012744141,-0.0031860352,-0.0063720704,0.0
49,-0.040540695,-0.20085907,0.23176956,0.012744141,-0.0031860352,-0.0063720704,0.0
50,-0.040540695,-0.20085907,0.23176956,0.007434082,-0.012744141,-0.013806152,0.0
51,-0.040540695,-0.20085907,0.23176956,0.007434082,-0.012744141,-0.013806152,108.0
52,-0.014292717,-0.13536072,0.18216705,0.007434082,-0.012744141,-0.013806152,108.0
53,-0.014292717,-0.13536072,0.18216705,0.0031860352,-0.0180542,-0.03079834,108.0
54,-0.001168251,-0.1220932,0.11508179,0.0031860352,-0.0180542,-0.03079834,108.0
55,-0.001168251,-0.1220932,0.11508179,-0.0031860352,0.0053100586,-0.04460449,108.0
56,-0.0080394745,-0.15398407,0.07633209,-0.0031860352,0.0053100586,-0.04460449,108.0
57,-0.0080394745,-0.15398407,0.07633209,0.029736329,0.012744141,-0.033984374,108.0
58,-0.038938522,-0.19239044,0.05550003,0.029736329,0.012744141,-0.033984374,108.0
59,-0.038938522,-0.19239044,0.05550003,0.0637207,0.004248047,-0.02442627,108.0
60,-0.05901909,-0.13998413,0.0575943,0.0637207,0.004248047,-0.02442627,108.0
61,-0.05901909,-0.13998413,0.0575943,0.060534667,-0.021240234,-0.013806152,108.0
62,-0.041490555,-0.01700592,0.09302139,0.060534667,-0.021240234,-0.013806152,108.0
63,-0.041490555,-0.01700592,0.09302139,0.05522461,-0.015930176,-0.011682129,108.0
64,-0.008852005,0.06452942,0.11346817,0.05522461,-0.015930176,-0.011682129,108.0
65,-0.008852005,0.06452942,0.11346817,0.040356446,-0.0021240234,-0.029736329,108.0
66,0.017918587,0.08140564,0.09464264,0.040356446,-0.0021240234,-0.029736329,108.0
67,0.017918587,0.08140564,0.09464264,0.026550293,0.020178223,-0.013806152,108.0
68,-0.018868446,0.030395508,0.06612015,0.026550293,0.020178223,-0.013806152,108.0
69,-0.018868446,0.030395508,0.06612015,0.053100586,0.015930176,0.021240234,108.0
70,-0.0802927,-0.05986023,0.043655396,0.053100586,0.015930176,0.021240234,108.0
71,-0.0802927,-0.05986023,0.043655396,0.06796875,-0.026550293,0.014868164,108.0
72,-0.070715904,-0.06587219,0.019077301,0.06796875,-0.026550293,0.014868164,108.0
73,-0.070715904,-0.06587219,0.019077301,0.027612304,-0.015930176,-0.0021240234,108.0
74,-0.01642418,-0.009254456,8.583069E-4,0.027612304,-0.015930176,-0.0021240234,108.0
75,-0.01642418,-0.009254456,8.583069E-4,0.008496094,-0.021240234,-0.014868164,108.0
76,0.031110764,-0.016189575,-0.008140564,0.008496094,-0.021240234,-0.014868164,108.0
77,0.031110764,-0.016189575,-0.008140564,0.03717041,-0.014868164,-0.0063720704,108.0
78,0.03908539,-0.040771484,-0.030525208,0.03717041,-0.014868164,-0.0063720704,108.0
79,0.03908539,-0.040771484,-0.030525208,0.020178223,-0.022302246,-0.011682129,108.0
80,0.03892231,-0.06412506,-0.052131653,0.020178223,-0.022302246,-0.011682129,108.0
81,0.03892231,-0.06412506,-0.052131653,-0.004248047,-0.035046387,-0.0031860352,108.0
82,0.039121628,-0.13230896,-0.038837433,-0.004248047,-0.035046387,-0.0031860352,108.0
83,0.039121628,-0.13230896,-0.038837433,0.0031860352,-0.038232423,-0.02442627,108.0
84,0.01678276,-0.11029053,-0.0049819946,0.0031860352,-0.038232423,-0.02442627,108.0
85,0.01678276,-0.11029053,-0.0049819946,-0.0063720704,-0.0361084,-0.022302246,108.0
86,-0.012660027,-0.0040512085,0.011482239,-0.0063720704,-0.0361084,-0.022302246,108.0
87,-0.012660027,-0.0040512085,0.011482239,-0.040356446,-0.04141846,-0.028674318,108.0
88,-0.012813568,-0.013763428,0.011360168,-0.040356446,-0.04141846,-0.028674318,108.0
89,-0.012813568,-0.013763428,0.011360168,0.004248047,-0.040356446,-0.04141846,108.0
90,0.029190063,-0.0550766,0.0031547546,0.004248047,-0.040356446,-0.04141846,108.0
91,0.029190063,-0.0550766,0.0031547546,0.023364259,-0.014868164,-0.059472658,108.0
92,0.04390812,0.022895813,-0.019706726,0.023364259,-0.014868164,-0.059472658,108.0
93,0.04390812,0.022895813,-0.019706726,-0.011682129,0.004248047,-0.07646485,108.0
94,0.006916046,0.094314575,-0.0093307495,-0.011682129,0.004248047,-0.07646485,108.0
95,0.006916046,0.094314575,-0.0093307495,-0.025488282,-0.029736329,-0.053100586,108.0
96,-0.0023899078,0.11244202,0.036727905,-0.025488282,-0.029736329,-0.053100586,108.0
97,-0.0023899078,0.11244202,0.036727905,-0.028674318,-0.0010620117,-0.015930176,108.0
98,0.0041065216,0.07701111,0.06693268,-0.028674318,-0.0010620117,-0.015930176,108.0
99,0.0041065216,0.07701111,0.06693268,-0.025488282,0.013806152,-0.011682129,108.0
100,-0.038853645,0.02330017,0.088020325,-0.025488282,0.013806152,-0.011682129,108.0
101,-0.038853645,0.02330017,0.088020325,-0.0031860352,-0.011682129,-0.019116212,108.0
102,-0.054947853,0.053962708,0.09249878,-0.0031860352,-0.011682129,-0.019116212,108.0
103,-0.054947853,0.053962708,0.09249878,-0.012744141,-0.025488282,-0.032922365,108.0
104,-0.014674187,0.11579132,0.06866455,-0.012744141,-0.025488282,-0.032922365,108.0
105,-0.014674187,0.11579132,0.06866455,-0.035046387,0.0021240234,-0.043542482,108.0
106,6.389618E-4,0.10028839,0.041236877,-0.035046387,0.0021240234,-0.043542482,108.0
107,6.389618E-4,0.10028839,0.041236877,-0.0361084,-0.011682129,-0.014868164,108.0
108,-0.03264332,0.003364563,0.030742645,-0.0361084,-0.011682129,-0.014868164,108.0
109,-0.03264332,0.003364563,0.030742645,-0.010620117,-0.039294433,0.02442627,108.0
110,-0.045060158,-0.06352997,0.0020713806,-0.010620117,-0.039294433,0.02442627,108.0
111,-0.045060158,-0.06352997,0.0020713806,0.023364259,-0.04141846,0.015930176,108.0
112,-0.03714657,-0.0515213,-0.03548813,0.023364259,-0.04141846,0.015930176,108.0
113,-0.03714657,-0.0515213,-0.03548813,0.019116212,-0.038232423,-0.004248047,108.0
114,-0.026640892,-0.012702942,-0.040195465,0.019116212,-0.038232423,-0.004248047,108.0
115,-0.026640892,-0.012702942,-0.040195465,0.0031860352,-0.04248047,-0.0031860352,108.0
116,-0.015013695,0.018844604,-0.02678299,0.0031860352,-0.04248047,-0.0031860352,108.0
117,-0.015013695,0.018844604,-0.02678299,-0.007434082,-0.05628662,0.03186035,108.0
118,0.025610924,0.0023651123,-0.019901276,-0.007434082,-0.05628662,0.03186035,108.0
119,0.025610924,0.0023651123,-0.019901276,-0.0021240234,-0.052038576,0.0053100586,108.0
120,0.07350445,-0.047668457,-0.022853851,-0.0021240234,-0.052038576,0.0053100586,108.0
121,0.07350445,-0.047668457,-0.022853851,0.023364259,-0.035046387,-0.009558106,108.0
122,0.078798294,-0.033836365,-0.028633118,0.023364259,-0.035046387,-0.009558106,108.0
123,0.078798294,-0.033836365,-0.028633118,0.009558106,-0.019116212,0.007434082,108.0
124,0.029664993,-0.009712219,-0.012649536,0.009558106,-0.019116212,0.007434082,108.0
125,0.029664993,-0.009712219,-0.012649536,-0.020178223,-0.03079834,0.03186035,108.0
126,-0.02366829,-0.057296753,0.031032562,-0.020178223,-0.03079834,0.03186035,108.0
127,-0.02366829,-0.057296753,0.031032562,0.0010620117,-0.04248047,0.04885254,108.0
128,-0.009596825,-0.09836578,0.037094116,0.0010620117,-0.04248047,0.04885254,108.0
129,-0.009596825,-0.09836578,0.037094116,0.035046387,-0.0541626,0.011682129,108.0
130,0.047693253,-0.048309326,-0.03347397,0.035046387,-0.0541626,0.011682129,108.0
131,0.047693253,-0.048309326,-0.03347397,0.021240234,-0.023364259,-0.029736329,108.0
132,0.049031258,-0.0054473877,-0.102767944,0.021240234,-0.023364259,-0.029736329,108.0
133,0.049031258,-0.0054473877,-0.102767944,0.004248047,-0.025488282,-0.038232423,108.0
134,0.014408112,-0.03073883,-0.09709549,0.004248047,-0.025488282,-0.038232423,108.0
135,0.014408112,-0.03073883,-0.09709549,0.0063720704,-0.020178223,-0.06903076,108.0
136,-0.0047693253,-0.05091858,-0.04106903,0.0063720704,-0.020178223,-0.06903076,108.0
137,-0.0047693253,-0.05091858,-0.04106903,0.014868164,-0.0063720704,-0.09451904,108.0
138,0.0020198822,-0.009788513,0.0035820007,0.014868164,-0.0063720704,-0.09451904,108.0
139,0.0020198822,-0.009788513,0.0035820007,0.011682129,-0.0053100586,-0.07434082,108.0
140,0.016435623,0.05683136,0.0082473755,0.011682129,-0.0053100586,-0.07434082,108.0
141,0.016435623,0.05683136,0.0082473755,0.0010620117,0.010620117,-0.028674318,108.0
142,0.006177902,0.10935974,0.026824951,0.0010620117,0.010620117,-0.028674318,108.0
143,0.006177902,0.10935974,0.026824951,-0.013806152,0.020178223,0.029736329,108.0
144,-0.024134636,0.14855957,0.071826935,-0.013806152,0.020178223,0.029736329,108.0
145,-0.024134636,0.14855957,0.071826935,-0.07752686,0.015930176,0.04885254,108.0
146,-0.028939247,0.12849426,0.084754944,-0.07752686,0.015930176,0.04885254,108.0
147,-0.028939247,0.12849426,0.084754944,-0.11044922,0.009558106,0.02442627,108.0
148,-0.011396408,0.016822815,0.046024323,-0.11044922,0.009558106,0.02442627,108.0
149,-0.011396408,0.016822815,0.046024323,-0.09133301,0.012744141,0.007434082,108.0
150,-0.011396408,0.016822815,0.046024323,-0.09133301,0.012744141,0.007434082,110.0
151,-0.014073372,-0.09880829,-0.0062217712,-0.09133301,0.012744141,0.007434082,110.0
152,-0.014073372,-0.09880829,-0.0062217712,-0.0637207,-0.0021240234,0.013806152,110.0
153,-0.02823925,-0.13678741,-0.019432068,-0.0637207,-0.0021240234,0.013806152,110.0
154,-0.02823925,-0.13678741,-0.019432068,-0.0361084,-0.015930176,-0.0053100586,110.0
155,-0.0024499893,-0.10059357,-0.015960693,-0.0361084,-0.015930176,-0.0053100586,110.0
156,-0.0024499893,-0.10059357,-0.015960693,-0.008496094,-0.012744141,-0.047790527,110.0
157,0.03602791,-0.031684875,-0.04257965,-0.008496094,-0.012744141,-0.047790527,110.0
158,0.03602791,-0.031684875,-0.04257965,-0.0053100586,0.019116212,-0.07965088,110.0
159,0.0052871704,0.0015411377,-0.048225403,-0.0053100586,0.019116212,-0.07965088,110.0
160,0.0052871704,0.0015411377,-0.048225403,0.016992187,-0.02442627,-0.0541626,110.0
161,-0.025665283,-0.006515503,-0.014144897,0.016992187,-0.02442627,-0.0541626,110.0
162,-0.025665283,-0.006515503,-0.014144897,0.02442627,-0.033984374,-0.021240234,110.0
163,0.018359184,0.0026626587,0.0028076172,0.02442627,-0.033984374,-0.021240234,110.0
164,0.018359184,0.0026626587,0.0028076172,0.027612304,-0.012744141,-0.040356446,110.0
165,0.06030464,0.05469513,0.008068085,0.027612304,-0.012744141,-0.040356446,110.0
166,0.06030464,0.05469513,0.008068085,0.0031860352,0.009558106,-0.04460449,110.0
167,0.040516853,0.064216614,0.029979706,0.0031860352,0.009558106,-0.04460449,110.0
168,0.040516853,0.064216614,0.029979706,0.0021240234,-0.012744141,-0.05628662,110.0
169,-0.0068073273,0.021331787,0.04877472,0.0021240234,-0.012744141,-0.05628662,110.0
170,-0.0068073273,0.021331787,0.04877472,0.021240234,-0.021240234,-0.0180542,110.0
171,-0.0343647,0.03299713,0.06081009,0.021240234,-0.021240234,-0.0180542,110.0
172,-0.0343647,0.03299713,0.06081009,-0.025488282,-0.014868164,0.0021240234,110.0
173,-0.024989128,0.03665161,0.042606354,-0.025488282,-0.014868164,0.0021240234,110.0
174,-0.024989128,0.03665161,0.042606354,-0.03717041,-0.007434082,0.0031860352,110.0
175,0.0058021545,-0.015220642,-0.013206482,-0.03717041,-0.007434082,0.0031860352,110.0
176,0.0058021545,-0.015220642,-0.013206482,-0.02442627,-0.0053100586,0.0021240234,110.0
177,0.02229309,-0.041862488,-0.057735443,-0.02442627,-0.0053100586,0.0021240234,110.0
178,0.02229309,-0.041862488,-0.057735443,-0.026550293,-0.004248047,0.009558106,110.0
179,-0.00595665,-0.0082473755,-0.07096863,-0.026550293,-0.004248047,0.009558106,110.0
180,-0.00595665,-0.0082473755,-0.07096863,-0.04885254,0.016992187,0.028674318,110.0
181,-0.0588665,0.0074005127,-0.048549652,-0.04885254,0.016992187,0.028674318,110.0
182,-0.0588665,0.0074005127,-0.048549652,-0.04885254,-0.0010620117,0.05628662,110.0
183,-0.07056713,-0.019836426,-0.01815033,-0.04885254,-0.0010620117,0.05628662,110.0
184,-0.07056713,-0.019836426,-0.01815033,-0.038232423,0.0010620117,0.027612304,110.0
185,-0.043294907,-0.056114197,-0.015155792,-0.038232423,0.0010620117,0.027612304,110.0
186,-0.043294907,-0.056114197,-0.015155792,-0.022302246,0.016992187,-0.007434082,110.0
187,-0.024650574,-0.06316376,-0.01568985,-0.022302246,0.016992187,-0.007434082,110.0
188,-0.024650574,-0.06316376,-0.01568985,-0.0021240234,0.0021240234,-0.03186035,110.0
189,-0.0029850006,7.247925E-4,0.009994507,-0.0021240234,0.0021240234,-0.03186035,110.0
190,-0.0029850006,7.247925E-4,0.009994507,-0.021240234,0.0031860352,-0.03079834,110.0
191,0.034550667,0.09346008,0.032554626,-0.021240234,0.0031860352,-0.03079834,110.0
192,0.034550667,0.09346008,0.032554626,-0.04460449,-0.009558106,-0.04885254,110.0
193,0.07290459,0.13533783,0.011127472,-0.04460449,-0.009558106,-0.04885254,110.0
194,0.07290459,0.13533783,0.011127472,-0.04991455,-0.0021240234,-0.039294433,110.0
195,0.022666931,0.05181122,-0.0036964417,-0.04991455,-0.0021240234,-0.039294433,110.0
196,0.022666931,0.05181122,-0.0036964417,-0.014868164,0.0053100586,0.016992187,110.0
197,-0.068463326,-0.09060669,0.025314331,-0.014868164,0.0053100586,0.016992187,110.0
198,-0.068463326,-0.09060669,0.025314331,0.021240234,-0.03079834,0.03717041,110.0
199,-0.019687653,-0.08955383,0.026573181,0.021240234,-0.03079834,0.03717041,110.0
200,-0.019687653,-0.08955383,0.026573181,0.010620117,0.008496094,0.016992187,110.0
201,0.04875183,0.020462036,-0.020915985,0.010620117,0.008496094,0.016992187,110.0
202,0.04875183,0.020462036,-0.020915985,-0.04991455,0.052038576,-0.025488282,110.0
203,-0.01791954,0.04636383,-0.04404068,-0.04991455,0.052038576,-0.025488282,110.0
204,-0.01791954,0.04636383,-0.04404068,-0.03186035,0.03186035,0.015930176,110.0
205,-0.11179638,0.01398468,-0.005130768,-0.03186035,0.03186035,0.015930176,110.0
206,-0.11179638,0.01398468,-0.005130768,-0.021240234,-0.0010620117,0.019116212,110.0
207,-0.065914154,-0.023162842,0.026657104,-0.021240234,-0.0010620117,0.019116212,110.0
208,-0.065914154,-0.023162842,0.026657104,0.0010620117,-0.0021240234,-0.04885254,110.0
209,0.04586506,-0.005027771,0.016235352,0.0010620117,-0.0021240234,-0.04885254,110.0
210,0.04586506,-0.005027771,0.016235352,0.0,0.04885254,-0.06903076,110.0
211,0.041636467,0.03136444,0.00655365,0.0,0.04885254,-0.06903076,110.0
212,0.041636467,0.03136444,0.00655365,-0.0010620117,0.0010620117,-0.0361084,110.0
213,-0.018167496,0.034553528,-0.009357452,-0.0010620117,0.0010620117,-0.0361084,110.0
214,-0.018167496,0.034553528,-0.009357452,0.0,-0.013806152,0.012744141,110.0
215,-0.04117012,-0.017753601,-0.022022247,0.0,-0.013806152,0.012744141,110.0
216,-0.04117012,-0.017753601,-0.022022247,0.008496094,-0.011682129,0.032922365,110.0
217,-0.019032478,-0.076423645,-0.03173065,0.008496094,-0.011682129,0.032922365,110.0
218,-0.019032478,-0.076423645,-0.03173065,0.016992187,-0.032922365,0.0,110.0
219,0.02691269,-0.0467453,-0.047748566,0.016992187,-0.032922365,0.0,110.0
220,0.02691269,-0.0467453,-0.047748566,-0.016992187,-0.0031860352,-0.004248047,110.0
221,0.002316475,-0.0048980713,-0.027957916,-0.016992187,-0.0031860352,-0.004248047,110.0
222,0.002316475,-0.0048980713,-0.027957916,-0.028674318,0.015930176,0.020178223,110.0
223,0.002316475,-0.0048980713,-0.027957916,-0.0021240234,-0.035046387,0.038232423,110.0
224,-0.08816147,-0.036582947,0.05728531,-0.0021240234,-0.035046387,0.038232423,110.0
225,-0.05623436,-0.08180237,0.11351776,-0.0021240234,-0.035046387,0.038232423,110.0
226,-0.05623436,-0.08180237,0.11351776,0.06265869,-0.045666505,-0.046728518,110.0
227,0.063215256,-0.04270935,0.10167694,0.06265869,-0.045666505,-0.046728518,110.0
228,0.063215256,-0.04270935,0.10167694,0.0722168,0.0031860352,-0.0722168,110.0
229,0.08088207,0.012161255,0.0619545,0.0722168,0.0031860352,-0.0722168,110.0
230,0.08088207,0.012161255,0.0619545,0.039294433,-0.039294433,-0.090270996,110.0
231,0.052437782,0.019165039,0.0022735596,0.039294433,-0.039294433,-0.090270996,110.0
232,0.052437782,0.019165039,0.0022735596,0.03186035,-0.0180542,-0.07965088,110.0
233,0.03832531,-0.023208618,-0.0629158,0.03186035,-0.0180542,-0.07965088,110.0
234,0.03832531,-0.023208618,-0.0629158,0.057348635,-0.02442627,-0.08814698,110.0
235,0.06795311,-0.043663025,-0.12431717,0.057348635,-0.02442627,-0.08814698,110.0
236,0.06795311,-0.043663025,-0.12431717,0.070092775,-0.007434082,-0.11044922,110.0
237,0.11326122,0.06336212,-0.16776276,0.070092775,-0.007434082,-0.11044922,110.0
238,0.11326122,0.06336212,-0.16776276,0.078588866,0.033984374,-0.13062744,110.0
239,-0.040335655,0.32672882,-0.16985321,0.078588866,0.033984374,-0.13062744,110.0
240,-0.040335655,0.32672882,-0.16985321,-0.047790527,0.13699952,0.17416993,110.0
241,-0.3103323,0.23672485,-0.1990509,-0.047790527,0.13699952,0.17416993,110.0
242,-0.3103323,0.23672485,-0.1990509,0.21134034,-0.13912354,0.043542482,110.0
243,-0.3103323,0.23672485,-0.1990509,0.21134034,-0.13912354,0.043542482,109.0
244,-0.28406906,-0.16690826,-0.1038475,0.21134034,-0.13912354,0.043542482,109.0
245,-0.28406906,-0.16690826,-0.1038475,0.36427003,-0.052038576,-1.0195312,109.0
246,0.042092323,0.117744446,0.0061187744,0.36427003,-0.052038576,-1.0195312,109.0
247,0.042092323,0.117744446,0.0061187744,0.03717041,-0.029736329,0.44923097,109.0
248,0.3950138,0.30081177,-0.00919342,0.03717041,-0.029736329,0.44923097,109.0
249,0.3950138,0.30081177,-0.00919342,0.48109132,0.2347046,0.26656494,109.0
250,0.15077686,-0.024673462,0.074653625,0.48109132,0.2347046,0.26656494,109.0
251,0.15077686,-0.024673462,0.074653625,0.67225343,0.13806152,0.03186035,109.0
252,-0.30828476,0.09264374,0.30365753,0.67225343,0.13806152,0.03186035,109.0
253,-0.30828476,0.09264374,0.30365753,0.41737062,-0.04141846,0.24001466,109.0
254,-0.30436707,0.44704437,0.40398788,0.41737062,-0.04141846,0.24001466,109.0
255,-0.30436707,0.44704437,0.40398788,0.107263185,-0.026550293,0.16779785,109.0
256,-0.038586617,0.4476242,0.38316345,0.107263185,-0.026550293,0.16779785,109.0
257,-0.038586617,0.4476242,0.38316345,-0.1359375,0.033984374,0.1263794,109.0
258,0.054177284,0.068367004,0.34357834,-0.1359375,0.033984374,0.1263794,109.0
259,0.054177284,0.068367004,0.34357834,-0.22727051,0.033984374,0.18479005,109.0
260,-0.041399956,-0.33943176,0.23736191,-0.22727051,0.033984374,0.18479005,109.0
261,-0.041399956,-0.33943176,0.23736191,-0.08071289,-0.016992187,0.19753419,109.0
262,-0.085305214,-0.47627258,0.07368851,-0.08071289,-0.016992187,0.19753419,109.0
263,-0.085305214,-0.47627258,0.07368851,0.0063720704,-0.057348635,0.15930176,109.0
264,-0.0058908463,-0.29653168,-0.046215057,0.0063720704,-0.057348635,0.15930176,109.0
265,-0.0058908463,-0.29653168,-0.046215057,-0.059472658,-0.06159668,0.15717773,109.0
266,0.0575552,-0.076286316,-0.060520172,-0.059472658,-0.06159668,0.15717773,109.0
267,0.0575552,-0.076286316,-0.060520172,-0.07752686,-0.06584473,0.15080567,109.0
268,0.034435272,-0.0058059692,-0.037929535,-0.07752686,-0.06584473,0.15080567,109.0
269,0.034435272,-0.0058059692,-0.037929535,-0.11682129,-0.098767094,0.12213135,109.0
270,0.0152311325,-0.03162384,-0.0521698,-0.11682129,-0.098767094,0.12213135,109.0
271,0.0152311325,-0.03162384,-0.0521698,-0.118945315,-0.095581055,0.1274414,109.0
272,0.026467323,-0.1135788,-0.07846451,-0.118945315,-0.095581055,0.1274414,109.0
273,0.026467323,-0.1135788,-0.07846451,-0.070092775,-0.07434082,0.1083252,109.0
274,0.01414299,-0.1654892,-0.102493286,-0.070092775,-0.07434082,0.1083252,109.0
275,0.01414299,-0.1654892,-0.102493286,-0.023364259,-0.078588866,0.093457036,109.0
276,-0.0075941086,-0.10031891,-0.11088562,-0.023364259,-0.078588866,0.093457036,109.0
277,-0.0075941086,-0.10031891,-0.11088562,0.014868164,-0.09239502,0.07752686,109.0
278,2.117157E-4,0.03274536,-0.09415436,0.014868164,-0.09239502,0.07752686,109.0
279,2.117157E-4,0.03274536,-0.09415436,0.004248047,-0.083898924,0.06265869,109.0
280,-0.002064705,0.16078186,-0.071308136,0.004248047,-0.083898924,0.06265869,109.0
281,-0.002064705,0.16078186,-0.071308136,-0.020178223,-0.093457036,0.06796875,109.0
282,-0.0018224716,0.23799133,-0.06903458,-0.020178223,-0.093457036,0.06796875,109.0
283,-0.0018224716,0.23799133,-0.06903458,-0.06584473,-0.11044922,0.06265869,109.0
284,0.028998375,0.24034119,-0.09046936,-0.06584473,-0.11044922,0.06265869,109.0
285,0.028998375,0.24034119,-0.09046936,-0.10620117,-0.10513916,0.060534667,109.0
286,0.059111595,0.17700195,-0.11074066,-0.10620117,-0.10513916,0.060534667,109.0
287,0.059111595,0.17700195,-0.11074066,-0.095581055,-0.08071289,0.08071289,109.0
288,0.037560463,0.11065674,-0.11608505,-0.095581055,-0.08071289,0.08071289,109.0
289,0.037560463,0.11065674,-0.11608505,-0.07115479,-0.06796875,0.095581055,109.0
290,-0.003435135,0.12561035,-0.10732269,-0.07115479,-0.06796875,0.095581055,109.0
291,-0.003435135,0.12561035,-0.10732269,-0.11363526,-0.070092775,0.10407715,109.0
292,-0.020680428,0.14949036,-0.12238312,-0.11363526,-0.070092775,0.10407715,109.0
293,-0.020680428,0.14949036,-0.12238312,-0.14230958,-0.059472658,0.10620117,109.0
294,-0.008561134,0.14615631,-0.17207718,-0.14230958,-0.059472658,0.10620117,109.0
295,-0.008561134,0.14615631,-0.17207718,-0.13381349,-0.03717041,0.10620117,109.0
296,-0.001367569,0.19792175,-0.21573639,-0.13381349,-0.03717041,0.10620117,109.0
297,-0.001367569,0.19792175,-0.21573639,-0.16036378,-0.021240234,0.11469727,109.0
298,0.007060051,0.3216095,-0.2564621,-0.16036378,-0.021240234,0.11469727,109.0
299,0.007060051,0.3216095,-0.2564621,-0.24851075,0.011682129,0.13062744,109.0
300,0.0044031143,0.39320374,-0.3430252,-0.24851075,0.011682129,0.13062744,109.0
301,0.0044031143,0.39320374,-0.3430252,-0.30054933,0.046728518,0.15611573,109.0
302,-0.013372421,0.39164734,-0.48163605,-0.30054933,0.046728518,0.15611573,109.0
303,-0.013372421,0.39164734,-0.48163605,-0.32497558,0.09770508,0.18691407,109.0
304,-0.045817375,0.42884064,-0.64593124,-0.32497558,0.09770508,0.18691407,109.0
305,-0.045817375,0.42884064,-0.64593124,-0.42268068,0.1709839,0.2357666,109.0
306,-0.13138008,0.5609436,-0.851326,-0.42268068,0.1709839,0.2357666,109.0
307,-0.13138008,0.5609436,-0.851326,-0.64782715,0.24851075,0.29099122,109.0
308,-0.27490425,0.71585846,-1.1819382,-0.64782715,0.24851075,0.29099122,109.0
309,-0.27490425,0.71585846,-1.1819382,-1.0216553,0.32709962,0.35683593,109.0
310,-0.43601227,0.7416458,-1.6536789,-1.0216553,0.32709962,0.35683593,109.0
311,-0.43601227,0.7416458,-1.6536789,-1.4273437,0.41949463,0.42055663,109.0
312,-0.5385561,0.5672455,-2.133831,-1.4273437,0.41949463,0.42055663,109.0
313,-0.5385561,0.5672455,-2.133831,-1.7544434,0.5161377,0.4630371,109.0
314,-0.48146725,0.29386902,-2.4756546,-1.7544434,0.5161377,0.4630371,109.0
315,-0.48146725,0.29386902,-2.4756546,-2.0114503,0.6414551,0.4895874,109.0
316,-0.26229763,0.018501282,-2.598236,-2.0114503,0.6414551,0.4895874,109.0
317,-0.26229763,0.018501282,-2.598236,-2.2068603,0.8995239,0.5150757,109.0
318,-0.09542179,-0.17155457,-2.445057,-2.2068603,0.8995239,0.5150757,109.0
319,-0.09542179,-0.17155457,-2.445057,-2.3905885,1.2542359,0.5649902,109.0
320,-0.16957474,-0.15985107,-2.1006393,-2.3905885,1.2542359,0.5649902,109.0
321,-0.16957474,-0.15985107,-2.1006393,-2.6465333,1.5282348,0.60109866,109.0
322,-0.3495636,0.002281189,-1.7460747,-2.6465333,1.5282348,0.60109866,109.0
323,-0.3495636,0.002281189,-1.7460747,-2.9258423,1.7576294,0.65207523,109.0
324,-0.3772831,0.036857605,-1.4304428,-2.9258423,1.7576294,0.65207523,109.0
325,-0.3772831,0.036857605,-1.4304428,-3.1361206,2.0741088,0.7625244,109.0
326,-0.28950977,-0.25448608,-1.0096741,-3.1361206,2.0741088,0.7625244,109.0
327,-0.28950977,-0.25448608,-1.0096741,-2.9661987,2.4022706,0.90695804,109.0
328,-0.26949883,-0.6191406,-0.4561653,-2.9661987,2.4022706,0.90695804,109.0
329,-0.26949883,-0.6191406,-0.4561653,-2.4033325,2.6847656,1.0673218,109.0
330,-0.34577465,-0.7254257,0.1300888,-2.4033325,2.6847656,1.0673218,109.0
331,-0.34577465,-0.7254257,0.1300888,-1.9806519,2.969385,1.1968873,109.0
332,-0.46271515,-0.68307495,0.6999321,-1.9806519,2.969385,1.1968873,109.0
333,-0.46271515,-0.68307495,0.6999321,-1.7013428,3.26781,1.3253907,109.0
334,-0.6673517,-0.82159424,1.2790871,-1.7013428,3.26781,1.3253907,109.0
335,-0.6673517,-0.82159424,1.2790871,-1.5027466,3.5141969,1.4156617,109.0
336,-0.9336128,-1.0703583,1.6993179,-1.5027466,3.5141969,1.4156617,109.0
337,-0.9336128,-1.0703583,1.6993179,-1.3869873,3.5492432,1.4889405,109.0
338,-1.0236721,-1.0662079,1.8003845,-1.3869873,3.5492432,1.4889405,109.0
339,-1.0236721,-1.0662079,1.8003845,-1.5186768,3.531189,1.4772583,109.0
340,-0.9337692,-0.89469147,1.8544807,-1.5186768,3.531189,1.4772583,109.0
341,-0.9337692,-0.89469147,1.8544807,-1.6854126,3.5641115,1.4220337,109.0
342,-0.99047184,-0.8148041,2.332035,-1.6854126,3.5641115,1.4220337,109.0
343,-0.99047184,-0.8148041,2.332035,-1.449646,3.438794,1.5462891,109.0
344,-1.1668282,-0.7851486,2.983158,-1.449646,3.438794,1.5462891,109.0
345,-1.1668282,-0.7851486,2.983158,-1.1342286,3.1509888,1.6471802,109.0
346,-1.0218163,-0.6633835,3.1366844,-1.1342286,3.1509888,1.6471802,109.0
347,-1.0218163,-0.6633835,3.1366844,-1.0938721,2.800525,1.722583,109.0
348,-0.40119362,-0.3836136,2.8134003,-1.0938721,2.800525,1.722583,109.0
349,-0.40119362,-0.3836136,2.8134003,-1.2903442,2.4022706,1.7119629,109.0
350,0.38319588,-0.034812927,2.6297722,-1.2903442,2.4022706,1.7119629,109.0
351,0.38319588,-0.034812927,2.6297722,-1.4177856,1.9710938,1.5144287,109.0
352,1.0383072,0.26648712,2.7240562,-1.4177856,1.9710938,1.5144287,109.0
353,1.0383072,0.26648712,2.7240562,-1.5335449,1.5462891,1.1937011,109.0
354,1.4644108,0.48400116,2.580185,-1.5335449,1.5462891,1.1937011,109.0
355,1.4644108,0.48400116,2.580185,-1.811792,1.1214844,0.91864014,109.0
356,1.6729088,0.55570984,1.947815,-1.811792,1.1214844,0.91864014,109.0
357,1.6729088,0.55570984,1.947815,-1.8861328,0.68074954,0.7848267,109.0
358,1.6729088,0.55570984,1.947815,-1.8861328,0.68074954,0.7848267,109.0
359,1.677414,0.5077896,1.0144997,-1.8861328,0.68074954,0.7848267,109.0
360,1.677414,0.5077896,1.0144997,-1.7693115,0.24851075,0.6637573,109.0
361,1.5431395,0.4247818,-0.041439056,-1.7693115,0.24851075,0.6637573,109.0
362,1.5431395,0.4247818,-0.041439056,-1.7947998,-0.11363526,0.52038574,109.0
363,1.2929955,0.33753204,-1.0100098,-1.7947998,-0.11363526,0.52038574,109.0
364,1.2929955,0.33753204,-1.0100098,-1.8585205,-0.40144044,0.43011475,109.0
365,0.8739834,0.19577026,-1.6646118,-1.8585205,-0.40144044,0.43011475,109.0
366,0.8739834,0.19577026,-1.6646118,-1.8553345,-0.67437744,0.31860352,109.0
367,0.36287117,0.09836578,-1.9402084,-1.8553345,-0.67437744,0.31860352,109.0
368,0.36287117,0.09836578,-1.9402084,-1.9307374,-0.9154541,0.18479005,109.0
369,-0.05305004,0.24551392,-2.120369,-1.9307374,-0.9154541,0.18479005,109.0
370,-0.05305004,0.24551392,-2.120369,-2.2111084,-1.1182984,0.0031860352,109.0
371,-0.21708584,0.42580414,-2.4119072,-2.2111084,-1.1182984,0.0031860352,109.0
372,-0.21708584,0.42580414,-2.4119072,-2.4957275,-1.2468017,-0.24638672,109.0
373,-0.1745596,0.40855408,-2.5877914,-2.4957275,-1.2468017,-0.24638672,109.0
374,-0.1745596,0.40855408,-2.5877914,-2.4967897,-1.26167,-0.42055663,109.0
375,-0.06862736,0.36624908,-2.4537888,-2.4967897,-1.26167,-0.42055663,109.0
376,-0.06862736,0.36624908,-2.4537888,-2.2865112,-1.2372437,-0.5936646,109.0
377,-0.010944366,0.49812317,-2.0664139,-2.2865112,-1.2372437,-0.5936646,109.0
378,-0.010944366,0.49812317,-2.0664139,-1.9615357,-1.0991821,-0.73809814,109.0
379,-0.079190254,0.764122,-1.6596146,-1.9615357,-1.0991821,-0.73809814,109.0
380,-0.079190254,0.764122,-1.6596146,-1.536731,-0.98236084,-0.8209351,109.0
381,-0.2442236,0.9944382,-1.4311943,-1.536731,-0.98236084,-0.8209351,109.0
382,-0.2442236,0.9944382,-1.4311943,-1.0598878,-0.80606693,-0.8092529,109.0
383,-0.50475407,1.1668625,-1.3466415,-1.0598878,-0.80606693,-0.8092529,109.0
384,-0.50475407,1.1668625,-1.3466415,-0.6531372,-0.58410645,-0.7062378,109.0
385,-0.9056101,1.3687363,-1.1757889,-0.6531372,-0.58410645,-0.7062378,109.0
386,-0.9056101,1.3687363,-1.1757889,-0.40037844,-0.452417,-0.5883545,109.0
387,-1.2264051,1.599266,-0.86972046,-0.40037844,-0.452417,-0.5883545,109.0
388,-1.2264051,1.599266,-0.86972046,-0.35895997,-0.4428589,-0.4895874,109.0
389,-0.96151924,1.7163391,-0.5293236,-0.35895997,-0.4428589,-0.4895874,109.0
390,-0.96151924,1.7163391,-0.5293236,-0.5150757,-0.4598511,-0.43967286,109.0
391,-0.025709152,1.6080704,-0.08366394,-0.5150757,-0.4598511,-0.43967286,109.0
392,-0.025709152,1.6080704,-0.08366394,-0.59472656,-0.32497558,-0.31966552,109.0
393,0.9808245,1.3695221,0.38412094,-0.59472656,-0.32497558,-0.31966552,109.0
394,0.9808245,1.3695221,0.38412094,-0.5384399,-0.26125488,-0.31860352,109.0
395,1.6077557,1.1476593,0.65994644,-0.5384399,-0.26125488,-0.31860352,109.0
396,1.6077557,1.1476593,0.65994644,-0.30054933,-0.2177124,-0.39188233,109.0
397,1.7469225,1.1291733,0.62550354,-0.30054933,-0.2177124,-0.39188233,109.0
398,1.7469225,1.1291733,0.62550354,-0.009558106,-0.14974366,-0.40356445,109.0
399,1.3685589,1.2753983,0.22013092,-0.009558106,-0.14974366,-0.40356445,109.0
400,1.3685589,1.2753983,0.22013092,0.08071289,-0.16567384,-0.42692873,109.0
401,0.6702137,1.4358826,-0.4366417,0.08071289,-0.16567384,-0.42692873,109.0
402,0.6702137,1.4358826,-0.4366417,-0.052038576,-0.30161133,-0.45135498,109.0
403,0.022254944,1.5472031,-1.0205421,-0.052038576,-0.30161133,-0.45135498,109.0
404,0.022254944,1.5472031,-1.0205421,-0.27506104,-0.5150757,-0.4619751,109.0
405,-0.23578453,1.5923004,-1.1891518,-0.27506104,-0.5150757,-0.4619751,109.0
406,-0.23578453,1.5923004,-1.1891518,-0.5649902,-0.7476563,-0.4630371,109.0
407,0.03278351,1.4842911,-0.9182167,-0.5649902,-0.7476563,-0.4630371,109.0
408,0.03278351,1.4842911,-0.9182167,-0.81987303,-0.7582764,-0.41737062,109.0
409,0.5376406,1.1472931,-0.49803925,-0.81987303,-0.7582764,-0.41737062,109.0
410,0.5376406,1.1472931,-0.49803925,-0.96218264,-0.630835,-0.3440918,109.0
411,0.8846903,0.6940918,-0.145195,-0.96218264,-0.630835,-0.3440918,109.0
412,0.8846903,0.6940918,-0.145195,-1.0322754,-0.4258667,-0.19541016,109.0
413,0.98419285,0.30162048,0.039569855,-1.0322754,-0.4258667,-0.19541016,109.0
414,0.98419285,0.30162048,0.039569855,-1.0184692,-0.17735596,0.0180542,109.0
415,0.92269325,-0.036331177,0.08573532,-1.0184692,-0.17735596,0.0180542,109.0
416,0.92269325,-0.036331177,0.08573532,-0.8527954,0.12213135,0.21983643,109.0
417,0.77516603,-0.34887695,0.0772171,-0.8527954,0.12213135,0.21983643,109.0
418,0.77516603,-0.34887695,0.0772171,-0.46516114,0.4163086,0.41206056,109.0
419,0.552567,-0.544899,0.1106987,-0.46516114,0.4163086,0.41206056,109.0
420,0.552567,-0.544899,0.1106987,0.0180542,0.66588134,0.57242435,109.0
421,0.32034922,-0.4699402,0.23651886,0.0180542,0.66588134,0.57242435,109.0
422,0.32034922,-0.4699402,0.23651886,0.29099122,0.8612915,0.73703617,109.0
423,0.17472458,-0.19789886,0.38466263,0.29099122,0.8612915,0.73703617,109.0
424,0.17472458,-0.19789886,0.38466263,0.16885987,0.9494385,0.86766356,109.0
425,0.21567106,-0.054336548,0.488945,0.16885987,0.9494385,0.86766356,109.0
426,0.21567106,-0.054336548,0.488945,-0.06690674,1.081128,1.0259033,109.0
427,0.27445316,-0.23291016,0.54343796,-0.06690674,1.081128,1.0259033,109.0
428,0.27445316,-0.23291016,0.54343796,-0.18372802,1.3445069,1.2106934,109.0
429,-0.03988552,-0.6412964,0.6599083,-0.18372802,1.3445069,1.2106934,109.0
430,-0.03988552,-0.6412964,0.6599083,-0.10089111,1.6641724,1.3668091,109.0
431,-0.9086418,-1.1154938,0.97037125,-0.10089111,1.6641724,1.3668091,109.0
432,-0.9086418,-1.1154938,0.97037125,0.21027832,1.897815,1.4825684,109.0
433,-1.9798069,-1.5912857,1.4672165,0.21027832,1.897815,1.4825684,109.0
434,-1.9798069,-1.5912857,1.4672165,0.74659425,1.9222412,1.4984986,109.0
435,-2.6029377,-1.9869537,2.0223465,0.74659425,1.9222412,1.4984986,109.0
436,-2.6029377,-1.9869537,2.0223465,1.2797241,1.8468384,1.4369019,109.0
437,-2.5844622,-2.12146,2.422577,1.2797241,1.8468384,1.4369019,109.0
438,-2.5844622,-2.12146,2.422577,1.7544434,1.9487915,1.4061035,109.0
439,-2.6186924,-1.7576065,2.6225815,1.7544434,1.9487915,1.4061035,109.0
440,-2.6186924,-1.7576065,2.6225815,2.0911012,1.9594116,1.3062744,109.0
441,-3.272481,-0.74607086,2.6360664,2.0911012,1.9594116,1.3062744,109.0
442,-3.272481,-0.74607086,2.6360664,1.7756836,1.4708862,1.0099732,109.0
443,-3.2715607,-0.19763947,2.3606339,1.7756836,1.4708862,1.0099732,109.0
444,-3.2715607,-0.19763947,2.3606339,1.2945923,1.0545777,0.85704345,109.0
445,-2.9486809,0.5390701,1.5289497,1.2945923,1.0545777,0.85704345,109.0
446,-2.9486809,0.5390701,1.5289497,0.0541626,-0.63614506,0.4694092,109.0
447,-1.5898647,0.09642792,0.7089119,0.0541626,-0.63614506,0.4694092,109.0
448,-1.5898647,0.09642792,0.7089119,0.022302246,-1.1437867,0.27506104,109.0
449,2.6976767,-1.0099869,-1.1938324,0.022302246,-1.1437867,0.27506104,109.0
450,2.6976767,-1.0099869,-1.1938324,0.27612305,-1.8287842,-0.32497558,109.0
451,3.2811031,-0.79950714,-1.6687164,0.27612305,-1.8287842,-0.32497558,109.0
452,3.2811031,-0.79950714,-1.6687164,0.26656494,-1.7640015,-0.47471926,109.0
453,3.9268847,-0.031951904,-2.386341,0.26656494,-1.7640015,-0.47471926,109.0
454,3.9268847,-0.031951904,-2.386341,0.05628662,-1.6015137,-0.8612915,109.0
455,2.697795,0.21547699,-2.267189,0.05628662,-1.6015137,-0.8612915,109.0
456,2.697795,0.21547699,-2.267189,-0.007434082,-1.722583,-0.9876709,109.0
457,0.21368027,0.37908173,-2.3290367,-0.007434082,-1.722583,-0.9876709,109.0
458,0.21368027,0.37908173,-2.3290367,-0.45878908,-2.4043946,-1.265918,109.0
459,-0.48408508,0.47877502,-2.238205,-0.45878908,-2.4043946,-1.265918,109.0
460,-0.48408508,0.47877502,-2.238205,-0.68924564,-2.6614015,-1.3710572,109.0
461,-0.48601055,0.34480286,-2.1101685,-0.68924564,-2.6614015,-1.3710572,109.0
462,-0.48601055,0.34480286,-2.1101685,-1.2032593,-3.0564697,-1.7416992,109.0
463,-0.48601055,0.34480286,-2.1101685,-1.2032593,-3.0564697,-1.7416992,111.0
464,-0.21034145,0.4944229,-1.9660645,-1.2032593,-3.0564697,-1.7416992,111.0
465,-0.21034145,0.4944229,-1.9660645,-1.3030884,-3.0214233,-1.8043579,111.0
466,1.3663826,0.52023315,-1.678112,-1.3030884,-3.0214233,-1.8043579,111.0
467,1.3663826,0.52023315,-1.678112,-1.6015137,-2.5817506,-1.9424194,111.0
468,1.2434111,0.7693329,-1.5296249,-1.6015137,-2.5817506,-1.9424194,111.0
469,1.2434111,0.7693329,-1.5296249,-1.6769165,-2.345984,-1.9349854,111.0
470,1.1744652,0.8627777,-1.441021,-1.6769165,-2.345984,-1.9349854,111.0
471,1.1744652,0.8627777,-1.441021,-1.5569092,-1.6747925,-1.6949707,111.0
472,0.5783663,0.9453583,-1.304451,-1.5569092,-1.6747925,-1.6949707,111.0
473,0.5783663,0.9453583,-1.304451,-1.3774292,-1.5038086,-1.6100098,111.0
474,-0.0726223,0.9032059,-1.3104668,-1.3774292,-1.5038086,-1.6100098,111.0
475,-0.0726223,0.9032059,-1.3104668,-0.86341554,-1.2213135,-1.4092896,111.0
476,-0.47609043,0.89855194,-1.3242531,-0.86341554,-1.2213135,-1.4092896,111.0
477,-0.47609043,0.89855194,-1.3242531,-0.27506104,-1.0195312,-1.1151123,111.0
478,-0.6629648,0.93681335,-1.2177505,-0.27506104,-1.0195312,-1.1151123,111.0
479,-0.6629648,0.93681335,-1.2177505,0.19434814,-0.8708496,-0.7848267,111.0
480,-0.7437506,0.9840927,-1.0195236,0.19434814,-0.8708496,-0.7848267,111.0
481,-0.7437506,0.9840927,-1.0195236,0.45029297,-0.7519043,-0.4630371,111.0
482,-0.8313532,1.1262741,-0.9495659,0.45029297,-0.7519043,-0.4630371,111.0
483,-0.8313532,1.1262741,-0.9495659,0.39400634,-0.49489745,-0.016992187,111.0
484,-0.81857395,0.9938812,-0.8596649,0.39400634,-0.49489745,-0.016992187,111.0
485,-0.81857395,0.9938812,-0.8596649,0.21983643,-0.4078125,0.09239502,111.0
486,-0.9221201,1.0220337,-0.73711014,0.21983643,-0.4078125,0.09239502,111.0
487,-0.9221201,1.0220337,-0.73711014,-0.31329346,-0.20390625,0.22408448,111.0
488,-0.8667488,0.97914886,-0.36789703,-0.31329346,-0.20390625,0.22408448,111.0
489,-0.8667488,0.97914886,-0.36789703,-0.8336792,0.083898924,0.31010744,111.0
490,-0.81994915,0.77970886,0.17183304,-0.8336792,0.083898924,0.31010744,111.0
491,-0.81994915,0.77970886,0.17183304,-1.1044922,0.8772217,0.63614506,111.0
492,-0.78709984,0.6065903,0.31389618,-1.1044922,0.8772217,0.63614506,111.0
493,-0.78709984,0.6065903,0.31389618,-1.0736939,1.177771,0.79226077,111.0
494,-1.5565109,0.25788116,0.43749237,-1.0736939,1.177771,0.79226077,111.0
495,-1.5565109,0.25788116,0.43749237,-0.77951664,1.6514282,1.1448487,111.0
496,-2.3162165,-0.20818329,0.8614807,-0.77951664,1.6514282,1.1448487,111.0
497,-2.3162165,-0.20818329,0.8614807,-0.16248779,2.1314576,1.5505371,111.0
498,-2.2403145,-0.7522888,1.8864632,-0.16248779,2.1314576,1.5505371,111.0
499,-2.2403145,-0.7522888,1.8864632,0.7508423,2.6104248,1.9041871,111.0
500,-0.9851837,-1.2897339,3.2892227,0.7508423,2.6104248,1.9041871,111.0
501,-0.9851837,-1.2897339,3.2892227,1.7544434,2.987439,2.1643798,111.0
502,0.6873169,-1.4707413,4.376705,1.7544434,2.987439,2.1643798,111.0
503,0.6873169,-1.4707413,4.376705,2.5817506,2.985315,2.1983643,111.0
504,1.874548,-1.0971832,4.3363876,2.5817506,2.985315,2.1983643,111.0
505,1.874548,-1.0971832,4.3363876,2.5488281,2.5159059,1.8287842,111.0
506,2.4595022,-0.1888504,3.0740204,2.5488281,2.5159059,1.8287842,111.0
507,2.4595022,-0.1888504,3.0740204,1.5186768,2.0974731,1.4910644,111.0
508,2.465661,0.86782837,1.3190079,1.5186768,2.0974731,1.4910644,111.0
509,2.465661,0.86782837,1.3190079,0.13699952,1.7289551,1.2425537,111.0
510,1.7562332,1.4103165,-0.6364441,0.13699952,1.7289551,1.2425537,111.0
511,1.7562332,1.4103165,-0.6364441,-1.3083985,0.8294312,0.9260742,111.0
512,1.3520327,0.9769592,-0.7595825,-1.3083985,0.8294312,0.9260742,111.0
513,1.3520327,0.9769592,-0.7595825,-1.6514282,0.47684327,0.78164065,111.0
514,1.3008156,0.11994934,-0.82052994,-1.6514282,0.47684327,0.78164065,111.0
515,1.3008156,0.11994934,-0.82052994,-2.2450929,-0.10407715,0.57242435,111.0
516,1.7330723,-0.6451416,-0.620533,-2.2450929,-0.10407715,0.57242435,111.0
517,1.7330723,-0.6451416,-0.620533,-2.6752076,-0.35895997,0.3536499,111.0
518,2.0843706,-1.1999054,-0.485466,-2.6752076,-0.35895997,0.3536499,111.0
519,2.0843706,-1.1999054,-0.485466,-2.806897,-0.35577393,0.16354981,111.0
520,1.894865,-1.5535736,-0.42660522,-2.806897,-0.35577393,0.16354981,111.0
521,1.894865,-1.5535736,-0.42660522,-2.6507814,-0.271875,0.04885254,111.0
522,1.1875472,-1.7558212,-0.27944183,-2.6507814,-0.271875,0.04885254,111.0
523,1.1875472,-1.7558212,-0.27944183,-2.3088136,-0.3069214,0.029736329,111.0
524,0.29633904,-1.8739166,0.02235794,-2.3088136,-0.3069214,0.029736329,111.0
525,0.29633904,-1.8739166,0.02235794,-1.8255981,-0.39294434,-0.008496094,111.0
526,-0.38142204,-1.8877792,0.3666191,-1.8255981,-0.39294434,-0.008496094,111.0
527,-0.38142204,-1.8877792,0.3666191,-1.1883911,-0.42374268,0.06796875,111.0
528,-0.6250839,-1.7574387,0.6837616,-1.1883911,-0.42374268,0.06796875,111.0
529,-0.6250839,-1.7574387,0.6837616,-0.5012695,-0.30054933,0.2166504,111.0
530,-0.41314125,-1.41082,0.9284401,-0.5012695,-0.30054933,0.2166504,111.0
531,-0.41314125,-1.41082,0.9284401,0.09664307,-0.081774905,0.33028564,111.0
532,0.1750536,-0.8176422,0.94625473,0.09664307,-0.081774905,0.33028564,111.0
533,0.1750536,-0.8176422,0.94625473,0.45135498,0.2793091,0.36745605,111.0
534,0.7365031,-0.22225189,0.6344948,0.45135498,0.2793091,0.36745605,111.0
535,0.7365031,-0.22225189,0.6344948,0.7890747,0.79969484,0.3345337,111.0
536,0.627398,0.03655243,0.37286758,0.7890747,0.79969484,0.3345337,111.0
537,0.627398,0.03655243,0.37286758,1.1926392,1.1979493,0.2782471,111.0
538,-0.25997114,-0.029953003,0.52591705,1.1926392,1.1979493,0.2782471,111.0
539,-0.25997114,-0.029953003,0.52591705,1.6025757,1.2754761,0.28780517,111.0
540,-1.1842222,-0.12206268,0.8090515,1.6025757,1.2754761,0.28780517,111.0
541,-1.1842222,-0.12206268,0.8090515,1.8500245,1.1448487,0.28674316,111.0
542,-1.6970978,-0.06440735,0.7210808,1.8500245,1.1448487,0.28674316,111.0
543,-1.6970978,-0.06440735,0.7210808,1.7427613,1.2425537,0.26550293,111.0
544,-2.2519894,0.055091858,0.4882393,1.7427613,1.2425537,0.26550293,111.0
545,-2.2519894,0.055091858,0.4882393,1.5749635,1.2489258,0.2782471,111.0
546,-3.2685719,0.1583786,0.62963104,1.5749635,1.2489258,0.2782471,111.0
547,-3.2685719,0.1583786,0.62963104,1.6185058,0.85598147,0.1263794,111.0
548,-4.126747,0.3471756,0.9891052,1.6185058,0.85598147,0.1263794,111.0
549,-4.126747,0.3471756,0.9891052,1.6471802,0.032922365,-0.1274414,111.0
550,-3.635334,0.61428833,1.022232,1.6471802,0.032922365,-0.1274414,111.0
551,-3.635334,0.61428833,1.022232,1.5526612,-0.93350834,-0.4078125,111.0
552,-1.564847,0.76867676,0.47307205,1.5526612,-0.93350834,-0.4078125,111.0
553,-1.564847,0.76867676,0.47307205,1.4878784,-1.5930176,-0.6680054,111.0
554,0.8150654,0.87059784,-0.5002632,1.4878784,-1.5930176,-0.6680054,111.0
555,0.8150654,0.87059784,-0.5002632,1.3370727,-1.8733886,-0.91864014,111.0
556,2.1192398,1.0321426,-1.5278969,1.3370727,-1.8733886,-0.91864014,111.0
557,2.1192398,1.0321426,-1.5278969,1.0959961,-1.9721558,-1.0906861,111.0
558,1.9843817,1.1158295,-2.2668,1.0959961,-1.9721558,-1.0906861,111.0
559,1.9843817,1.1158295,-2.2668,0.90908206,-2.1484497,-1.2011353,111.0
560,1.0260067,1.0780106,-2.6081276,0.90908206,-2.1484497,-1.2011353,111.0
561,1.0260067,1.0780106,-2.6081276,0.62552494,-2.4787354,-1.2744141,111.0
562,0.1267128,0.97155,-2.5971336,0.62552494,-2.4787354,-1.2744141,111.0
563,0.1267128,0.97155,-2.5971336,0.09664307,-2.7697265,-1.3009644,111.0
564,0.1267128,0.97155,-2.5971336,0.09664307,-2.7697265,-1.3009644,114.0
565,-0.2676363,0.7358856,-2.3119125,0.09664307,-2.7697265,-1.3009644,114.0
566,-0.2676363,0.7358856,-2.3119125,-0.5522461,-3.0256715,-1.3137085,114.0
567,-0.079172134,0.43135834,-1.897419,-0.5522461,-3.0256715,-1.3137085,114.0
568,-0.079172134,0.43135834,-1.897419,-1.1416626,-3.0808961,-1.4432739,114.0
569,0.5873089,0.27448273,-1.5498314,-1.1416626,-3.0808961,-1.4432739,114.0
570,0.5873089,0.27448273,-1.5498314,-1.5951416,-2.9428346,-1.5887696,114.0
571,1.370677,0.35484314,-1.3720665,-1.5951416,-2.9428346,-1.5887696,114.0
572,1.370677,0.35484314,-1.3720665,-1.8627685,-2.540332,-1.6493043,114.0
573,1.7336264,0.51955414,-1.3538055,-1.8627685,-2.540332,-1.6493043,114.0
574,1.7336264,0.51955414,-1.3538055,-1.9562256,-2.0199463,-1.5983276,114.0
575,1.3733273,0.6123581,-1.3811302,-1.9562256,-2.0199463,-1.5983276,114.0
576,1.3733273,0.6123581,-1.3811302,-1.81604,-1.6057618,-1.5579712,114.0
577,0.5890913,0.61753845,-1.4025612,-1.81604,-1.6057618,-1.5579712,114.0
578,0.5890913,0.61753845,-1.4025612,-1.3869873,-1.3083985,-1.4666382,114.0
579,-0.1221714,0.61613464,-1.4082298,-1.3869873,-1.3083985,-1.4666382,114.0
580,-0.1221714,0.61613464,-1.4082298,-0.79969484,-1.0556396,-1.260608,114.0
581,-0.5612383,0.6335907,-1.3446274,-0.79969484,-1.0556396,-1.260608,114.0
582,-0.5612383,0.6335907,-1.3446274,-0.17629395,-0.85385746,-0.92501223,114.0
583,-0.74723244,0.6316757,-1.15905,-0.17629395,-0.85385746,-0.92501223,114.0
584,-0.74723244,0.6316757,-1.15905,0.32816163,-0.72854006,-0.5671143,114.0
585,-0.6405964,0.65415955,-0.94218063,0.32816163,-0.72854006,-0.5671143,114.0
586,-0.6405964,0.65415955,-0.94218063,0.5692383,-0.544812,-0.15080567,114.0
587,-0.35372543,0.6995621,-0.80215836,0.5692383,-0.544812,-0.15080567,114.0
588,-0.35372543,0.6995621,-0.80215836,0.48640138,-0.2166504,0.25806886,114.0
589,-0.19333172,0.70072174,-0.6321564,0.48640138,-0.2166504,0.25806886,114.0
590,-0.19333172,0.70072174,-0.6321564,0.1274414,0.17735596,0.6117188,114.0
591,-0.2910061,0.6875305,-0.3264885,0.1274414,0.17735596,0.6117188,114.0
592,-0.2910061,0.6875305,-0.3264885,-0.36002198,0.59472656,0.8527954,114.0
593,-0.46578884,0.6084366,0.080215454,-0.36002198,0.59472656,0.8527954,114.0
594,-0.46578884,0.6084366,0.080215454,-0.6690674,1.0715698,1.0875,114.0
595,-0.6999502,0.36643982,0.42465973,-0.6690674,1.0715698,1.0875,114.0
596,-0.6999502,0.36643982,0.42465973,-0.6202149,1.7278931,1.4517701,114.0
597,-1.396081,-0.048095703,0.6442795,-0.6202149,1.7278931,1.4517701,114.0
598,-1.396081,-0.048095703,0.6442795,-0.3430298,2.4723632,1.9392334,114.0
599,-2.6678047,-0.6393051,0.95238495,-0.3430298,2.4723632,1.9392334,114.0
600,-2.6678047,-0.6393051,0.95238495,0.18585205,2.998059,2.3321779,114.0
601,-3.5219755,-1.365593,1.6810226,0.18585205,2.998059,2.3321779,114.0
602,-3.5219755,-1.365593,1.6810226,1.0078491,3.3771973,2.6040528,114.0
603,-2.7884178,-2.0059738,3.0221863,1.0078491,3.3771973,2.6040528,114.0
604,-2.7884178,-2.0059738,3.0221863,2.085791,3.703235,2.8748658,114.0
605,-0.8358002,-2.2598724,4.458996,2.085791,3.703235,2.8748658,114.0
606,-0.8358002,-2.2598724,4.458996,3.1977174,3.6108398,2.879114,114.0
607,1.0811281,-1.848526,4.8894615,3.1977174,3.6108398,2.879114,114.0
608,1.0811281,-1.848526,4.8894615,3.3272827,3.1063843,2.2132325,114.0
609,2.3220558,-0.7518921,3.945053,3.3272827,3.1063843,2.2132325,114.0
610,2.3220558,-0.7518921,3.945053,2.3332398,2.608301,1.6960328,114.0
611,2.666006,0.53479004,2.2708244,2.3332398,2.608301,1.6960328,114.0
612,2.666006,0.53479004,2.2708244,0.8708496,2.0571167,1.2977784,114.0
613,2.2768726,1.1453018,0.658638,0.8708496,2.0571167,1.2977784,114.0
614,2.2768726,1.1453018,0.658638,-0.3164795,1.3965454,0.94731444,114.0
615,1.8062878,0.7574539,-0.38032913,-0.3164795,1.3965454,0.94731444,114.0
616,1.8062878,0.7574539,-0.38032913,-0.9420044,0.6149048,0.59472656,114.0
617,1.8166618,0.031723022,-0.72566223,-0.9420044,0.6149048,0.59472656,114.0
618,1.8166618,0.031723022,-0.72566223,-1.4018555,0.007434082,0.28568116,114.0
619,2.256052,-0.39308167,-0.61893463,-1.4018555,0.007434082,0.28568116,114.0
620,2.256052,-0.39308167,-0.61893463,-1.9243653,-0.29523927,0.011682129,114.0
621,2.5928059,-0.56339264,-0.44436646,-1.9243653,-0.29523927,0.011682129,114.0
622,2.5928059,-0.56339264,-0.44436646,-2.3396118,-0.42161867,-0.22514649,114.0
623,2.452406,-0.73726654,-0.37976074,-2.3396118,-0.42161867,-0.22514649,114.0
624,2.452406,-0.73726654,-0.37976074,-2.5169678,-0.42161867,-0.3536499,114.0
625,1.8775134,-1.0486374,-0.29428482,-2.5169678,-0.42161867,-0.3536499,114.0
626,1.8775134,-1.0486374,-0.29428482,-2.4543092,-0.44498292,-0.43117675,114.0
627,1.0762782,-1.4273987,0.0015830994,-2.4543092,-0.44498292,-0.43117675,114.0
628,1.0762782,-1.4273987,0.0015830994,-2.2164185,-0.5957886,-0.47684327,114.0
629,0.31014347,-1.6405258,0.42621613,-2.2164185,-0.5957886,-0.47684327,114.0
630,0.31014347,-1.6405258,0.42621613,-1.901001,-0.66269535,-0.4598511,114.0
631,-0.17548132,-1.5707321,0.77067184,-1.901001,-0.66269535,-0.4598511,114.0
632,-0.17548132,-1.5707321,0.77067184,-1.4369019,-0.6265869,-0.27399904,114.0
633,-0.25270224,-1.3241882,0.98096466,-1.4369019,-0.6265869,-0.27399904,114.0
634,-0.25270224,-1.3241882,0.98096466,-0.88359374,-0.42055663,-0.05522461,114.0
635,0.06268215,-0.883873,0.9140434,-0.88359374,-0.42055663,-0.05522461,114.0
636,0.06268215,-0.883873,0.9140434,-0.452417,-0.14761963,0.11257324,114.0
637,0.57934475,-0.3042755,0.40745544,-0.452417,-0.14761963,0.11257324,114.0
638,0.57934475,-0.3042755,0.40745544,-0.10938721,0.2623169,0.15823975,114.0
639,0.76567316,0.09272003,-0.2131958,-0.10938721,0.2623169,0.15823975,114.0
640,0.76567316,0.09272003,-0.2131958,0.33984375,0.7593384,0.10195313,114.0
641,0.10484791,0.1612091,-0.38475418,0.33984375,0.7593384,0.10195313,114.0
642,0.10484791,0.1612091,-0.38475418,0.9154541,1.0492676,0.10301514,114.0
643,-1.1706991,0.11191559,-0.10782623,0.9154541,1.0492676,0.10301514,114.0
644,-1.1706991,0.11191559,-0.10782623,1.3986695,1.0726318,0.11044922,114.0
645,-2.2266102,0.12062073,0.08306122,1.3986695,1.0726318,0.11044922,114.0
646,-2.2266102,0.12062073,0.08306122,1.4698242,0.7540283,0.013806152,114.0
647,-2.498927,0.11677551,-0.1132164,1.4698242,0.7540283,0.013806152,114.0
648,-2.498927,0.11677551,-0.1132164,1.3859253,0.65632325,-0.08283692,114.0
649,-2.4489594,0.18846893,-0.15499115,1.3859253,0.65632325,-0.08283692,114.0
650,-2.4489594,0.18846893,-0.15499115,1.4443359,0.62977296,-0.07434082,114.0
651,-2.867261,0.6533432,0.35652542,1.4443359,0.62977296,-0.07434082,114.0
652,-2.867261,0.6533432,0.35652542,1.3115845,0.29311523,-0.2899292,114.0
653,-3.4580545,1.3662872,1.0681915,1.3115845,0.29311523,-0.2899292,114.0
654,-3.4580545,1.3662872,1.0681915,0.6690674,-0.26762697,-0.5703003,114.0
655,-3.050148,1.5431366,1.2493515,0.6690674,-0.26762697,-0.5703003,114.0
656,-3.050148,1.5431366,1.2493515,0.10089111,-1.0609497,-0.7805786,114.0
657,-1.2315121,0.86826324,0.47452927,0.10089111,-1.0609497,-0.7805786,114.0
658,-1.2315121,0.86826324,0.47452927,0.21877442,-1.3869873,-0.9770508,114.0
659,0.71428967,0.12104797,-0.678154,0.21877442,-1.3869873,-0.9770508,114.0
660,0.71428967,0.12104797,-0.678154,0.7593384,-1.539917,-1.1225464,114.0
661,0.71428967,0.12104797,-0.678154,0.7593384,-1.539917,-1.1225464,114.0
662,1.4899864,0.09489441,-1.461174,0.7593384,-1.539917,-1.1225464,114.0
663,1.4899864,0.09489441,-1.461174,1.26698,-1.7459472,-1.2138795,114.0
664,1.1083221,0.6003876,-1.8685951,1.26698,-1.7459472,-1.2138795,114.0
665,1.1083221,0.6003876,-1.8685951,1.3668091,-1.9976441,-1.354065,114.0
666,0.38048172,0.98896027,-2.1596336,1.3668091,-1.9976441,-1.354065,114.0
667,0.38048172,0.98896027,-2.1596336,1.1979493,-2.275891,-1.3721192,114.0
668,-0.06416893,1.1092453,-2.2941742,1.1979493,-2.275891,-1.3721192,114.0
669,-0.06416893,1.1092453,-2.2941742,0.7699585,-2.5626342,-1.3370727,114.0
670,-0.010795593,1.0855179,-2.1736946,0.7699585,-2.5626342,-1.3370727,114.0
671,-0.010795593,1.0855179,-2.1736946,0.06265869,-2.805835,-1.3859253,114.0
672,0.5834894,1.0183258,-1.8957672,0.06265869,-2.805835,-1.3859253,114.0
673,0.5834894,1.0183258,-1.8957672,-0.632959,-2.8281372,-1.5229248,114.0
674,1.4354315,0.9424591,-1.6155014,-0.632959,-2.8281372,-1.5229248,114.0
675,1.4354315,0.9424591,-1.6155014,-1.1310425,-2.6475952,-1.6110718,114.0
676,2.0164118,0.85369873,-1.4299736,-1.1310425,-2.6475952,-1.6110718,114.0
677,2.0164118,0.85369873,-1.4299736,-1.5547851,-2.2790773,-1.5781494,114.0
678,1.9371653,0.7390976,-1.2997513,-1.5547851,-2.2790773,-1.5781494,114.0
679,1.9371653,0.7390976,-1.2997513,-1.812854,-1.8394043,-1.4273437,114.0
680,1.200038,0.58586884,-1.1552811,-1.812854,-1.8394043,-1.4273437,114.0
681,1.200038,0.58586884,-1.1552811,-1.7077149,-1.5112427,-1.2287476,114.0
682,0.2548542,0.44638062,-1.0695992,-1.7077149,-1.5112427,-1.2287476,114.0
683,0.2548542,0.44638062,-1.0695992,-1.364685,-1.2786621,-1.0078491,114.0
684,-0.40172005,0.34602356,-1.1398468,-1.364685,-1.2786621,-1.0078491,114.0
685,-0.40172005,0.34602356,-1.1398468,-0.9526245,-1.0694458,-0.71367186,114.0
686,-0.6597185,0.23216248,-1.2337646,-0.9526245,-1.0694458,-0.71367186,114.0
687,-0.6597185,0.23216248,-1.2337646,-0.43861085,-0.8666016,-0.36320803,114.0
688,-0.70389843,0.16036224,-1.1479874,-0.43861085,-0.8666016,-0.36320803,114.0
689,-0.70389843,0.16036224,-1.1479874,0.007434082,-0.6552612,-0.033984374,114.0
690,-0.7033167,0.25211334,-0.9318428,0.007434082,-0.6552612,-0.033984374,114.0
691,-0.7033167,0.25211334,-0.9318428,0.08496094,-0.38232422,0.24744873,114.0
692,-0.7333813,0.42090607,-0.7214737,0.08496094,-0.38232422,0.24744873,114.0
693,-0.7333813,0.42090607,-0.7214737,-0.12531738,-0.081774905,0.48109132,114.0
694,-0.75153637,0.47840118,-0.47056198,-0.12531738,-0.081774905,0.48109132,114.0
695,-0.75153637,0.47840118,-0.47056198,-0.45560303,0.2347046,0.65632325,114.0
696,-0.69993496,0.41304016,-0.05665207,-0.45560303,0.2347046,0.65632325,114.0
697,-0.69993496,0.41304016,-0.05665207,-0.7349121,0.5915405,0.83049315,114.0
698,-0.62780666,0.35136414,0.4560089,-0.7349121,0.5915405,0.83049315,114.0
699,-0.62780666,0.35136414,0.4560089,-0.6988037,0.9876709,1.0545777,114.0
700,-0.85316086,0.3011322,0.68870926,-0.6988037,0.9876709,1.0545777,114.0
701,-0.85316086,0.3011322,0.68870926,-0.6403931,1.5462891,1.3370727,114.0
702,-1.6760588,0.03944397,0.6425934,-0.6403931,1.5462891,1.3370727,114.0
703,-1.6760588,0.03944397,0.6425934,-0.5522461,1.9073731,1.7077149,114.0
704,-2.6310568,-0.359375,0.8732414,-0.5522461,1.9073731,1.7077149,114.0
705,-2.6310568,-0.359375,0.8732414,-0.22302246,2.1367676,2.1027832,114.0
706,-2.7622433,-0.6654892,1.7068329,-0.22302246,2.1367676,2.1027832,114.0
707,-2.7622433,-0.6654892,1.7068329,0.27718505,2.4596193,2.436255,114.0
708,-1.7088184,-0.9011154,2.8030014,0.27718505,2.4596193,2.436255,114.0
709,-1.7088184,-0.9011154,2.8030014,0.8793457,2.6815796,2.6072388,114.0
710,0.0039901733,-1.1226501,3.5377731,0.8793457,2.6815796,2.6072388,114.0
711,0.0039901733,-1.1226501,3.5377731,1.4230957,2.7750366,2.5849366,114.0
712,1.4795837,-1.2166977,3.7965393,1.4230957,2.7750366,2.5849366,114.0
713,1.4795837,-1.2166977,3.7965393,1.717273,2.7516725,2.34386,114.0
714,2.1918335,-1.0776215,3.7485237,1.717273,2.7516725,2.34386,114.0
715,2.1918335,-1.0776215,3.7485237,1.8595825,2.5530763,2.0401247,114.0
716,2.127222,-0.7297745,3.149086,1.8595825,2.5530763,2.0401247,114.0
717,2.127222,-0.7297745,3.149086,1.6121339,2.176062,1.6524903,114.0
718,1.6450272,-0.20287323,1.9191208,1.6121339,2.176062,1.6524903,114.0
719,1.6450272,-0.20287323,1.9191208,0.74447024,1.5080566,1.2797241,114.0
720,1.307867,0.41553497,0.5260315,0.74447024,1.5080566,1.2797241,114.0
721,1.307867,0.41553497,0.5260315,-0.5256958,0.6446411,0.9611206,114.0
722,1.5948896,0.7624817,-0.52158356,-0.5256958,0.6446411,0.9611206,114.0
723,1.5948896,0.7624817,-0.52158356,-1.7406372,-0.08920898,0.6945557,114.0
724,2.406783,0.5481796,-1.0378609,-1.7406372,-0.08920898,0.6945557,114.0
725,2.406783,0.5481796,-1.0378609,-2.614673,-0.42055663,0.41737062,114.0
726,3.0849848,-0.089035034,-1.1792984,-2.614673,-0.42055663,0.41737062,114.0
727,3.0849848,-0.089035034,-1.1792984,-3.0150514,-0.39082032,0.1529297,114.0
728,3.0101147,-0.77241516,-1.1678543,-3.0150514,-0.39082032,0.1529297,114.0
729,3.0101147,-0.77241516,-1.1678543,-3.0522218,-0.24638672,-0.06265869,114.0
730,2.1486678,-1.1780014,-0.99121857,-3.0522218,-0.24638672,-0.06265869,114.0
731,2.1486678,-1.1780014,-0.99121857,-2.885486,-0.21452637,-0.16461182,114.0
732,0.9556408,-1.2560883,-0.57266235,-2.885486,-0.21452637,-0.16461182,114.0
733,0.9556408,-1.2560883,-0.57266235,-2.709192,-0.35895997,-0.19434814,114.0
734,-0.011903286,-1.1957855,-0.08411789,-2.709192,-0.35895997,-0.19434814,114.0
735,-0.011903286,-1.1957855,-0.08411789,-2.52865,-0.51826173,-0.19753419,114.0
736,-0.39340925,-1.2491455,0.23856354,-2.52865,-0.51826173,-0.19753419,114.0
737,-0.39340925,-1.2491455,0.23856354,-2.18031,-0.56180423,-0.008496094,114.0
738,-0.16727829,-1.4525146,0.38472366,-2.18031,-0.56180423,-0.008496094,114.0
739,-0.16727829,-1.4525146,0.38472366,-1.5696534,-0.41843262,0.3090454,114.0
740,0.43508625,-1.5515747,0.3431778,-1.5696534,-0.41843262,0.3090454,114.0
741,0.43508625,-1.5515747,0.3431778,-0.814563,-0.06159668,0.632959,114.0
742,0.94850826,-1.3924179,0.16442108,-0.814563,-0.06159668,0.632959,114.0
743,0.94850826,-1.3924179,0.16442108,0.05522461,0.54693604,0.9281983,114.0
744,0.78088903,-1.1311951,0.10422897,0.05522461,0.54693604,0.9281983,114.0
745,0.78088903,-1.1311951,0.10422897,1.0535157,1.1055542,1.0949341,114.0
746,-0.16457081,-1.0116119,0.3735466,1.0535157,1.1055542,1.0949341,114.0
747,-0.16457081,-1.0116119,0.3735466,1.9636596,1.447522,1.075818,114.0
748,-1.2172766,-1.1656876,0.817173,1.9636596,1.447522,1.075818,114.0
749,-1.2172766,-1.1656876,0.817173,2.721936,1.5484132,1.0046631,114.0
750,-1.8284969,-1.2983246,1.0206947,2.721936,1.5484132,1.0046631,114.0
751,-1.8284969,-1.2983246,1.0206947,2.974695,1.621692,0.88359374,114.0
752,-2.381462,-1.0899506,1.0258713,2.974695,1.621692,0.88359374,114.0
753,-2.381462,-1.0899506,1.0258713,2.7856567,1.622754,0.6956177,114.0
754,-3.409686,-0.44880676,1.2140808,2.7856567,1.622754,0.6956177,114.0
755,-3.409686,-0.44880676,1.2140808,2.4840455,1.0588257,0.27718505,114.0
756,-4.265847,0.48687744,1.6359024,2.4840455,1.0588257,0.27718505,114.0
757,-4.265847,0.48687744,1.6359024,1.7682495,0.18797608,-0.44710693,114.0
758,-3.734333,1.3033218,1.9671555,1.7682495,0.18797608,-0.44710693,114.0
759,-3.734333,1.3033218,1.9671555,0.8612915,-0.7540283,-1.1098022,114.0
760,-1.7281275,1.7493591,1.7647896,0.8612915,-0.7540283,-1.1098022,114.0
761,-1.7281275,1.7493591,1.7647896,0.41099855,-1.350879,-1.7024049,114.0
762,0.24660015,1.8480988,1.0714264,0.41099855,-1.350879,-1.7024049,114.0
763,0.24660015,1.8480988,1.0714264,0.7051758,-1.5813354,-2.2259767,114.0
764,0.60257816,1.9043198,0.20919418,0.7051758,-1.5813354,-2.2259767,114.0
765,0.60257816,1.9043198,0.20919418,1.3073364,-1.9445435,-2.5010376,114.0
766,0.60257816,1.9043198,0.20919418,1.3073364,-1.9445435,-2.5010376,115.0
767,-0.5086603,2.231514,-0.7826576,1.3073364,-1.9445435,-2.5010376,115.0
768,-0.5086603,2.231514,-0.7826576,1.5823975,-2.611487,-2.6061769,115.0
769,-1.544733,2.7967377,-1.8468895,1.5823975,-2.611487,-2.6061769,115.0
770,-1.544733,2.7967377,-1.8468895,1.3190186,-3.1977174,-2.5594482,115.0
771,-1.5263996,3.060997,-2.7300262,1.3190186,-3.1977174,-2.5594482,115.0
772,-1.5263996,3.060997,-2.7300262,0.64995116,-3.534375,-2.4766114,115.0
773,-0.6462898,2.586235,-3.150135,0.64995116,-3.534375,-2.4766114,115.0
774,-0.6462898,2.586235,-3.150135,0.06584473,-3.706421,-2.3842163,115.0
775,0.5825043,1.7467957,-3.1166534,0.06584473,-3.706421,-2.3842163,115.0
776,0.5825043,1.7467957,-3.1166534,-0.26444092,-3.6607544,-2.2227905,115.0
777,1.7263546,1.0764999,-2.8809814,-0.26444092,-3.6607544,-2.2227905,115.0
778,1.7263546,1.0764999,-2.8809814,-0.6924316,-3.4164917,-2.1378295,115.0
779,2.3839397,0.77438354,-2.6126213,-0.6924316,-3.4164917,-2.1378295,115.0
780,2.3839397,0.77438354,-2.6126213,-1.2202514,-3.0522218,-1.9286133,115.0
781,2.342125,0.746933,-2.334568,-1.2202514,-3.0522218,-1.9286133,115.0
782,2.342125,0.746933,-2.334568,-1.7151489,-2.642285,-1.725769,115.0
783,1.6890564,0.7624054,-2.0615883,-1.7151489,-2.642285,-1.725769,115.0
784,1.6890564,0.7624054,-2.0615883,-1.9519776,-2.2291627,-1.5473511,115.0
785,0.7235222,0.65799713,-1.8308868,-1.9519776,-2.2291627,-1.5473511,115.0
786,0.7235222,0.65799713,-1.8308868,-1.8404664,-1.9094971,-1.3997315,115.0
787,-0.20986652,0.39807892,-1.6131096,-1.8404664,-1.9094971,-1.3997315,115.0
788,-0.20986652,0.39807892,-1.6131096,-1.2914063,-1.716211,-1.1108643,115.0
789,-0.84742165,-0.012702942,-1.3854446,-1.2914063,-1.716211,-1.1108643,115.0
790,-0.84742165,-0.012702942,-1.3854446,-0.40993652,-1.5271729,-0.73809814,115.0
791,-1.0968208,-0.3665924,-1.2308273,-0.40993652,-1.5271729,-0.73809814,115.0
792,-1.0968208,-0.3665924,-1.2308273,0.41524658,-1.2892822,-0.28780517,115.0
793,-0.95853615,-0.34011078,-1.1316452,0.41524658,-1.2892822,-0.28780517,115.0
794,-0.95853615,-0.34011078,-1.1316452,0.74022216,-0.97492677,0.18797608,115.0
795,-0.65229034,-0.03414917,-0.9728584,0.74022216,-0.97492677,0.18797608,115.0
796,-0.65229034,-0.03414917,-0.9728584,0.50233155,-0.5214478,0.48321533,115.0
797,-0.4525938,0.25366974,-0.72247696,0.50233155,-0.5214478,0.48321533,115.0
798,-0.4525938,0.25366974,-0.72247696,0.021240234,-0.09133301,0.69986576,115.0
799,-0.35374928,0.41384888,-0.36300278,0.021240234,-0.09133301,0.69986576,115.0
800,-0.35374928,0.41384888,-0.36300278,-0.40993652,0.36320803,0.83049315,115.0
801,-0.17159843,0.45295715,0.13610077,-0.40993652,0.36320803,0.83049315,115.0
802,-0.17159843,0.45295715,0.13610077,-0.56392825,0.7943848,0.93563235,115.0
803,-0.07510853,0.3992157,0.5423393,-0.56392825,0.7943848,0.93563235,115.0
804,-0.07510853,0.3992157,0.5423393,-0.5363159,1.3742431,1.2414917,115.0
805,-0.66787434,0.21496582,0.6725807,-0.5363159,1.3742431,1.2414917,115.0
806,-0.66787434,0.21496582,0.6725807,-0.38763428,1.9264892,1.7682495,115.0
807,-1.9206276,-0.16355896,0.72496796,-0.38763428,1.9264892,1.7682495,115.0
808,-1.9206276,-0.16355896,0.72496796,-0.052038576,2.3916504,2.2249146,115.0
809,-2.6941805,-0.6240387,1.1342239,-0.052038576,2.3916504,2.2249146,115.0
810,-2.6941805,-0.6240387,1.1342239,0.26444092,2.8281372,2.628479,115.0
811,-2.0555515,-0.9686432,2.0087967,0.26444092,2.8281372,2.628479,115.0
812,-2.0555515,-0.9686432,2.0087967,0.7412842,3.265686,2.9736328,115.0
813,-0.6079788,-1.2282257,2.8962326,0.7412842,3.265686,2.9736328,115.0
814,-0.6079788,-1.2282257,2.8962326,1.2935303,3.6448243,2.9906251,115.0
815,0.40249634,-1.463829,3.3756638,1.2935303,3.6448243,2.9906251,115.0
816,0.40249634,-1.463829,3.3756638,1.8362182,3.719165,2.7750366,115.0
817,0.7011223,-1.4659119,3.4475136,1.8362182,3.719165,2.7750366,115.0
818,0.7011223,-1.4659119,3.4475136,2.075171,3.531189,2.4574952,115.0
819,0.69953346,-1.0528564,3.2100754,2.075171,3.531189,2.4574952,115.0
820,0.69953346,-1.0528564,3.2100754,1.9371094,3.0660279,2.1176515,115.0
821,0.8059406,-0.26840973,2.7359924,1.9371094,3.0660279,2.1176515,115.0
822,0.8059406,-0.26840973,2.7359924,1.0397094,2.3725343,1.6641724,115.0
823,1.2449112,0.5029373,2.0608406,1.0397094,2.3725343,1.6641724,115.0
824,1.2449112,0.5029373,2.0608406,-0.52888185,1.540979,1.2255615,115.0
825,2.0226135,0.7615433,1.3241005,-0.52888185,1.540979,1.2255615,115.0
826,2.0226135,0.7615433,1.3241005,-2.0942872,0.7614624,0.92713624,115.0
827,2.9334593,0.45022583,0.6980133,-2.0942872,0.7614624,0.92713624,115.0
828,2.9334593,0.45022583,0.6980133,-3.1987793,0.17523193,0.6669434,115.0
829,3.6476097,-0.10746765,0.26091385,-3.1987793,0.17523193,0.6669434,115.0
830,3.6476097,-0.10746765,0.26091385,-3.8338623,-0.059472658,0.46516114,115.0
831,3.841526,-0.7247772,-0.097774506,-3.8338623,-0.059472658,0.46516114,115.0
832,3.841526,-0.7247772,-0.097774506,-3.886963,-0.022302246,0.3695801,115.0
833,3.2879305,-1.3578873,-0.46611023,-3.886963,-0.022302246,0.3695801,115.0
834,3.2879305,-1.3578873,-0.46611023,-3.448352,0.028674318,0.30479738,115.0
835,2.2313576,-1.8434753,-0.7632942,-3.448352,0.028674318,0.30479738,115.0
836,2.2313576,-1.8434753,-0.7632942,-2.7410524,-0.06796875,0.25063476,115.0
837,1.2265778,-2.013466,-0.91924286,-2.7410524,-0.06796875,0.25063476,115.0
838,1.2265778,-2.013466,-0.91924286,-1.9498535,-0.17735596,0.28780517,115.0
839,0.60075665,-1.9163742,-0.9040947,-1.9498535,-0.17735596,0.28780517,115.0
840,0.60075665,-1.9163742,-0.9040947,-1.1193603,-0.14018555,0.4694092,115.0
841,0.31003666,-1.6629486,-0.65803146,-1.1193603,-0.14018555,0.4694092,115.0
842,0.31003666,-1.6629486,-0.65803146,-0.4428589,-0.090270996,0.6669434,115.0
843,0.2639475,-1.340538,-0.25141144,-0.4428589,-0.090270996,0.6669434,115.0
844,0.2639475,-1.340538,-0.25141144,0.03186035,0.046728518,0.7954468,115.0
845,0.345716,-1.0276566,0.1437912,0.03186035,0.046728518,0.7954468,115.0
846,0.345716,-1.0276566,0.1437912,0.32497558,0.40356445,0.86978763,115.0
847,0.22785425,-0.8227844,0.476326,0.32497558,0.40356445,0.86978763,115.0
848,0.22785425,-0.8227844,0.476326,0.6149048,0.83474123,0.8931519,115.0
849,-0.25770664,-0.79257965,0.83348846,0.6149048,0.83474123,0.8931519,115.0
850,-0.25770664,-0.79257965,0.83348846,0.98236084,1.0821899,0.8028809,115.0
851,-0.7698736,-0.90164185,1.1990662,0.98236084,1.0821899,0.8028809,115.0
852,-0.7698736,-0.90164185,1.1990662,1.2797241,1.2064453,0.634021,115.0
853,-1.0440607,-1.0098648,1.3320694,1.2797241,1.2064453,0.634021,115.0
854,-1.0440607,-1.0098648,1.3320694,1.3275146,1.3859253,0.45666504,115.0
855,-1.5279732,-1.0269699,1.2961121,1.3275146,1.3859253,0.45666504,115.0
856,-1.5279732,-1.0269699,1.2961121,1.4825684,1.6036377,0.35895997,115.0
857,-2.7269564,-0.8497391,1.4113541,1.4825684,1.6036377,0.35895997,115.0
858,-2.7269564,-0.8497391,1.4113541,1.806482,1.3922974,0.0361084,115.0
859,-4.1152077,-0.21385956,1.6414719,1.806482,1.3922974,0.0361084,115.0
860,-4.1152077,-0.21385956,1.6414719,1.807544,0.6669434,-0.4258667,115.0
861,-4.36127,0.80581665,1.6349678,1.807544,0.6669434,-0.4258667,115.0
862,-4.36127,0.80581665,1.6349678,1.4177856,-0.4364868,-0.87191164,115.0
863,-2.7516994,1.7071762,1.0993919,1.4177856,-0.4364868,-0.87191164,115.0
864,-2.7516994,1.7071762,1.0993919,0.8358032,-1.3784913,-1.2967163,115.0
865,-2.7516994,1.7071762,1.0993919,0.8358032,-1.3784913,-1.2967163,115.0
866,-0.29729462,2.1957474,0.1621399,0.8358032,-1.3784913,-1.2967163,115.0
867,-0.29729462,2.1957474,0.1621399,0.34940186,-1.7024049,-1.7491333,115.0
868,1.1582451,2.2715378,-0.9045181,0.34940186,-1.7024049,-1.7491333,115.0
869,1.1582451,2.2715378,-0.9045181,0.7041138,-1.8563966,-2.077295,115.0
870,0.8721771,2.273758,-1.8152657,0.7041138,-1.8563966,-2.077295,115.0
871,0.8721771,2.273758,-1.8152657,1.0471436,-2.1983643,-2.3905885,115.0
872,-0.38586426,2.6198273,-2.3781433,1.0471436,-2.1983643,-2.3905885,115.0
873,-0.38586426,2.6198273,-2.3781433,1.0067872,-2.7421143,-2.440503,115.0
874,-1.4495239,2.9926834,-2.6768913,1.0067872,-2.7421143,-2.440503,115.0
875,-1.4495239,2.9926834,-2.6768913,0.68287355,-3.348523,-2.4574952,115.0
876,-1.6681032,2.759636,-2.734398,0.68287355,-3.348523,-2.4574952,115.0
877,-1.6681032,2.759636,-2.734398,0.29523927,-3.8285522,-2.357666,115.0
878,-1.0343361,2.0208206,-2.4205742,0.29523927,-3.8285522,-2.357666,115.0
879,-1.0343361,2.0208206,-2.4205742,-0.081774905,-4.084497,-2.179248,115.0
880,0.14860535,1.297432,-1.9223366,-0.081774905,-4.084497,-2.179248,115.0
881,0.14860535,1.297432,-1.9223366,-0.58198243,-4.0080323,-2.0475585,115.0
882,1.4324102,0.9804764,-1.4746132,-0.58198243,-4.0080323,-2.0475585,115.0
883,1.4324102,0.9804764,-1.4746132,-1.2468017,-3.5694215,-1.8521484,115.0
884,2.1549368,1.2559738,-1.0192528,-1.2468017,-3.5694215,-1.8521484,115.0
885,2.1549368,1.2559738,-1.0192528,-2.269519,-3.0362916,-1.5515991,115.0
886,1.7939453,1.82901,-0.76721954,-2.269519,-3.0362916,-1.5515991,115.0
887,1.7939453,1.82901,-0.76721954,-3.8317382,-2.5775025,-1.3976074,115.0
888,0.61610126,1.9731903,-0.956707,-3.8317382,-2.5775025,-1.3976074,115.0
889,0.61610126,1.9731903,-0.956707,-4.9999514,-2.2812011,-1.4369019,115.0
890,-0.64732933,1.5866089,-1.107933,-4.9999514,-2.2812011,-1.4369019,115.0
891,-0.64732933,1.5866089,-1.107933,-5.4799805,-2.167566,-1.4241577,115.0
892,-1.43997,0.909153,-0.8185234,-5.4799805,-2.167566,-1.4241577,115.0
893,-1.43997,0.909153,-0.8185234,-5.248462,-2.1728761,-1.3179566,115.0
894,-1.5800762,0.20199203,-0.29484558,-5.248462,-2.1728761,-1.3179566,115.0
895,-1.5800762,0.20199203,-0.29484558,-4.7609987,-2.2918212,-1.2999023,115.0
896,-1.08391,-0.0434227,0.19610596,-4.7609987,-2.2918212,-1.2999023,115.0
897,-1.08391,-0.0434227,0.19610596,-4.3638062,-2.2089844,-1.1182984,115.0
898,-0.51357555,0.1326561,0.5890503,-4.3638062,-2.2089844,-1.1182984,115.0
899,-0.51357555,0.1326561,0.5890503,-3.9719238,-1.8340943,-0.9143921,115.0
900,-0.51414394,0.28782654,1.021019,-3.9719238,-1.8340943,-0.9143921,115.0
901,-0.51414394,0.28782654,1.021019,-3.5078247,-1.629126,-0.77102053,115.0
902,-0.61683273,0.31489563,1.5749588,-3.5078247,-1.629126,-0.77102053,115.0
903,-0.61683273,0.31489563,1.5749588,-2.8345094,-1.5420411,-0.6531372,115.0
904,-0.047531128,0.44412994,2.2206345,-2.8345094,-1.5420411,-0.6531372,115.0
905,-0.047531128,0.44412994,2.2206345,-2.3980224,-1.2786621,-0.21027832,115.0
906,0.85302734,0.5248718,2.6522293,-2.3980224,-1.2786621,-0.21027832,115.0
907,0.85302734,0.5248718,2.6522293,-2.4702394,-1.0981201,0.2814331,115.0
908,1.3142204,0.2837143,2.4233818,-2.4702394,-1.0981201,0.2814331,115.0
909,1.3142204,0.2837143,2.4233818,-2.6964478,-0.8666016,0.6924316,115.0
910,0.9314184,-0.16332245,1.7272415,-2.6964478,-0.8666016,0.6924316,115.0
911,0.9314184,-0.16332245,1.7272415,-2.8260133,-0.70305175,1.2096313,115.0
912,0.4828186,-0.3866043,1.4427071,-2.8260133,-0.70305175,1.2096313,115.0
913,0.4828186,-0.3866043,1.4427071,-2.8430054,-0.6945557,1.453894,115.0
914,-1.4764042,-1.2942047,1.2472076,-2.8430054,-0.6945557,1.453894,115.0
915,-1.4764042,-1.2942047,1.2472076,-3.0469117,-0.86766356,2.0985353,115.0
916,-1.4955769,-1.6374741,1.5958252,-3.0469117,-0.86766356,2.0985353,115.0
917,-1.4955769,-1.6374741,1.5958252,-2.9768188,-0.96218264,2.2822633,115.0
918,-1.5882826,-3.148346,2.1446648,-2.9768188,-0.96218264,2.2822633,115.0
919,-1.5882826,-3.148346,2.1446648,-1.8054199,-1.1098022,2.709192,115.0
920,-0.70496464,-2.9789047,1.8766556,-1.8054199,-1.1098022,2.709192,115.0
921,-0.70496464,-2.9789047,1.8766556,-1.3806152,-1.0705079,2.819641,115.0
922,0.5449276,-2.2794876,1.457756,-1.3806152,-1.0705079,2.819641,115.0
923,0.5449276,-2.2794876,1.457756,-0.23151855,-0.83686525,2.9311523,115.0
924,0.929533,-1.818573,1.2028008,-0.23151855,-0.83686525,2.9311523,115.0
925,0.929533,-1.818573,1.2028008,0.08283692,-0.72854006,2.9247804,115.0
926,0.75196457,-1.0129623,1.2439537,0.08283692,-0.72854006,2.9247804,115.0
927,0.75196457,-1.0129623,1.2439537,0.33665773,-0.6988037,2.8557496,115.0
928,0.81547546,-0.8122406,0.9364853,0.33665773,-0.6988037,2.8557496,115.0
929,0.81547546,-0.8122406,0.9364853,0.21558838,-0.7147339,2.802649,115.0
930,0.89868164,-0.16693115,0.5960007,0.21558838,-0.7147339,2.802649,115.0
931,0.89868164,-0.16693115,0.5960007,-0.6435791,-0.80181885,2.5488281,115.0
932,1.0718012,-0.20898438,0.48314667,-0.6435791,-0.80181885,2.5488281,115.0
933,1.0718012,-0.20898438,0.48314667,-0.991919,-0.904834,2.4574952,115.0
934,1.5017166,-0.364357,0.53738403,-0.991919,-0.904834,2.4574952,115.0
935,1.5017166,-0.364357,0.53738403,-1.8340943,-1.3338867,2.0326905,115.0
936,1.656745,-0.7098923,0.421875,-1.8340943,-1.3338867,2.0326905,115.0
937,1.656745,-0.7098923,0.421875,-2.0571167,-1.4199097,1.8776368,115.0
938,2.1607723,-1.4951096,-0.18206787,-2.0571167,-1.4199097,1.8776368,115.0
939,2.1607723,-1.4951096,-0.18206787,-2.709192,-1.445398,1.4804443,115.0
940,1.9157753,-1.6444397,-0.25777435,-2.709192,-1.445398,1.4804443,115.0
941,1.9157753,-1.6444397,-0.25777435,-2.8833618,-1.4634522,1.3710572,115.0
942,1.3393707,-1.9569321,-0.5066223,-2.8833618,-1.4634522,1.3710572,115.0
943,1.3393707,-1.9569321,-0.5066223,-3.0373535,-1.6333741,1.0662597,115.0
944,0.87918663,-2.2104187,-0.79761887,-3.0373535,-1.6333741,1.0662597,115.0
945,0.87918663,-2.2104187,-0.79761887,-2.8706176,-1.7863038,0.80606693,115.0
946,1.2465372,-2.138977,-1.1067123,-2.8706176,-1.7863038,0.80606693,115.0
947,1.2465372,-2.138977,-1.1067123,-2.7899048,-1.5908936,0.57242435,115.0
948,1.2923841,-1.8026276,-0.93367386,-2.7899048,-1.5908936,0.57242435,115.0
949,1.2923841,-1.8026276,-0.93367386,-2.6815796,-1.5197388,0.5161377,115.0
950,1.508151,-1.5654144,-0.76371384,-2.6815796,-1.5197388,0.5161377,115.0
951,1.508151,-1.5654144,-0.76371384,-1.8574585,-1.3869873,0.4078125,115.0
952,1.4024558,-1.3149643,-0.62410736,-1.8574585,-1.3869873,0.4078125,115.0
953,1.4024558,-1.3149643,-0.62410736,-1.621692,-1.3115845,0.4322388,115.0
954,1.464726,-0.8602829,-0.59301376,-1.621692,-1.3115845,0.4322388,115.0
955,1.464726,-0.8602829,-0.59301376,-1.3307008,-1.1289185,0.4715332,115.0
956,1.3139563,-0.43360138,-0.80778503,-1.3307008,-1.1289185,0.4715332,115.0
957,1.3139563,-0.43360138,-0.80778503,-1.1671509,-0.9239502,0.49489745,115.0
958,0.79865026,-0.31625366,-0.97208405,-1.1671509,-0.9239502,0.49489745,115.0
959,0.79865026,-0.31625366,-0.97208405,-1.0567017,-0.7688965,0.5671143,115.0
960,0.16549492,-0.4618683,-0.7327919,-1.0567017,-0.7688965,0.5671143,115.0
961,0.16549492,-0.4618683,-0.7327919,-0.9515625,-0.634021,0.58304447,115.0
962,-9.102505,1.8033066,-6.11343,-0.9515625,-0.634021,0.58304447,115.0
963,-9.102505,1.8033066,-6.11343,-0.9589966,-0.51826173,0.47684327,115.0
964,-7.2732754,1.6483002,-4.4291725,-0.9589966,-0.51826173,0.47684327,115.0
965,-7.2732754,1.6483002,-4.4291725,-1.1490967,-0.2516968,0.36427003,115.0
966,-5.9913254,1.5681915,-3.232193,-1.1490967,-0.2516968,0.36427003,115.0
967,-5.9913254,1.5681915,-3.232193,-1.3253907,-0.06584473,0.22727051,115.0
968,-5.394001,1.2368011,-2.2696533,-1.3253907,-0.06584473,0.22727051,115.0
969,-5.394001,1.2368011,-2.2696533,-1.2244996,0.1263794,0.14549561,115.0
970,-5.394001,1.2368011,-2.2696533,-1.2244996,0.1263794,0.14549561,115.0
971,-5.0001125,0.6700058,-1.3857193,-1.2244996,0.1263794,0.14549561,115.0
972,-5.0001125,0.6700058,-1.3857193,-0.9122681,0.16992188,0.0637207,115.0
973,-4.0691338,0.33621216,-0.7378845,-0.9122681,0.16992188,0.0637207,115.0
974,-4.0691338,0.33621216,-0.7378845,-0.74022216,0.12319336,-0.06903076,115.0
975,-2.4899502,0.49741364,-0.4939804,-0.74022216,0.12319336,-0.06903076,115.0
976,-2.4899502,0.49741364,-0.4939804,-0.8315552,0.270813,-0.24001466,115.0
977,-1.1780071,0.47231293,-0.4003601,-0.8315552,0.270813,-0.24001466,115.0
978,-1.1780071,0.47231293,-0.4003601,-0.7126099,0.38444826,-0.48640138,115.0
979,-0.6017189,-0.021903992,-0.09301758,-0.7126099,0.38444826,-0.48640138,115.0
980,-0.6017189,-0.021903992,-0.09301758,-0.32709962,0.4725952,-0.78376466,115.0
981,-0.43104553,-0.26701355,0.28626633,-0.32709962,0.4725952,-0.78376466,115.0
982,-0.43104553,-0.26701355,0.28626633,-0.19222413,0.6488892,-1.0492676,115.0
983,-0.5305424,-0.03690338,0.4172821,-0.19222413,0.6488892,-1.0492676,115.0
984,-0.5305424,-0.03690338,0.4172821,-0.21346436,0.8007569,-1.2552979,115.0
985,-0.8875809,0.08068085,0.44301605,-0.21346436,0.8007569,-1.2552979,115.0
986,-0.8875809,0.08068085,0.44301605,-0.2347046,0.87615967,-1.447522,115.0
987,-1.1677189,-0.13175964,0.7977257,-0.2347046,0.87615967,-1.447522,115.0
988,-1.1677189,-0.13175964,0.7977257,-0.06690674,0.90270996,-1.5940796,115.0
989,-1.0117149,-0.35329437,1.3034401,-0.06690674,0.90270996,-1.5940796,115.0
990,-1.0117149,-0.35329437,1.3034401,0.28355715,0.84111327,-1.7236451,115.0
991,-0.37773132,-0.26974487,1.4309464,0.28355715,0.84111327,-1.7236451,115.0
992,-0.37773132,-0.26974487,1.4309464,0.59897465,0.7062378,-1.8595825,115.0
993,0.28347206,0.24780273,1.075592,0.59897465,0.7062378,-1.8595825,115.0
994,0.28347206,0.24780273,1.075592,0.44923097,0.55543214,-1.989148,115.0
995,0.45214462,0.91580963,0.38436508,0.44923097,0.55543214,-1.989148,115.0
996,0.45214462,0.91580963,0.38436508,-0.02442627,0.4067505,-2.0401247,115.0
997,0.08208847,1.1251144,-0.28041077,-0.02442627,0.4067505,-2.0401247,115.0
998,0.08208847,1.1251144,-0.28041077,-0.452417,0.24851075,-2.0486207,115.0
999,-0.50082207,0.81788635,-0.5819588,-0.452417,0.24851075,-2.0486207,115.0
1000,-0.50082207,0.81788635,-0.5819588,-0.632959,0.12956543,-1.9848999,115.0
1001,-0.9541855,0.4471588,-0.5855255,-0.632959,0.12956543,-1.9848999,115.0
1002,-0.9541855,0.4471588,-0.5855255,-0.4959595,0.009558106,-1.8712647,115.0
1003,-1.089716,0.33421326,-0.44067383,-0.4959595,0.009558106,-1.8712647,115.0
1004,-1.089716,0.33421326,-0.44067383,-0.31860352,-0.10407715,-1.811792,115.0
1005,-0.8987751,0.5500488,-0.28649902,-0.31860352,-0.10407715,-1.811792,115.0
1006,-0.8987751,0.5500488,-0.28649902,-0.2824951,-0.20390625,-1.6684204,115.0
1007,-0.60556793,0.8523407,-0.26633453,-0.2824951,-0.20390625,-1.6684204,115.0
1008,-0.60556793,0.8523407,-0.26633453,-0.32922363,-0.25806886,-1.4772583,115.0
1009,-0.44658852,1.0158463,-0.33014297,-0.32922363,-0.25806886,-1.4772583,115.0
1010,-0.44658852,1.0158463,-0.33014297,-0.45029297,-0.35046387,-1.260608,115.0
1011,-0.45418167,0.9634323,-0.3484764,-0.45029297,-0.35046387,-1.260608,115.0
1012,-0.45418167,0.9634323,-0.3484764,-0.4609131,-0.40144044,-0.9133301,115.0
1013,-0.5696068,0.7271271,-0.23299026,-0.4609131,-0.40144044,-0.9133301,115.0
1014,-0.5696068,0.7271271,-0.23299026,-0.39294434,-0.51188964,-0.5246338,115.0
1015,-0.59209824,0.5676651,-0.0364151,-0.39294434,-0.51188964,-0.5246338,115.0
1016,-0.59209824,0.5676651,-0.0364151,-0.2984253,-0.65419924,-0.046728518,115.0
1017,-0.37692642,0.5833664,0.052520752,-0.2984253,-0.65419924,-0.046728518,115.0
1018,-0.37692642,0.5833664,0.052520752,-0.24001466,-0.74447024,0.49064943,115.0
1019,-0.3892975,0.64956665,-0.15863037,-0.24001466,-0.74447024,0.49064943,115.0
1020,-0.3892975,0.64956665,-0.15863037,-0.17416993,-0.6085327,1.1469727,115.0
1021,-1.1678467,0.5911255,-0.4294548,-0.17416993,-0.6085327,1.1469727,115.0
1022,-1.1678467,0.5911255,-0.4294548,-0.093457036,-0.65844727,1.7905518,115.0
1023,-2.1472054,0.25138855,-0.43268585,-0.093457036,-0.65844727,1.7905518,115.0
1024,-2.1472054,0.25138855,-0.43268585,0.26019287,-0.83474123,2.444751,115.0
1025,-2.2769089,-0.23957825,-0.14594269,0.26019287,-0.83474123,2.444751,115.0
1026,-2.2769089,-0.23957825,-0.14594269,0.7954468,-0.8602295,3.0458496,115.0
1027,-1.3306942,-0.5365143,0.24860382,0.7954468,-0.8602295,3.0458496,115.0
1028,-1.3306942,-0.5365143,0.24860382,1.359375,-0.74871826,3.451538,115.0
1029,0.14219475,-0.44396973,0.46601105,1.359375,-0.74871826,3.451538,115.0
1030,0.14219475,-0.44396973,0.46601105,1.713025,-0.5479981,3.628894,115.0
1031,1.4143906,-0.31196594,0.38816452,1.713025,-0.5479981,3.628894,115.0
1032,1.4143906,-0.31196594,0.38816452,2.0263183,-0.20709229,3.6904907,115.0
1033,2.0293636,-0.8279419,0.29517365,2.0263183,-0.20709229,3.6904907,115.0
1034,2.0293636,-0.8279419,0.29517365,2.7729127,0.20178223,3.5853517,115.0
1035,2.109562,-1.9673691,0.2268982,2.7729127,0.20178223,3.5853517,115.0
1036,2.109562,-1.9673691,0.2268982,4.2788453,0.5522461,3.3771973,115.0
1037,2.0654202,-2.3576965,-0.15845871,4.2788453,0.5522461,3.3771973,115.0
1038,2.0654202,-2.3576965,-0.15845871,5.262268,0.80606693,2.9269044,115.0
1039,2.050089,-0.9513092,-0.8222389,5.262268,0.80606693,2.9269044,115.0
1040,2.050089,-0.9513092,-0.8222389,4.495496,1.0014771,2.4702394,115.0
1041,1.9628849,0.85253143,-1.3021889,4.495496,1.0014771,2.4702394,115.0
1042,1.9628849,0.85253143,-1.3021889,3.3294067,0.9494385,1.9997681,115.0
1043,1.8705883,1.1523972,-1.2668724,3.3294067,0.9494385,1.9997681,115.0
1044,1.8705883,1.1523972,-1.2668724,2.7899048,0.7965088,1.5877075,115.0
1045,1.8905258,0.5000763,-0.80729675,2.7899048,0.7965088,1.5877075,115.0
1046,1.8905258,0.5000763,-0.80729675,2.165442,0.7699585,1.4124756,115.0
1047,1.8391781,0.32466888,-0.2133522,2.165442,0.7699585,1.4124756,115.0
1048,1.8391781,0.32466888,-0.2133522,0.8867798,0.8092529,1.4379638,115.0
1049,1.5001392,0.39138794,0.18338394,0.8867798,0.8092529,1.4379638,115.0
1050,1.5001392,0.39138794,0.18338394,-0.013806152,0.73703617,1.3806152,115.0
1051,0.9761009,-0.04840088,0.17300034,-0.013806152,0.73703617,1.3806152,115.0
1052,0.9761009,-0.04840088,0.17300034,0.0361084,0.6403931,1.3052124,115.0
1053,0.529171,-0.6819458,-0.06055069,0.0361084,0.6403931,1.3052124,115.0
1054,0.529171,-0.6819458,-0.06055069,0.34940186,0.51932377,1.1958252,115.0
1055,0.2791233,-0.70118713,-0.18403625,0.34940186,0.51932377,1.1958252,115.0
1056,0.2791233,-0.70118713,-0.18403625,0.06584473,0.4078125,1.2021973,115.0
1057,0.22537422,-0.38056183,-0.17170334,0.06584473,0.4078125,1.2021973,115.0
1058,0.22537422,-0.38056183,-0.17170334,-0.26019287,0.2442627,1.088562,115.0
1059,0.37561226,-0.41041565,-0.24413681,-0.26019287,0.2442627,1.088562,115.0
1060,0.37561226,-0.41041565,-0.24413681,-0.1985962,0.18903808,0.93138427,115.0
1061,0.53341293,-0.6417923,-0.43711853,-0.1985962,0.18903808,0.93138427,115.0
1062,0.53341293,-0.6417923,-0.43711853,0.013806152,0.35895997,0.80819094,115.0
1063,0.2869358,-0.738533,-0.5418587,0.013806152,0.35895997,0.80819094,115.0
1064,0.2869358,-0.738533,-0.5418587,0.22302246,0.46622315,0.6202149,115.0
1065,-0.32219696,-0.6923523,-0.50917053,0.22302246,0.46622315,0.6202149,115.0
1066,-0.32219696,-0.6923523,-0.50917053,0.4704712,0.37595215,0.34090576,115.0
1067,-0.32219696,-0.6923523,-0.50917053,0.4704712,0.37595215,0.34090576,116.0
1068,-0.7728214,-0.55124664,-0.47240067,0.4704712,0.37595215,0.34090576,116.0
1069,-0.7728214,-0.55124664,-0.47240067,0.6000366,0.3706421,0.053100586,116.0
1070,-1.0598717,-0.2901764,-0.45963287,0.6000366,0.3706421,0.053100586,116.0
1071,-1.0598717,-0.2901764,-0.45963287,0.41206056,0.61702883,-0.2166504,116.0
1072,-1.779501,-0.054260254,-0.25309372,0.41206056,0.61702883,-0.2166504,116.0
1073,-1.779501,-0.054260254,-0.25309372,0.25700685,0.58410645,-0.5363159,116.0
1074,-2.7785206,-0.10182953,0.16016006,0.25700685,0.58410645,-0.5363159,116.0
1075,-2.7785206,-0.10182953,0.16016006,0.5150757,0.2623169,-0.93138427,116.0
1076,-2.988697,-0.26931763,0.52976227,0.5150757,0.2623169,-0.93138427,116.0
1077,-2.988697,-0.26931763,0.52976227,1.0046631,-0.23364258,-1.2521118,116.0
1078,-1.7506504,-0.19445801,0.5520935,1.0046631,-0.23364258,-1.2521118,116.0
1079,-1.7506504,-0.19445801,0.5520935,1.4719483,-0.725354,-1.5250489,116.0
1080,0.25836754,0.1692276,0.07264328,1.4719483,-0.725354,-1.5250489,116.0
1081,0.25836754,0.1692276,0.07264328,1.8744507,-0.9218262,-1.81073,116.0
1082,1.5922279,0.5726013,-0.6504173,1.8744507,-0.9218262,-1.81073,116.0
1083,1.5922279,0.5726013,-0.6504173,2.2270386,-0.7975708,-2.0273805,116.0
1084,1.2780418,0.7605133,-1.1403427,2.2270386,-0.7975708,-2.0273805,116.0
1085,1.2780418,0.7605133,-1.1403427,2.4734254,-0.8687256,-2.16969,116.0
1086,-0.2753334,0.8502197,-1.2965393,2.4734254,-0.8687256,-2.16969,116.0
1087,-0.2753334,0.8502197,-1.2965393,2.4585571,-1.4092896,-2.2450929,116.0
1088,-1.5441322,1.079956,-1.3955078,2.4585571,-1.4092896,-2.2450929,116.0
1089,-1.5441322,1.079956,-1.3955078,1.9126831,-1.9509156,-2.2833252,116.0
1090,-1.6109905,1.1580353,-1.4678955,1.9126831,-1.9509156,-2.2833252,116.0
1091,-1.6109905,1.1580353,-1.4678955,1.0662597,-2.2461548,-2.2737672,116.0
1092,-0.8357773,0.8075714,-1.3123283,1.0662597,-2.2461548,-2.2737672,116.0
1093,-0.8357773,0.8075714,-1.3123283,0.3812622,-2.3884645,-2.2546508,116.0
1094,0.10791588,0.27303314,-0.96245956,0.3812622,-2.3884645,-2.2546508,116.0
1095,0.10791588,0.27303314,-0.96245956,-0.083898924,-2.3746583,-2.253589,116.0
1096,0.85912323,-0.12193298,-0.6669426,-0.083898924,-2.3746583,-2.253589,116.0
1097,0.85912323,-0.12193298,-0.6669426,-0.44179687,-2.2004883,-2.2387207,116.0
1098,1.2343082,-0.31594086,-0.49650574,-0.44179687,-2.2004883,-2.2387207,116.0
1099,1.2343082,-0.31594086,-0.49650574,-0.63933104,-1.9126831,-2.1176515,116.0
1100,1.1308422,-0.39080048,-0.39461517,-0.63933104,-1.9126831,-2.1176515,116.0
1101,1.1308422,-0.39080048,-0.39461517,-0.6924316,-1.622754,-1.9179932,116.0
1102,0.6741562,-0.493721,-0.33676147,-0.6924316,-1.622754,-1.9179932,116.0
1103,0.6741562,-0.493721,-0.33676147,-0.5649902,-1.4252198,-1.713025,116.0
1104,0.15444946,-0.7004242,-0.3401718,-0.5649902,-1.4252198,-1.713025,116.0
1105,0.15444946,-0.7004242,-0.3401718,-0.21346436,-1.2287476,-1.4315919,116.0
1106,-0.23095703,-0.8969345,-0.39039993,-0.21346436,-1.2287476,-1.4315919,116.0
1107,-0.23095703,-0.8969345,-0.39039993,0.26868898,-1.0439576,-1.0651978,116.0
1108,-0.4958248,-0.9213791,-0.39658356,0.26868898,-1.0439576,-1.0651978,116.0
1109,-0.4958248,-0.9213791,-0.39658356,0.66588134,-0.8644776,-0.7083618,116.0
1110,-0.7176933,-0.72364044,-0.29440308,0.66588134,-0.8644776,-0.7083618,116.0
1111,-0.7176933,-0.72364044,-0.29440308,0.8326172,-0.61702883,-0.39506838,116.0
1112,-1.0040741,-0.37260437,-0.16832352,0.8326172,-0.61702883,-0.39506838,116.0
1113,-1.0040741,-0.37260437,-0.16832352,0.6488892,-0.3812622,-0.07434082,116.0
1114,-1.2443848,-0.03263092,-0.07181549,0.6488892,-0.3812622,-0.07434082,116.0
1115,-1.2443848,-0.03263092,-0.07181549,0.18160401,-0.18585205,0.1444336,116.0
1116,-1.1702881,0.18903351,0.04771042,0.18160401,-0.18585205,0.1444336,116.0
1117,-1.1702881,0.18903351,0.04771042,-0.36427003,0.08071289,0.37595215,116.0
1118,-0.863245,0.289505,0.20887184,-0.36427003,0.08071289,0.37595215,116.0
1119,-0.863245,0.289505,0.20887184,-0.7051758,0.44923097,0.6616333,116.0
1120,-0.8476887,0.2801895,0.22599602,-0.7051758,0.44923097,0.6616333,116.0
1121,-0.8476887,0.2801895,0.22599602,-0.77102053,0.94731444,1.0195312,116.0
1122,-1.5582047,0.1588974,0.039489746,-0.77102053,0.94731444,1.0195312,116.0
1123,-1.5582047,0.1588974,0.039489746,-0.67331547,1.4018555,1.4369019,116.0
1124,-2.5096264,-0.07447815,-0.044128418,-0.67331547,1.4018555,1.4369019,116.0
1125,-2.5096264,-0.07447815,-0.044128418,-0.362146,1.6429322,1.8224121,116.0
1126,-2.4006329,-0.35484314,0.24713135,-0.362146,1.6429322,1.8224121,116.0
1127,-2.4006329,-0.35484314,0.24713135,0.16992188,1.9689697,2.1611938,116.0
1128,-0.7765732,-0.65309143,0.8862419,0.16992188,1.9689697,2.1611938,116.0
1129,-0.7765732,-0.65309143,0.8862419,1.0142212,2.5042236,2.4872315,116.0
1130,1.2380924,-1.0335617,1.533371,1.0142212,2.5042236,2.4872315,116.0
1131,1.2380924,-1.0335617,1.533371,2.1431396,3.0511596,2.6327271,116.0
1132,2.4408264,-1.5432434,1.9523926,2.1431396,3.0511596,2.6327271,116.0
1133,2.4408264,-1.5432434,1.9523926,3.4632204,3.448352,2.5456421,116.0
1134,2.6675644,-2.081688,2.0467758,3.4632204,3.448352,2.5456421,116.0
1135,2.6675644,-2.081688,2.0467758,4.781177,3.4802125,2.2918212,116.0
1136,2.472248,-2.353531,1.4923515,4.781177,3.4802125,2.2918212,116.0
1137,2.472248,-2.353531,1.4923515,5.6637087,3.2263916,1.8818848,116.0
1138,2.2465115,-1.9144211,0.2706375,5.6637087,3.2263916,1.8818848,116.0
1139,2.2465115,-1.9144211,0.2706375,5.550073,2.897168,1.4369019,116.0
1140,1.9901657,-0.8311081,-0.88459015,5.550073,2.897168,1.4369019,116.0
1141,1.9901657,-0.8311081,-0.88459015,4.495496,2.269519,1.0917481,116.0
1142,1.7708683,0.31519318,-1.2710648,4.495496,2.269519,1.0917481,116.0
1143,1.7708683,0.31519318,-1.2710648,2.8631837,1.5505371,0.8251831,116.0
1144,1.7841625,1.0949631,-0.92471313,2.8631837,1.5505371,0.8251831,116.0
1145,1.7841625,1.0949631,-0.92471313,1.1363525,0.89421386,0.6860596,116.0
1146,2.041233,1.2958221,-0.41838455,1.1363525,0.89421386,0.6860596,116.0
1147,2.041233,1.2958221,-0.41838455,-0.39294434,0.47790527,0.48427734,116.0
1148,2.2968903,0.8436508,-0.24190903,-0.39294434,0.47790527,0.48427734,116.0
1149,2.2968903,0.8436508,-0.24190903,-1.4974365,0.2814331,0.22514649,116.0
1150,2.279029,0.13058472,-0.40018082,-1.4974365,0.2814331,0.22514649,116.0
1151,2.279029,0.13058472,-0.40018082,-2.2397828,0.19434814,-0.0010620117,116.0
1152,1.9183035,-0.31050873,-0.53650284,-2.2397828,0.19434814,-0.0010620117,116.0
1153,1.9183035,-0.31050873,-0.53650284,-2.7622926,0.2166504,-0.08602295,116.0
1154,1.2573481,-0.41539764,-0.27153778,-2.7622926,0.2166504,-0.08602295,116.0
1155,1.2573481,-0.41539764,-0.27153778,-3.1244385,0.20284425,-0.098767094,116.0
1156,0.3905344,-0.4640808,0.29680634,-3.1244385,0.20284425,-0.098767094,116.0
1157,0.3905344,-0.4640808,0.29680634,-3.3623292,0.13699952,-0.06584473,116.0
1158,-0.3412714,-0.68211365,0.7225647,-3.3623292,0.13699952,-0.06584473,116.0
1159,-0.3412714,-0.68211365,0.7225647,-3.3198488,0.1178833,-0.058410645,116.0
1160,-0.61901283,-1.0615845,0.85090256,-3.3198488,0.1178833,-0.058410645,116.0
1161,-0.61901283,-1.0615845,0.85090256,-2.7421143,0.3175415,0.31010744,116.0
1162,-0.56143284,-1.3846283,0.83901215,-2.7421143,0.3175415,0.31010744,116.0
1163,-0.56143284,-1.3846283,0.83901215,-1.5908936,0.68924564,0.7349121,116.0
1164,-0.5245981,-1.4692612,0.87062454,-1.5908936,0.68924564,0.7349121,116.0
1165,-0.5245981,-1.4692612,0.87062454,-0.033984374,0.99510497,0.8772217,116.0
1166,-0.62210846,-1.3140945,1.0255165,-0.033984374,0.99510497,0.8772217,116.0
1167,-0.62210846,-1.3140945,1.0255165,1.5792115,1.2276856,0.81987303,116.0
1168,-0.77532387,-0.94400024,1.0360374,1.5792115,1.2276856,0.81987303,116.0
1169,-0.77532387,-0.94400024,1.0360374,2.805835,1.177771,0.7072998,116.0
1170,-1.0121784,-0.29897308,0.5892525,2.805835,1.177771,0.7072998,116.0
1171,-1.0121784,-0.29897308,0.5892525,3.177539,1.270166,0.4991455,116.0
1172,-1.8130875,0.5414963,0.08668518,3.177539,1.270166,0.4991455,116.0
1173,-1.8130875,0.5414963,0.08668518,2.806897,1.0938721,0.32922363,116.0
1174,-1.8130875,0.5414963,0.08668518,2.806897,1.0938721,0.32922363,115.0
1175,-3.2724915,1.2313538,0.06348801,2.806897,1.0938721,0.32922363,115.0
1176,-3.2724915,1.2313538,0.06348801,1.9211792,0.2803711,0.06265869,115.0
1177,-4.090601,1.3849258,0.21601105,1.9211792,0.2803711,0.06265869,115.0
1178,-4.090601,1.3849258,0.21601105,0.99510497,-1.0906861,-0.24320069,115.0
1179,-2.9665852,0.94418335,-0.24258423,0.99510497,-1.0906861,-0.24320069,115.0
1180,-2.9665852,0.94418335,-0.24258423,0.3717041,-2.0316284,-0.61915284,115.0
1181,-0.7444954,0.16471863,-1.3376465,0.3717041,-2.0316284,-0.61915284,115.0
1182,-0.7444954,0.16471863,-1.3376465,0.36108398,-2.4224489,-1.0067872,115.0
1183,0.5582485,-0.43839264,-2.234768,0.36108398,-2.4224489,-1.0067872,115.0
1184,0.5582485,-0.43839264,-2.234768,0.7625244,-2.7357423,-1.358313,115.0
1185,0.20145607,-0.47063446,-2.5160713,0.7625244,-2.7357423,-1.358313,115.0
1186,0.20145607,-0.47063446,-2.5160713,1.1629028,-3.2009034,-1.5781494,115.0
1187,-0.9768238,-0.024787903,-2.2567902,1.1629028,-3.2009034,-1.5781494,115.0
1188,-0.9768238,-0.024787903,-2.2567902,1.1034302,-3.8370483,-1.7289551,115.0
1189,-1.7631359,0.54115295,-1.6281967,1.1034302,-3.8370483,-1.7289551,115.0
1190,-1.7631359,0.54115295,-1.6281967,0.44923097,-4.4572635,-1.8340943,115.0
1191,-1.4313698,0.7712631,-0.84718704,0.44923097,-4.4572635,-1.8340943,115.0
1192,-1.4313698,0.7712631,-0.84718704,-0.6000366,-4.6739135,-1.9519776,115.0
1193,-0.11854553,0.4741974,-0.14437485,-0.6000366,-4.6739135,-1.9519776,115.0
1194,-0.11854553,0.4741974,-0.14437485,-1.5781494,-4.4816895,-2.0422485,115.0
1195,1.3947144,-0.015708923,0.37882423,-1.5781494,-4.4816895,-2.0422485,115.0
1196,1.3947144,-0.015708923,0.37882423,-2.1919923,-4.0229006,-2.073047,115.0
1197,2.3201904,-0.23112488,0.57834053,-2.1919923,-4.0229006,-2.073047,115.0
1198,2.3201904,-0.23112488,0.57834053,-2.5764406,-3.42074,-1.9795898,115.0
1199,2.3059444,-0.12470245,0.3299446,-2.5764406,-3.42074,-1.9795898,115.0
1200,2.3059444,-0.12470245,0.3299446,-2.795215,-2.8334472,-1.8054199,115.0
1201,1.5773125,-0.029594421,-0.20273209,-2.795215,-2.8334472,-1.8054199,115.0
1202,1.5773125,-0.029594421,-0.20273209,-2.6603394,-2.3619142,-1.6588624,115.0
1203,0.6690521,-0.017059326,-0.61725235,-2.6603394,-2.3619142,-1.6588624,115.0
1204,0.6690521,-0.017059326,-0.61725235,-2.1134033,-2.0008302,-1.5016845,115.0
1205,-0.03229904,0.013999939,-0.69366646,-2.1134033,-2.0008302,-1.5016845,115.0
1206,-0.03229904,0.013999939,-0.69366646,-1.273352,-1.713025,-1.2839721,115.0
1207,-0.49253845,0.007255554,-0.54730415,-1.273352,-1.713025,-1.2839721,115.0
1208,-0.49253845,0.007255554,-0.54730415,-0.3727661,-1.4751343,-1.0163453,115.0
1209,-0.8089962,-0.03475952,-0.40042877,-0.3727661,-1.4751343,-1.0163453,115.0
1210,-0.8089962,-0.03475952,-0.40042877,0.3334717,-1.2436157,-0.62127686,115.0
1211,-1.0894451,-0.005104065,-0.32561684,0.3334717,-1.2436157,-0.62127686,115.0
1212,-1.0894451,-0.005104065,-0.32561684,0.6064087,-0.9632446,-0.11257324,115.0
1213,-1.391283,0.09194183,-0.24121857,0.6064087,-0.9632446,-0.11257324,115.0
1214,-1.391283,0.09194183,-0.24121857,0.50445557,-0.6403931,0.31966552,115.0
1215,-1.4713764,0.27802277,-0.017658234,0.50445557,-0.6403931,0.31966552,115.0
1216,-1.4713764,0.27802277,-0.017658234,0.12531738,-0.2527588,0.61915284,115.0
1217,-1.0672264,0.5908356,0.36413193,0.12531738,-0.2527588,0.61915284,115.0
1218,-1.0672264,0.5908356,0.36413193,-0.362146,0.2166504,0.8623535,115.0
1219,-0.4580536,0.9236679,0.6144638,-0.362146,0.2166504,0.8623535,115.0
1220,-0.4580536,0.9236679,0.6144638,-0.8007569,0.91757816,1.1565307,115.0
1221,-0.46770096,1.1017532,0.5082321,-0.8007569,0.91757816,1.1565307,115.0
1222,-0.46770096,1.1017532,0.5082321,-1.1246704,1.7034668,1.5494751,115.0
1223,-1.2828522,1.0365753,0.3685608,-1.1246704,1.7034668,1.5494751,115.0
1224,-1.2828522,1.0365753,0.3685608,-1.084314,2.3194337,2.005078,115.0
1225,-2.0077267,0.7379379,0.5240841,-1.084314,2.3194337,2.005078,115.0
1226,-2.0077267,0.7379379,0.5240841,-0.6287109,2.89292,2.4989135,115.0
1227,-1.8284607,0.22117615,0.98013306,-0.6287109,2.89292,2.4989135,115.0
1228,-1.8284607,0.22117615,0.98013306,0.13168946,3.4589722,3.0097413,115.0
1229,-0.8881836,-0.33745575,1.5431519,0.13168946,3.4589722,3.0097413,115.0
1230,-0.8881836,-0.33745575,1.5431519,1.0259033,4.0292726,3.429236,115.0
1231,0.008018494,-0.71819305,1.9067268,1.0259033,4.0292726,3.429236,115.0
1232,0.008018494,-0.71819305,1.9067268,2.0093262,4.313892,3.536499,115.0
1233,0.46754837,-0.80378723,1.798893,2.0093262,4.313892,3.536499,115.0
1234,0.46754837,-0.80378723,1.798893,2.800525,4.1822023,3.1743531,115.0
1235,0.70293236,-0.4383316,1.2650642,2.800525,4.1822023,3.1743531,115.0
1236,0.70293236,-0.4383316,1.2650642,3.0564697,3.6819947,2.6826417,115.0
1237,1.049015,0.37854767,0.66179657,3.0564697,3.6819947,2.6826417,115.0
1238,1.049015,0.37854767,0.66179657,2.5084717,2.8291993,2.1431396,115.0
1239,1.6630898,1.379242,0.1421814,2.5084717,2.8291993,2.1431396,115.0
1240,1.6630898,1.379242,0.1421814,1.1533448,1.9190552,1.6981567,115.0
1241,2.5689964,2.0573502,-0.39294434,1.1533448,1.9190552,1.6981567,115.0
1242,2.5689964,2.0573502,-0.39294434,-0.57242435,1.1618408,1.3976074,115.0
1243,3.5160122,2.0295334,-0.8970604,-0.57242435,1.1618408,1.3976074,115.0
1244,3.5160122,2.0295334,-0.8970604,-1.9817139,0.7423462,1.1990112,115.0
1245,4.034258,1.3822708,-1.1961746,-1.9817139,0.7423462,1.1990112,115.0
1246,4.034258,1.3822708,-1.1961746,-2.8238893,0.7168579,1.0057251,115.0
1247,3.7319965,0.4929657,-1.1923523,-2.8238893,0.7168579,1.0057251,115.0
1248,3.7319965,0.4929657,-1.1923523,-3.085144,0.811377,0.75509036,115.0
1249,2.6317272,-0.19836426,-0.9534073,-3.085144,0.811377,0.75509036,115.0
1250,2.6317272,-0.19836426,-0.9534073,-3.0267334,0.7306641,0.5479981,115.0
1251,1.2684441,-0.59804535,-0.48575974,-3.0267334,0.7306641,0.5479981,115.0
1252,1.2684441,-0.59804535,-0.48575974,-2.7495484,0.5586182,0.44073486,115.0
1253,0.11333847,-0.86276245,0.2893448,-2.7495484,0.5586182,0.44073486,115.0
1254,0.11333847,-0.86276245,0.2893448,-2.2950075,0.2262085,0.37595215,115.0
1255,-0.5740509,-1.0917511,1.11689,-2.2950075,0.2262085,0.37595215,115.0
1256,-0.5740509,-1.0917511,1.11689,-1.6811646,-0.15186767,0.46728516,115.0
1257,-0.49980354,-1.241394,1.5144615,-1.6811646,-0.15186767,0.46728516,115.0
1258,-0.49980354,-1.241394,1.5144615,-0.9409424,-0.1274414,0.66269535,115.0
1259,0.07425308,-1.3071136,1.4871788,-0.9409424,-0.1274414,0.66269535,115.0
1260,0.07425308,-1.3071136,1.4871788,0.02442627,0.32816163,1.0365235,115.0
1261,0.37202454,-1.267662,1.4640961,0.02442627,0.32816163,1.0365235,115.0
1262,0.37202454,-1.267662,1.4640961,1.0938721,0.74871826,1.3391968,115.0
1263,0.17259598,-1.2082367,1.5020638,1.0938721,0.74871826,1.3391968,115.0
1264,0.17259598,-1.2082367,1.5020638,2.1218994,1.0120972,1.3275146,115.0
1265,-0.12712097,-1.1721191,1.308342,2.1218994,1.0120972,1.3275146,115.0
1266,-0.12712097,-1.1721191,1.308342,2.7676027,1.0694458,1.1023682,115.0
1267,-0.33122635,-0.9898071,0.6322708,2.7676027,1.0694458,1.1023682,115.0
1268,-0.33122635,-0.9898071,0.6322708,2.7389283,0.94412845,0.8336792,115.0
1269,-0.33122635,-0.9898071,0.6322708,2.7389283,0.94412845,0.8336792,115.0
1270,-0.7771511,-0.7005081,-0.28417206,2.7389283,0.94412845,0.8336792,115.0
1271,-0.7771511,-0.7005081,-0.28417206,2.4351928,0.95793456,0.49489745,115.0
1272,-1.8904228,-0.51659393,-0.86492157,2.4351928,0.95793456,0.49489745,115.0
1273,-1.8904228,-0.51659393,-0.86492157,2.0974731,0.17841797,0.020178223,115.0
1274,-2.962326,-0.4115448,-1.0910339,2.0974731,0.17841797,0.020178223,115.0
1275,-2.962326,-0.4115448,-1.0910339,1.5569092,-0.8782837,-0.53100586,115.0
1276,-2.8433228,-0.17279053,-1.2809219,1.5569092,-0.8782837,-0.53100586,115.0
1277,-2.8433228,-0.17279053,-1.2809219,0.9515625,-1.8648926,-1.0503296,115.0
1278,-1.5330448,0.15055084,-1.5690384,0.9515625,-1.8648926,-1.0503296,115.0
1279,-1.5330448,0.15055084,-1.5690384,0.45135498,-2.3587282,-1.5515991,115.0
1280,-0.28602982,0.14655304,-1.779644,0.45135498,-2.3587282,-1.5515991,115.0
1281,-0.28602982,0.14655304,-1.779644,0.25913087,-2.5785644,-2.0974731,115.0
1282,-0.102212906,-0.15940094,-1.7028427,0.25913087,-2.5785644,-2.0974731,115.0
1283,-0.102212906,-0.15940094,-1.7028427,0.3971924,-3.0224855,-2.4713013,115.0
1284,-0.72426224,-0.38774872,-1.5010452,0.3971924,-3.0224855,-2.4713013,115.0
1285,-0.72426224,-0.38774872,-1.5010452,0.66588134,-3.341089,-2.89292,115.0
1286,-1.5895042,-0.47730255,-1.4509926,0.66588134,-3.341089,-2.89292,115.0
1287,-1.5895042,-0.47730255,-1.4509926,0.99510497,-3.5513673,-3.263562,115.0
1288,-2.5514126,-0.51564026,-1.390665,0.99510497,-3.5513673,-3.263562,115.0
1289,-2.5514126,-0.51564026,-1.390665,1.4687623,-3.896521,-3.4791505,115.0
1290,-3.22299,-0.28536224,-1.0386925,1.4687623,-3.896521,-3.4791505,115.0
1291,-3.22299,-0.28536224,-1.0386925,1.806482,-4.303272,-3.5811036,115.0
1292,-2.8290749,0.265419,-0.4483986,1.806482,-4.303272,-3.5811036,115.0
1293,-2.8290749,0.265419,-0.4483986,1.720459,-4.3616824,-3.6405761,115.0
1294,-1.3450718,0.6345444,0.13118553,1.720459,-4.3616824,-3.6405761,115.0
1295,-1.3450718,0.6345444,0.13118553,1.3030884,-4.049451,-3.5970337,115.0
1296,0.21606827,0.5289078,0.526762,1.3030884,-4.049451,-3.5970337,115.0
1297,0.21606827,0.5289078,0.526762,0.7072998,-3.6862428,-3.349585,115.0
1298,1.145071,0.15957642,0.6415882,0.7072998,-3.6862428,-3.349585,115.0
1299,1.145071,0.15957642,0.6415882,0.15930176,-3.3092287,-3.0373535,115.0
1300,1.5163498,-0.09867096,0.53442574,0.15930176,-3.3092287,-3.0373535,115.0
1301,1.5163498,-0.09867096,0.53442574,-0.32072756,-2.9173462,-2.7346802,115.0
1302,1.6462345,-0.17765045,0.46520996,-0.32072756,-2.9173462,-2.7346802,115.0
1303,1.6462345,-0.17765045,0.46520996,-0.540564,-2.5626342,-2.2971313,115.0
1304,1.6795979,-0.26353455,0.49334717,-0.540564,-2.5626342,-2.2971313,115.0
1305,1.6795979,-0.26353455,0.49334717,-0.47365722,-2.2769532,-1.8670167,115.0
1306,1.6823978,-0.3935318,0.3622055,-0.47365722,-2.2769532,-1.8670167,115.0
1307,1.6823978,-0.3935318,0.3622055,-0.26762697,-1.9572877,-1.4687623,115.0
1308,1.603878,-0.39071655,0.11169052,-0.26762697,-1.9572877,-1.4687623,115.0
1309,1.603878,-0.39071655,0.11169052,-0.029736329,-1.5600952,-0.99722904,115.0
1310,1.3340187,-0.13802338,0.031967163,-0.029736329,-1.5600952,-0.99722904,115.0
1311,1.3340187,-0.13802338,0.031967163,0.08071289,-1.1544068,-0.50233155,115.0
1312,0.97167015,0.23862457,0.18656158,0.08071289,-1.1544068,-0.50233155,115.0
1313,0.97167015,0.23862457,0.18656158,0.0021240234,-0.7827026,-0.10513916,115.0
1314,0.8694992,0.5333786,0.4454422,0.0021240234,-0.7827026,-0.10513916,115.0
1315,0.8694992,0.5333786,0.4454422,-0.24957275,-0.32178956,0.31966552,115.0
1316,1.1153374,0.6992035,0.70378876,-0.24957275,-0.32178956,0.31966552,115.0
1317,1.1153374,0.6992035,0.70378876,-0.64570314,0.30267334,0.8219971,115.0
1318,1.1416836,0.71645355,0.61766815,-0.64570314,0.30267334,0.8219971,115.0
1319,1.1416836,0.71645355,0.61766815,-1.1278565,1.1204224,1.4751343,115.0
1320,0.20310593,0.5766907,0.06675339,-1.1278565,1.1204224,1.4751343,115.0
1321,0.20310593,0.5766907,0.06675339,-1.6386842,2.0433106,2.1973023,115.0
1322,-1.7632713,0.43188477,-0.4552536,-1.6386842,2.0433106,2.1973023,115.0
1323,-1.7632713,0.43188477,-0.4552536,-1.992334,2.8653076,2.8631837,115.0
1324,-3.9793797,0.25669098,-0.36725616,-1.992334,2.8653076,2.8631837,115.0
1325,-3.9793797,0.25669098,-0.36725616,-2.0284424,3.6724365,3.4759643,115.0
1326,-5.268343,-0.24830627,0.4972,-2.0284424,3.6724365,3.4759643,115.0
1327,-5.268343,-0.24830627,0.4972,-1.3986695,4.421155,4.1142335,115.0
1328,-4.8784924,-1.0466461,1.5308876,-1.3986695,4.421155,4.1142335,115.0
1329,-4.8784924,-1.0466461,1.5308876,-0.12956543,5.1146483,4.6218753,115.0
1330,-3.282238,-1.5360947,1.8864517,-0.12956543,5.1146483,4.6218753,115.0
1331,-3.282238,-1.5360947,1.8864517,1.3699951,5.071106,4.696216,115.0
1332,-1.238266,-1.1229935,1.2246895,1.3699951,5.071106,4.696216,115.0
1333,-1.238266,-1.1229935,1.2246895,2.3810303,4.324512,4.1482177,115.0
1334,0.8660641,0.06704712,-0.0836525,2.3810303,4.324512,4.1482177,115.0
1335,0.8660641,0.06704712,-0.0836525,2.453247,3.525879,3.4706542,115.0
1336,2.553238,1.5147934,-1.2947922,2.453247,3.525879,3.4706542,115.0
1337,2.553238,1.5147934,-1.2947922,1.3774292,3.0925782,2.9035401,115.0
1338,3.322485,2.4490204,-1.8459892,1.3774292,3.0925782,2.9035401,115.0
1339,3.322485,2.4490204,-1.8459892,-0.3164795,2.704944,2.5732543,115.0
1340,3.2591972,2.2426987,-1.7592506,-0.3164795,2.704944,2.5732543,115.0
1341,3.2591972,2.2426987,-1.7592506,-1.8245362,2.1208375,2.3194337,115.0
1342,2.9364586,1.2142639,-1.4169579,-1.8245362,2.1208375,2.3194337,115.0
1343,2.9364586,1.2142639,-1.4169579,-2.8238893,1.5887696,2.0199463,115.0
1344,2.72468,0.2162323,-1.0845909,-2.8238893,1.5887696,2.0199463,115.0
1345,2.72468,0.2162323,-1.0845909,-3.5184448,1.2786621,1.6631104,115.0
1346,2.4597988,-0.2367096,-0.70848083,-3.5184448,1.2786621,1.6631104,115.0
1347,2.4597988,-0.2367096,-0.70848083,-4.0069704,1.0428956,1.3243287,115.0
1348,1.9802418,-0.21903992,-0.21229172,-4.0069704,1.0428956,1.3243287,115.0
1349,1.9802418,-0.21903992,-0.21229172,-4.325574,0.7965088,1.1066163,115.0
1350,1.4458637,-0.09803009,0.35578918,-4.325574,0.7965088,1.1066163,115.0
1351,1.4458637,-0.09803009,0.35578918,-4.4073486,0.57454836,0.8241211,115.0
1352,1.1155663,-0.16532898,0.881958,-4.4073486,0.57454836,0.8241211,115.0
1353,1.1155663,-0.16532898,0.881958,-4.0908694,0.4800293,0.7657105,115.0
1354,1.1102638,-0.46759796,1.2663193,-4.0908694,0.4800293,0.7657105,115.0
1355,1.1102638,-0.46759796,1.2663193,-3.2465699,0.5331299,0.90270996,115.0
1356,1.3523216,-0.8147049,1.412529,-3.2465699,0.5331299,0.90270996,115.0
1357,1.3523216,-0.8147049,1.412529,-1.9997681,0.7582764,1.2075074,115.0
1358,1.5985813,-1.0613708,1.344429,-1.9997681,0.7582764,1.2075074,115.0
1359,1.5985813,-1.0613708,1.344429,-0.3069214,1.1342286,1.5154908,115.0
1360,1.5053921,-1.1906738,1.2640686,-0.3069214,1.1342286,1.5154908,115.0
1361,1.5053921,-1.1906738,1.2640686,1.5027466,1.4326538,1.5770874,115.0
1362,1.0212078,-1.1935806,1.3450089,1.5027466,1.4326538,1.5770874,115.0
1363,1.0212078,-1.1935806,1.3450089,2.998059,1.448584,1.442212,115.0
1364,0.5851183,-1.0085373,1.5069771,2.998059,1.448584,1.442212,115.0
1365,0.5851183,-1.0085373,1.5069771,3.7881958,1.1512207,1.0981201,115.0
1366,0.40141964,-0.52897644,1.4082298,3.7881958,1.1512207,1.0981201,115.0
1367,0.40141964,-0.52897644,1.4082298,3.6108398,1.0471436,0.63614506,115.0
1368,-0.23612785,0.0921402,1.1971283,3.6108398,1.0471436,0.63614506,115.0
1369,-0.23612785,0.0921402,1.1971283,2.7676027,0.95793456,0.12319336,115.0
1370,-1.8130836,0.5879593,1.1258774,2.7676027,0.95793456,0.12319336,115.0
1371,-1.8130836,0.5879593,1.1258774,1.7809937,0.118945315,-0.4991455,115.0
1372,-3.2324867,0.99347687,0.82222366,1.7809937,0.118945315,-0.4991455,115.0
1373,-3.2324867,0.99347687,0.82222366,0.8687256,-0.9420044,-1.1820191,115.0
1374,-3.2881508,1.3683319,-0.0636673,0.8687256,-0.9420044,-1.1820191,115.0
1375,-3.2881508,1.3683319,-0.0636673,0.15717773,-1.8627685,-1.8171021,115.0
1376,-3.2881508,1.3683319,-0.0636673,0.15717773,-1.8627685,-1.8171021,115.0
1377,-2.1952667,1.3598251,-1.2986145,0.15717773,-1.8627685,-1.8171021,115.0
1378,-2.1952667,1.3598251,-1.2986145,-0.07540283,-2.4298828,-2.3852785,115.0
1379,-1.159729,0.86859894,-2.2155151,-0.07540283,-2.4298828,-2.3852785,115.0
1380,-1.159729,0.86859894,-2.2155151,0.16354981,-2.8238893,-2.8260133,115.0
1381,-1.0979004,0.51631165,-2.2269173,0.16354981,-2.8238893,-2.8260133,115.0
1382,-1.0979004,0.51631165,-2.2269173,0.41737062,-3.0171754,-2.977881,115.0
1383,-1.8217163,-0.07395935,-2.1543503,0.41737062,-3.0171754,-2.977881,115.0
1384,-1.8217163,-0.07395935,-2.1543503,1.4114136,-3.5577393,-3.3931274,115.0
1385,-2.5372925,-0.2925644,-1.7606277,1.4114136,-3.5577393,-3.3931274,115.0
1386,-2.5372925,-0.2925644,-1.7606277,1.7884277,-3.7690797,-3.4950807,115.0
1387,-4.6112423,-0.26264954,-1.6304245,1.7884277,-3.7690797,-3.4950807,115.0
1388,-4.6112423,-0.26264954,-1.6304245,2.9545166,-4.6728516,-3.6607544,115.0
1389,-4.7834644,-0.36147308,-1.4011421,2.9545166,-4.6728516,-3.6607544,115.0
1390,-4.7834644,-0.36147308,-1.4011421,3.1998413,-4.981897,-3.612964,115.0
1391,-3.5244293,0.9463043,-1.8001003,3.1998413,-4.981897,-3.612964,115.0
1392,-3.5244293,0.9463043,-1.8001003,2.895044,-5.363159,-3.5407472,115.0
1393,-2.381298,0.77763367,-1.3383484,2.895044,-5.363159,-3.5407472,115.0
1394,-2.381298,0.77763367,-1.3383484,2.4766114,-5.2930665,-3.4791505,115.0
1395,1.4312286,0.685585,-0.46972656,2.4766114,-5.2930665,-3.4791505,115.0
1396,1.4312286,0.685585,-0.46972656,0.78376466,-4.7355103,-3.074524,115.0
1397,1.7989616,0.058181763,0.19364166,0.78376466,-4.7355103,-3.074524,115.0
1398,1.7989616,0.058181763,0.19364166,0.19116211,-4.4731936,-2.9768188,115.0
1399,2.9362144,-1.2628174,1.0059891,0.19116211,-4.4731936,-2.9768188,115.0
1400,2.9362144,-1.2628174,1.0059891,-0.9420044,-3.5917237,-2.5307739,115.0
1401,2.289341,-1.3493652,1.0792427,-0.9420044,-3.5917237,-2.5307739,115.0
1402,2.289341,-1.3493652,1.0792427,-1.0418335,-3.3134766,-2.3916504,115.0
1403,1.8441696,-1.507164,1.1243572,-1.0418335,-3.3134766,-2.3916504,115.0
1404,1.8441696,-1.507164,1.1243572,-1.1448487,-2.5392702,-1.9094971,115.0
1405,1.312542,-1.3085403,1.0400505,-1.1448487,-2.5392702,-1.9094971,115.0
1406,1.312542,-1.3085403,1.0400505,-1.1129884,-2.3088136,-1.7087768,115.0
1407,0.67030907,-1.678215,0.94695663,-1.1129884,-2.3088136,-1.7087768,115.0
1408,0.67030907,-1.678215,0.94695663,-0.49277344,-1.7045288,-1.1119263,115.0
1409,0.24806404,-1.6575623,0.83831406,-0.49277344,-1.7045288,-1.1119263,115.0
1410,0.24806404,-1.6575623,0.83831406,-0.1901001,-1.5622193,-0.93138427,115.0
1411,-0.31442642,-1.6371689,0.73156357,-0.1901001,-1.5622193,-0.93138427,115.0
1412,-0.31442642,-1.6371689,0.73156357,0.2347046,-1.1522827,-0.42161867,115.0
1413,-0.36300278,-1.2042389,0.7524376,0.2347046,-1.1522827,-0.42161867,115.0
1414,-0.36300278,-1.2042389,0.7524376,0.19647217,-1.0269654,-0.28461915,115.0
1415,-0.08781433,-0.55576324,0.9492874,0.19647217,-1.0269654,-0.28461915,115.0
1416,-0.08781433,-0.55576324,0.9492874,0.05522461,-0.77526855,-0.124255374,115.0
1417,0.6377678,-0.017471313,1.186554,0.05522461,-0.77526855,-0.124255374,115.0
1418,0.6377678,-0.017471313,1.186554,-0.115759276,-0.46728516,0.050976563,115.0
1419,1.7336273,0.4225006,1.1288452,-0.115759276,-0.46728516,0.050976563,115.0
1420,1.7336273,0.4225006,1.1288452,-0.62977296,0.62977296,0.541626,115.0
1421,1.4659424,0.44599915,0.82304764,-0.62977296,0.62977296,0.541626,115.0
1422,1.4659424,0.44599915,0.82304764,-0.7742066,1.0078491,0.7742066,115.0
1423,0.53001785,0.17887115,0.93873596,-0.7742066,1.0078491,0.7742066,115.0
1424,0.53001785,0.17887115,0.93873596,-0.83474123,1.6822265,1.2276856,115.0
1425,-0.47854996,-0.43440247,1.619812,-0.83474123,1.6822265,1.2276856,115.0
1426,-0.47854996,-0.43440247,1.619812,-0.61915284,2.3194337,1.6535523,115.0
1427,-0.68793106,-1.2761002,2.2507706,-0.61915284,2.3194337,1.6535523,115.0
1428,-0.68793106,-1.2761002,2.2507706,-0.23364258,2.9428346,1.9795898,115.0
1429,-0.18850327,-1.6277542,1.9780579,-0.23364258,2.9428346,1.9795898,115.0
1430,-0.18850327,-1.6277542,1.9780579,0.48109132,3.3060424,2.2408447,115.0
1431,0.33729553,-0.6615753,0.7124748,0.48109132,3.3060424,2.2408447,115.0
1432,0.33729553,-0.6615753,0.7124748,1.3179566,3.625708,2.0093262,115.0
1433,0.56214714,-0.18670654,0.09273529,1.3179566,3.625708,2.0093262,115.0
1434,0.56214714,-0.18670654,0.09273529,1.4135376,3.6809328,1.8723267,115.0
1435,0.477293,0.4717865,-0.63131714,1.4135376,3.6809328,1.8723267,115.0
1436,0.477293,0.4717865,-0.63131714,1.3806152,3.702173,1.6641724,115.0
1437,0.40075493,0.8551254,-1.0616684,1.3806152,3.702173,1.6641724,115.0
1438,0.40075493,0.8551254,-1.0616684,1.1968873,3.6734986,1.6046997,115.0
1439,0.46229172,1.0567932,-1.2228088,1.1968873,3.6734986,1.6046997,115.0
1440,0.46229172,1.0567932,-1.2228088,0.77526855,3.544995,1.5707153,115.0
1441,0.69112206,1.09935,-1.1981583,0.77526855,3.544995,1.5707153,115.0
1442,0.69112206,1.09935,-1.1981583,0.13699952,3.3793213,1.5707153,115.0
1443,1.0186329,0.92918396,-0.9962959,0.13699952,3.3793213,1.5707153,115.0
1444,1.0186329,0.92918396,-0.9962959,-0.362146,3.2178955,1.6174439,115.0
1445,1.2356949,0.84233093,-0.70959854,-0.362146,3.2178955,1.6174439,115.0
1446,1.2356949,0.84233093,-0.70959854,-0.68924564,3.0405395,1.7109009,115.0
1447,1.2954292,0.9291229,-0.7417755,-0.68924564,3.0405395,1.7109009,115.0
1448,1.2954292,0.9291229,-0.7417755,-1.2255615,2.8621216,1.6694825,115.0
1449,1.2885399,0.8871918,-1.1220322,-1.2255615,2.8621216,1.6694825,115.0
1450,1.2885399,0.8871918,-1.1220322,-1.6185058,2.800525,1.7438233,115.0
1451,0.8367157,0.3141632,-1.2689896,-1.6185058,2.800525,1.7438233,115.0
1452,0.8367157,0.3141632,-1.2689896,-1.6917847,2.72937,1.9233032,115.0
1453,0.68253136,0.16168213,-0.8262634,-1.6917847,2.72937,1.9233032,115.0
1454,0.68253136,0.16168213,-0.8262634,-1.5515991,2.6943238,1.9572877,115.0
1455,0.17035294,-0.29534912,0.17559814,-1.5515991,2.6943238,1.9572877,115.0
1456,0.17035294,-0.29534912,0.17559814,-0.996167,2.624231,1.9721558,115.0
1457,-0.10114479,-0.6312485,1.1921501,-0.996167,2.624231,1.9721558,115.0
1458,-0.10114479,-0.6312485,1.1921501,-0.2081543,2.5392702,1.9371094,115.0
1459,-0.09810257,-0.7732086,1.818943,-0.2081543,2.5392702,1.9371094,115.0
1460,-0.09810257,-0.7732086,1.818943,0.45772704,2.4957275,1.8659546,115.0
1461,-0.049173355,-0.7384491,2.0361977,0.45772704,2.4957275,1.8659546,115.0
1462,-0.049173355,-0.7384491,2.0361977,0.99085695,2.3119996,1.721521,115.0
1463,-0.0507164,-0.5777359,1.9733925,0.99085695,2.3119996,1.721521,115.0
1464,-0.0507164,-0.5777359,1.9733925,1.2945923,1.8627685,1.3806152,115.0
1465,0.09929466,-0.26561737,1.7114296,1.2945923,1.8627685,1.3806152,115.0
1466,0.09929466,-0.26561737,1.7114296,1.2797241,1.26698,0.998291,115.0
1467,0.5122471,0.19457245,1.1165199,1.2797241,1.26698,0.998291,115.0
1468,0.5122471,0.19457245,1.1165199,0.87403566,0.71791995,0.5851685,115.0
1469,0.5122471,0.19457245,1.1165199,0.87403566,0.71791995,0.5851685,115.0
1470,0.77715683,0.66360474,0.1999321,0.87403566,0.71791995,0.5851685,115.0
1471,0.77715683,0.66360474,0.1999321,0.22939454,0.5798584,0.21983643,115.0
1472,0.18227196,0.9671478,-0.49282455,0.22939454,0.5798584,0.21983643,115.0
1473,0.18227196,0.9671478,-0.49282455,-0.43011475,0.107263185,-0.1444336,115.0
1474,-1.0218468,0.9588165,-0.7154999,-0.43011475,0.107263185,-0.1444336,115.0
1475,-1.0218468,0.9588165,-0.7154999,-0.8889038,-0.7497803,-0.59047854,115.0
1476,-1.6561375,0.60046387,-0.7395134,-0.8889038,-0.7497803,-0.59047854,115.0
1477,-1.6561375,0.60046387,-0.7395134,-1.1395386,-1.4900025,-0.97280276,115.0
1478,-1.3991413,0.2590561,-0.9424515,-1.1395386,-1.4900025,-0.97280276,115.0
1479,-1.3991413,0.2590561,-0.9424515,-1.4390259,-2.2312868,-1.2871583,115.0
1480,-0.61376,-0.028045654,-1.4732971,-1.4390259,-2.2312868,-1.2871583,115.0
1481,-0.61376,-0.028045654,-1.4732971,-1.5675293,-2.704944,-1.6854126,115.0
1482,0.074337006,-0.39027405,-2.0103264,-1.5675293,-2.704944,-1.6854126,115.0
1483,0.074337006,-0.39027405,-2.0103264,-1.1172364,-2.9364624,-2.0411866,115.0
1484,0.06570816,-0.48719788,-2.1675606,-1.1172364,-2.9364624,-2.0411866,115.0
1485,0.06570816,-0.48719788,-2.1675606,-0.28674316,-3.0500977,-2.270581,115.0
1486,-0.7994957,-0.13517761,-2.0286636,-0.28674316,-3.0500977,-2.270581,115.0
1487,-0.7994957,-0.13517761,-2.0286636,0.5065796,-3.25188,-2.4840455,115.0
1488,-2.0659523,0.2854538,-1.79002,0.5065796,-3.25188,-2.4840455,115.0
1489,-2.0659523,0.2854538,-1.79002,1.1894531,-3.6480103,-2.6348512,115.0
1490,-2.8106956,0.58369446,-1.4456253,1.1894531,-3.6480103,-2.6348512,115.0
1491,-2.8106956,0.58369446,-1.4456253,1.6004517,-4.0409546,-2.5955567,115.0
1492,-2.3883266,0.83153534,-0.9565735,1.6004517,-4.0409546,-2.5955567,115.0
1493,-2.3883266,0.83153534,-0.9565735,1.5951416,-4.164148,-2.4192626,115.0
1494,-1.0649223,0.86512756,-0.46270752,1.5951416,-4.164148,-2.4192626,115.0
1495,-1.0649223,0.86512756,-0.46270752,1.0779419,-4.068567,-2.275891,115.0
1496,0.33706284,0.6389389,-0.13625336,1.0779419,-4.068567,-2.275891,115.0
1497,0.33706284,0.6389389,-0.13625336,0.24320069,-3.8657227,-2.1293335,115.0
1498,1.2423306,0.38807678,-0.06869507,0.24320069,-3.8657227,-2.1293335,115.0
1499,1.2423306,0.38807678,-0.06869507,-0.65632325,-3.5577393,-1.9742798,115.0
1500,1.4466839,0.2716446,-0.13936996,-0.65632325,-3.5577393,-1.9742798,115.0
1501,1.4466839,0.2716446,-0.13936996,-1.355127,-3.173291,-1.8542725,115.0
1502,1.0203114,0.14608765,-0.17983246,-1.355127,-3.173291,-1.8542725,115.0
1503,1.0203114,0.14608765,-0.17983246,-1.5186768,-2.8345094,-1.7724975,115.0
1504,0.2996235,-0.1924591,-0.20535278,-1.5186768,-2.8345094,-1.7724975,115.0
1505,0.2996235,-0.1924591,-0.20535278,-1.1066163,-2.6507814,-1.6567383,115.0
1506,-0.17275238,-0.6716919,-0.2818489,-1.1066163,-2.6507814,-1.6567383,115.0
1507,-0.17275238,-0.6716919,-0.2818489,-0.42692873,-2.5796266,-1.4857544,115.0
1508,-0.065130234,-0.7932739,-0.17754173,-0.42692873,-2.5796266,-1.4857544,115.0
1509,-0.065130234,-0.7932739,-0.17754173,0.07115479,-2.3396118,-1.0938721,115.0
1510,0.22967148,-0.47833252,0.21358109,0.07115479,-2.3396118,-1.0938721,115.0
1511,0.22967148,-0.47833252,0.21358109,0.046728518,-1.983838,-0.5734863,115.0
1512,0.19416237,-0.30070496,0.50736237,0.046728518,-1.983838,-0.5734863,115.0
1513,0.19416237,-0.30070496,0.50736237,-0.18054199,-1.6206299,-0.3069214,115.0
1514,-0.03248787,-0.33219147,0.557415,-0.18054199,-1.6206299,-0.3069214,115.0
1515,-0.03248787,-0.33219147,0.557415,-0.16885987,-1.2404298,-0.046728518,115.0
1516,8.5258484E-4,-0.20101929,0.65203476,-0.16885987,-1.2404298,-0.046728518,115.0
1517,8.5258484E-4,-0.20101929,0.65203476,-0.18903808,-0.8241211,0.19116211,115.0
1518,0.4156971,0.14727783,0.974617,-0.18903808,-0.8241211,0.19116211,115.0
1519,0.4156971,0.14727783,0.974617,-0.19647217,-0.3419678,0.40144044,115.0
1520,0.8207054,0.54636383,1.1291313,-0.19647217,-0.3419678,0.40144044,115.0
1521,0.8207054,0.54636383,1.1291313,-0.41099855,0.3727661,0.6680054,115.0
1522,0.49806786,0.80799866,0.7000084,-0.41099855,0.3727661,0.6680054,115.0
1523,0.49806786,0.80799866,0.7000084,-0.86978763,1.183081,1.179895,115.0
1524,-0.62348175,0.72914124,0.105026245,-0.86978763,1.183081,1.179895,115.0
1525,-0.62348175,0.72914124,0.105026245,-1.2584839,1.7586914,1.5951416,115.0
1526,-1.6053524,0.41062927,-0.024585724,-1.2584839,1.7586914,1.5951416,115.0
1527,-1.6053524,0.41062927,-0.024585724,-1.3668091,2.4022706,1.9307374,115.0
1528,-1.7879562,0.19303894,0.37952423,-1.3668091,2.4022706,1.9307374,115.0
1529,-1.7879562,0.19303894,0.37952423,-1.1809571,3.075586,2.3842163,115.0
1530,-1.3601131,0.12044525,0.8627739,-1.1809571,3.075586,2.3842163,115.0
1531,-1.3601131,0.12044525,0.8627739,-0.68712157,3.6788087,2.6624634,115.0
1532,-0.8028736,0.032737732,0.9665985,-0.68712157,3.6788087,2.6624634,115.0
1533,-0.8028736,0.032737732,0.9665985,0.17947999,4.043079,2.7453003,115.0
1534,-0.32240105,-0.12163544,0.5728874,0.17947999,4.043079,2.7453003,115.0
1535,-0.32240105,-0.12163544,0.5728874,1.1002442,4.1354737,2.616797,115.0
1536,0.13008118,-0.3271942,-0.085243225,1.1002442,4.1354737,2.616797,115.0
1537,0.13008118,-0.3271942,-0.085243225,1.8532104,4.076001,2.4075806,115.0
1538,0.5782089,-0.4669571,-0.5096741,1.8532104,4.076001,2.4075806,115.0
1539,0.5782089,-0.4669571,-0.5096741,2.427759,3.9528077,2.2546508,115.0
1540,0.8922787,-0.4095993,-0.41638184,2.427759,3.9528077,2.2546508,115.0
1541,0.8922787,-0.4095993,-0.41638184,2.7697265,3.6904907,2.1272094,115.0
1542,1.1139832,-0.18022156,-0.021911621,2.7697265,3.6904907,2.1272094,115.0
1543,1.1139832,-0.18022156,-0.021911621,2.526526,3.1435547,1.8436524,115.0
1544,1.5725231,0.10108185,0.27787018,2.526526,3.1435547,1.8436524,115.0
1545,1.5725231,0.10108185,0.27787018,1.6705445,2.5392702,1.5643433,115.0
1546,2.2868156,0.34041595,0.18595505,1.6705445,2.5392702,1.5643433,115.0
1547,2.2868156,0.34041595,0.18595505,0.5543701,2.1250856,1.350879,115.0
1548,2.8268757,0.4083786,-0.28076553,0.5543701,2.1250856,1.350879,115.0
1549,2.8268757,0.4083786,-0.28076553,-0.3058594,1.9264892,1.1023682,115.0
1550,2.7985477,0.27837372,-0.7093544,-0.3058594,1.9264892,1.1023682,115.0
1551,2.7985477,0.27837372,-0.7093544,-0.6573853,1.7268311,0.80394286,115.0
1552,2.2906208,0.18999481,-0.6718178,-0.6573853,1.7268311,0.80394286,115.0
1553,2.2906208,0.18999481,-0.6718178,-0.79226077,1.5144287,0.5161377,115.0
