,accx,accy,accz,gyrox,gyroy,gyroz,heart rate
0,walk,walk,walk,walk,walk,walk,walk
1,-3.9628296,-59.382973,37.298573,0.0,0.0,0.0,0.0
2,-3.9628296,-59.382973,37.298573,0.10089111,-0.045666505,-0.36533204,0.0
3,-3.071289,-47.49362,29.825357,0.10089111,-0.045666505,-0.36533204,0.0
4,-3.071289,-47.49362,29.825357,0.08283692,-0.058410645,-0.38975832,0.0
5,-2.3857667,-37.959984,23.915024,0.08283692,-0.058410645,-0.38975832,0.0
6,-2.3857667,-37.959984,23.915024,0.0541626,-0.06584473,-0.41099855,0.0
7,-1.8553665,-30.311775,19.200989,0.0541626,-0.06584473,-0.41099855,0.0
8,-1.8553665,-30.311775,19.200989,0.020178223,-0.08071289,-0.4258667,0.0
9,-1.4407506,-24.21695,15.361181,0.020178223,-0.08071289,-0.4258667,0.0
10,-1.4407506,-24.21695,15.361181,-0.016992187,-0.10620117,-0.4439209,0.0
11,-1.0954106,-19.37621,12.275482,-0.016992187,-0.10620117,-0.4439209,0.0
12,-1.0954106,-19.37621,12.275482,-0.047790527,-0.1359375,-0.4704712,0.0
13,-0.7890971,-15.530457,9.893272,-0.047790527,-0.1359375,-0.4704712,0.0
14,-0.7890971,-15.530457,9.893272,-0.058410645,-0.16885987,-0.50870365,0.0
15,-0.49858713,-12.466991,8.055706,-0.058410645,-0.16885987,-0.50870365,0.0
16,-0.49858713,-12.466991,8.055706,-0.014868164,-0.18691407,-0.541626,0.0
17,-0.22777605,-10.00415,6.5924034,-0.014868164,-0.18691407,-0.541626,0.0
18,-0.22777605,-10.00415,6.5924034,-0.059472658,-0.19753419,-0.57454836,0.0
19,-0.018646717,-8.067604,5.475033,-0.059472658,-0.19753419,-0.57454836,0.0
20,-0.018646717,-8.067604,5.475033,-0.070092775,-0.23151855,-0.6180908,0.0
21,0.13363004,-6.581932,4.5177307,-0.070092775,-0.23151855,-0.6180908,0.0
22,0.13363004,-6.581932,4.5177307,-0.07540283,-0.270813,-0.6701294,0.0
23,0.13363004,-6.581932,4.5177307,-0.04460449,-0.3164795,-0.72323,0.0
24,0.2563181,-5.423088,3.605919,-0.04460449,-0.3164795,-0.72323,0.0
25,0.33483982,-4.5046616,2.8661804,-0.04460449,-0.3164795,-0.72323,0.0
26,0.33483982,-4.5046616,2.8661804,0.05522461,-0.36533204,-0.7657105,0.0
27,0.40428543,-3.7062836,2.356945,0.05522461,-0.36533204,-0.7657105,0.0
28,0.40428543,-3.7062836,2.356945,0.13062744,-0.42268068,-0.814563,0.0
29,0.51571345,-2.953186,1.9201965,0.13062744,-0.42268068,-0.814563,0.0
30,0.51571345,-2.953186,1.9201965,0.18372802,-0.48109132,-0.8527954,0.0
31,0.6317234,-2.2488556,1.4134407,0.18372802,-0.48109132,-0.8527954,0.0
32,0.6317234,-2.2488556,1.4134407,0.23364258,-0.52038574,-0.8687256,0.0
33,0.6317234,-2.2488556,1.4134407,0.29205322,-0.53100586,-0.8400513,0.0
34,0.6705034,-1.6573639,0.948452,0.29205322,-0.53100586,-0.8400513,0.0
35,0.6275525,-1.2356567,0.65854263,0.29205322,-0.53100586,-0.8400513,0.0
36,0.6275525,-1.2356567,0.65854263,0.30054933,-0.51188964,-0.76358646,0.0
37,0.52322125,-0.9761734,0.56698227,0.30054933,-0.51188964,-0.76358646,0.0
38,0.52322125,-0.9761734,0.56698227,0.24957275,-0.4725952,-0.6881836,0.0
39,0.37538862,-0.7908249,0.5409889,0.24957275,-0.4725952,-0.6881836,0.0
40,0.37538862,-0.7908249,0.5409889,0.2357666,-0.4609131,-0.6000366,0.0
41,0.37538862,-0.7908249,0.5409889,0.2623169,-0.45878908,-0.5692383,0.0
42,0.3124082,-0.5934372,0.3838539,0.2623169,-0.45878908,-0.5692383,0.0
43,0.42421865,-0.3733139,0.119911194,0.2623169,-0.45878908,-0.5692383,0.0
44,0.42421865,-0.3733139,0.119911194,0.27718505,-0.44179687,-0.5957886,0.0
45,0.62550783,-0.08761597,-0.026287079,0.27718505,-0.44179687,-0.5957886,0.0
46,0.62550783,-0.08761597,-0.026287079,0.20921631,-0.41949463,-0.635083,0.0
47,0.747025,0.18255615,-0.013290405,0.20921631,-0.41949463,-0.635083,0.0
48,0.747025,0.18255615,-0.013290405,0.10620117,-0.42055663,-0.6605713,0.0
49,0.78869677,0.3174286,-0.044898987,0.10620117,-0.42055663,-0.6605713,0.0
50,0.78869677,0.3174286,-0.044898987,0.0361084,-0.43754885,-0.69349366,0.0
51,0.8689457,0.29801178,-0.18207169,0.0361084,-0.43754885,-0.69349366,0.0
52,0.8689457,0.29801178,-0.18207169,0.06690674,-0.45029297,-0.72004396,0.0
53,0.99029815,0.236969,-0.20387268,0.06690674,-0.45029297,-0.72004396,0.0
54,0.99029815,0.236969,-0.20387268,0.0010620117,-0.47578126,-0.725354,0.0
55,1.051406,0.18229675,-0.05983734,0.0010620117,-0.47578126,-0.725354,0.0
56,1.051406,0.18229675,-0.05983734,0.023364259,-0.5150757,-0.6988037,0.0
57,1.0365595,0.1295166,-0.02009964,0.023364259,-0.5150757,-0.6988037,0.0
58,1.0365595,0.1295166,-0.02009964,-0.13806152,-0.5511841,-0.6701294,0.0
59,0.9799312,0.021774292,-0.21279526,-0.13806152,-0.5511841,-0.6701294,0.0
60,0.9799312,0.021774292,-0.21279526,-0.16354981,-0.5787964,-0.635083,0.0
61,0.9116549,-0.09942627,-0.47011566,-0.16354981,-0.5787964,-0.635083,0.0
62,0.9116549,-0.09942627,-0.47011566,-0.26975098,-0.59472656,-0.63720703,0.0
63,0.8789699,-0.15907288,-0.6473923,-0.26975098,-0.59472656,-0.63720703,0.0
64,0.8789699,-0.15907288,-0.6473923,-0.2347046,-0.6085327,-0.65419924,0.0
65,0.86292934,-0.20780945,-0.7635803,-0.2347046,-0.6085327,-0.65419924,0.0
66,0.86292934,-0.20780945,-0.7635803,-0.27718505,-0.5957886,-0.7126099,0.0
67,0.86292934,-0.20780945,-0.7635803,-0.31435546,-0.5766724,-0.7699585,0.0
68,0.83587575,-0.1717987,-0.8077507,-0.31435546,-0.5766724,-0.7699585,0.0
69,0.7084589,0.10430908,-0.8068428,-0.31435546,-0.5766724,-0.7699585,0.0
70,0.7084589,0.10430908,-0.8068428,-0.04460449,-0.55755615,-0.72323,0.0
71,0.4601265,0.6649399,-0.88822174,-0.04460449,-0.55755615,-0.72323,0.0
72,0.4601265,0.6649399,-0.88822174,-0.21240234,-0.49064943,-0.811377,0.0
73,0.10849428,1.3754578,-1.1372147,-0.21240234,-0.49064943,-0.811377,0.0
74,0.10849428,1.3754578,-1.1372147,-0.24851075,-0.3334717,-0.64570314,0.0
75,-0.19557762,1.8906631,-1.3351517,-0.24851075,-0.3334717,-0.64570314,0.0
76,-0.19557762,1.8906631,-1.3351517,-0.72960204,-0.18479005,-0.49171144,0.0
77,-0.3269577,1.5140305,-1.0482483,-0.72960204,-0.18479005,-0.49171144,0.0
78,-0.3269577,1.5140305,-1.0482483,-0.8591675,-0.060534667,-0.3525879,0.0
79,-0.40822142,0.70809937,-0.3436737,-0.8591675,-0.060534667,-0.3525879,0.0
80,-0.40822142,0.70809937,-0.3436737,-1.2425537,-0.06690674,-0.34833986,0.0
81,-0.3980127,0.34309387,0.29276276,-1.2425537,-0.06690674,-0.34833986,0.0
82,-0.3980127,0.34309387,0.29276276,-1.6110718,-0.13699952,-0.28780517,0.0
83,-0.19496047,0.019309998,0.67487335,-1.6110718,-0.13699952,-0.28780517,0.0
84,-0.19496047,0.019309998,0.67487335,-1.7300171,-0.14868164,-0.29948732,0.0
85,-0.19496047,0.019309998,0.67487335,-1.8946289,-0.13168946,-0.22089843,0.0
86,-0.047496695,-0.48727417,0.94831085,-1.8946289,-0.13168946,-0.22089843,0.0
87,-0.11432792,-0.810524,1.0404968,-1.8946289,-0.13168946,-0.22089843,0.0
88,-0.11432792,-0.810524,1.0404968,-2.0125122,-0.13062744,-0.15930176,0.0
89,-0.19545405,-0.6661911,0.718029,-2.0125122,-0.13062744,-0.15930176,0.0
90,-0.19545405,-0.6661911,0.718029,-1.987024,-0.13168946,-0.13168946,0.0
91,-0.53981054,-0.44448853,-0.21823883,-1.987024,-0.13168946,-0.13168946,0.0
92,-0.53981054,-0.44448853,-0.21823883,-2.352356,-0.0998291,-0.29523927,0.0
93,-0.5410525,-0.11973572,-0.66355515,-2.352356,-0.0998291,-0.29523927,0.0
94,-0.5410525,-0.11973572,-0.66355515,-2.4075806,-0.09133301,-0.32391357,0.0
95,-0.6934133,0.048110962,-1.4686127,-2.4075806,-0.09133301,-0.32391357,0.0
96,-0.6934133,0.048110962,-1.4686127,-2.7665405,-0.027612304,-0.35577393,0.0
97,-0.6107976,0.23002625,-1.4860725,-2.7665405,-0.027612304,-0.35577393,0.0
98,-0.6107976,0.23002625,-1.4860725,-2.7028198,-0.023364259,-0.2782471,0.0
99,-0.6403593,0.5300522,-1.7553864,-2.7028198,-0.023364259,-0.2782471,0.0
100,-0.6403593,0.5300522,-1.7553864,-2.9587648,0.023364259,-0.18266602,0.0
101,-0.51981914,0.7625427,-1.7463989,-2.9587648,0.023364259,-0.18266602,0.0
102,-0.51981914,0.7625427,-1.7463989,-3.3156006,0.033984374,-0.20072022,0.0
103,-0.4891219,0.41638184,-1.8562775,-3.3156006,0.033984374,-0.20072022,0.0
104,-0.4891219,0.41638184,-1.8562775,-2.5116577,0.08602295,0.1996582,0.0
105,-0.3898083,0.49669647,-1.5644035,-2.5116577,0.08602295,0.1996582,0.0
106,-0.3898083,0.49669647,-1.5644035,-2.3789062,0.057348635,0.23258057,0.0
107,0.008099675,0.95962524,-1.347641,-2.3789062,0.057348635,0.23258057,0.0
108,0.008099675,0.95962524,-1.347641,-2.3789062,0.057348635,0.23258057,115.0
109,0.008099675,0.95962524,-1.347641,-2.441565,0.13381349,0.3982544,115.0
110,0.17391133,0.84685516,-1.219593,-2.441565,0.13381349,0.3982544,115.0
111,0.17391133,0.84685516,-1.219593,-2.536084,0.1901001,0.4715332,115.0
112,0.33346498,-0.2033844,-1.2433128,-2.536084,0.1901001,0.4715332,115.0
113,0.33346498,-0.2033844,-1.2433128,-2.3842163,0.32922363,0.7858887,115.0
114,0.20032912,-0.31925964,-0.97875977,-2.3842163,0.32922363,0.7858887,115.0
115,0.20032912,-0.31925964,-0.97875977,-2.52334,0.3451538,0.84111327,115.0
116,-0.17962933,-0.59542084,-0.48259354,-2.52334,0.3451538,0.84111327,115.0
117,-0.17962933,-0.59542084,-0.48259354,-2.5562623,0.33134767,0.99085695,115.0
118,-0.55617905,-0.57915497,-0.100372314,-2.5562623,0.33134767,0.99085695,115.0
119,-0.55617905,-0.57915497,-0.100372314,-2.3693483,0.26762697,1.2181275,115.0
120,-0.66534126,-0.25829315,-0.6423836,-2.3693483,0.26762697,1.2181275,115.0
121,-0.66534126,-0.25829315,-0.6423836,-2.0273805,0.29311523,1.4602661,115.0
122,-0.60879886,-0.22428894,-1.9590607,-2.0273805,0.29311523,1.4602661,115.0
123,-0.60879886,-0.22428894,-1.9590607,-1.0110352,0.35895997,1.6694825,115.0
124,-0.66459036,-0.26615906,-2.6041527,-1.0110352,0.35895997,1.6694825,115.0
125,-0.66459036,-0.26615906,-2.6041527,0.13168946,0.4258667,1.9689697,115.0
126,-0.894392,-0.115097046,-1.682579,0.13168946,0.4258667,1.9689697,115.0
127,-0.894392,-0.115097046,-1.682579,0.98129886,0.38444826,2.267395,115.0
128,-0.98755956,0.2568817,-0.37343216,0.98129886,0.38444826,2.267395,115.0
129,-0.98755956,0.2568817,-0.37343216,1.6365601,0.6202149,2.7113159,115.0
130,-1.0812097,0.86039734,-0.28735733,1.6365601,0.6202149,2.7113159,115.0
131,-1.0812097,0.86039734,-0.28735733,0.7349121,0.97386473,3.1074464,115.0
132,-1.5232077,0.5928955,-1.1028099,0.7349121,0.97386473,3.1074464,115.0
133,-1.5232077,0.5928955,-1.1028099,-0.12956543,1.3349488,3.248694,115.0
134,-2.2477164,-0.7984772,-1.5976028,-0.12956543,1.3349488,3.248694,115.0
135,-2.2477164,-0.7984772,-1.5976028,-0.99085695,1.6790406,3.3878174,115.0
136,-2.9644694,-2.4359055,-1.2669754,-0.99085695,1.6790406,3.3878174,115.0
137,-2.9644694,-2.4359055,-1.2669754,-1.1246704,1.9732178,3.522693,115.0
138,-3.4354553,-3.3269806,-0.39668655,-1.1246704,1.9732178,3.522693,115.0
139,-3.4354553,-3.3269806,-0.39668655,-0.66588134,2.2185426,3.6363282,115.0
140,-3.745398,-2.8671875,0.36022568,-0.66588134,2.2185426,3.6363282,115.0
141,-3.745398,-2.8671875,0.36022568,-1.5144287,2.443689,3.529065,115.0
142,-4.064458,-2.4184494,0.48122406,-1.5144287,2.443689,3.529065,115.0
143,-4.064458,-2.4184494,0.48122406,-3.153113,2.5530763,3.0447876,115.0
144,-4.4161167,-3.8704987,0.5465164,-3.153113,2.5530763,3.0447876,115.0
145,-4.4161167,-3.8704987,0.5465164,-3.5131347,2.3332398,2.7729127,115.0
146,-4.474825,-6.3935394,1.3849411,-3.5131347,2.3332398,2.7729127,115.0
147,-4.474825,-6.3935394,1.3849411,-1.7024049,2.0040162,2.5679443,115.0
148,-3.9693623,-7.3949966,2.6190376,-1.7024049,2.0040162,2.5679443,115.0
149,-3.9693623,-7.3949966,2.6190376,-0.24320069,1.6131958,2.2875733,115.0
150,-3.174221,-6.3378983,3.533596,-0.24320069,1.6131958,2.2875733,115.0
151,-3.174221,-6.3378983,3.533596,-0.40250245,1.4793824,1.903125,115.0
152,-2.7793674,-4.748825,3.9796371,-0.40250245,1.4793824,1.903125,115.0
153,-2.7793674,-4.748825,3.9796371,-1.3699951,1.176709,1.6089478,115.0
154,-2.4801226,-3.7373047,3.725811,-1.3699951,1.176709,1.6089478,115.0
155,-2.4801226,-3.7373047,3.725811,-1.8595825,0.5501221,1.1926392,115.0
156,-1.2935953,-3.8997726,2.6568909,-1.8595825,0.5501221,1.1926392,115.0
157,-1.2935953,-3.8997726,2.6568909,-1.3848633,-0.24213867,0.540564,115.0
158,0.7261591,-4.4392395,1.4871597,-1.3848633,-0.24213867,0.540564,115.0
159,0.7261591,-4.4392395,1.4871597,-0.34833986,-0.6138428,-0.26444092,115.0
160,1.8897161,-3.4118042,0.9019699,-0.34833986,-0.6138428,-0.26444092,115.0
161,1.8897161,-3.4118042,0.9019699,-0.09451904,-0.81881106,-1.0460815,115.0
162,1.3417416,-0.9898071,0.5220146,-0.09451904,-0.81881106,-1.0460815,115.0
163,1.3417416,-0.9898071,0.5220146,-0.5734863,-1.1342286,-1.5664673,115.0
164,0.5249443,0.93027496,-0.38671112,-0.5734863,-1.1342286,-1.5664673,115.0
165,0.5249443,0.93027496,-0.38671112,-0.45878908,-1.4188477,-2.0220704,115.0
166,0.4886446,2.0340424,-1.7003021,-0.45878908,-1.4188477,-2.0220704,115.0
167,0.4886446,2.0340424,-1.7003021,-0.19434814,-1.539917,-2.3332398,115.0
168,0.6968851,2.8806152,-2.7376251,-0.19434814,-1.539917,-2.3332398,115.0
169,0.6968851,2.8806152,-2.7376251,0.022302246,-1.6482422,-2.5690064,115.0
170,0.76020527,3.5457458,-3.1825333,0.022302246,-1.6482422,-2.5690064,115.0
171,0.76020527,3.5457458,-3.1825333,0.14124756,-1.7438233,-2.6868896,115.0
172,0.8225441,4.066086,-3.2862854,0.14124756,-1.7438233,-2.6868896,115.0
173,0.8225441,4.066086,-3.2862854,0.13699952,-1.7756836,-2.7580445,115.0
174,1.0122833,4.543228,-3.4405746,0.13699952,-1.7756836,-2.7580445,115.0
175,1.0122833,4.543228,-3.4405746,0.19434814,-1.8011719,-2.716626,115.0
176,1.3114624,4.927635,-3.757206,0.19434814,-1.8011719,-2.716626,115.0
177,1.3114624,4.927635,-3.757206,0.41312256,-1.7470093,-2.614673,115.0
178,1.5292234,5.3468094,-4.0358047,0.41312256,-1.7470093,-2.614673,115.0
179,1.5292234,5.3468094,-4.0358047,0.46516114,-1.6758546,-2.2833252,115.0
180,1.6870012,5.758774,-4.0656204,0.46516114,-1.6758546,-2.2833252,115.0
181,1.6870012,5.758774,-4.0656204,0.4258667,-1.5112427,-1.898877,115.0
182,1.7897139,5.8625336,-3.879963,0.4258667,-1.5112427,-1.898877,115.0
183,1.7897139,5.8625336,-3.879963,0.33984375,-1.3137085,-1.358313,115.0
184,1.7699547,5.5426254,-3.6570091,0.33984375,-1.3137085,-1.358313,115.0
185,1.7699547,5.5426254,-3.6570091,0.21240234,-1.0959961,-0.8230591,115.0
186,1.6051855,4.764702,-3.4369354,0.21240234,-1.0959961,-0.8230591,115.0
187,1.6051855,4.764702,-3.4369354,0.23789063,-0.83474123,-0.23151855,115.0
188,1.2726736,3.6870575,-3.2199936,0.23789063,-0.83474123,-0.23151855,115.0
189,1.2726736,3.6870575,-3.2199936,0.18372802,-0.52250975,0.2824951,115.0
190,0.7954216,2.6895752,-3.0514717,0.18372802,-0.52250975,0.2824951,115.0
191,0.7954216,2.6895752,-3.0514717,0.045666505,-0.15717773,0.7306641,115.0
192,0.27792645,1.9990997,-2.7812157,0.045666505,-0.15717773,0.7306641,115.0
193,0.27792645,1.9990997,-2.7812157,-0.14549561,0.22514649,1.1140503,115.0
194,-0.1926732,1.5847397,-2.1774254,-0.14549561,0.22514649,1.1140503,115.0
195,-0.1926732,1.5847397,-2.1774254,-0.3355957,0.6244629,1.5091187,115.0
196,-0.6449709,1.1903,-1.3723106,-0.3355957,0.6244629,1.5091187,115.0
197,-0.6449709,1.1903,-1.3723106,-0.52038574,1.0726318,1.8797607,115.0
198,-1.2988868,0.49085236,-0.6635208,-0.52038574,1.0726318,1.8797607,115.0
199,-1.2988868,0.49085236,-0.6635208,-0.48640138,1.4751343,2.3162477,115.0
200,-2.2352638,-0.3832245,-0.09265709,-0.48640138,1.4751343,2.3162477,115.0
201,-2.2352638,-0.3832245,-0.09265709,-0.3717041,1.7926759,2.7537963,115.0
202,-3.2567291,-1.1757355,0.46388817,-0.3717041,1.7926759,2.7537963,115.0
203,-3.2567291,-1.1757355,0.46388817,-0.3451538,2.0241945,3.153113,115.0
204,-4.1854496,-1.7465591,0.9627609,-0.3451538,2.0241945,3.153113,115.0
205,-4.1854496,-1.7465591,0.9627609,-0.5533081,2.2238526,3.4664063,115.0
206,-5.19582,-2.0970993,1.1278,-0.5533081,2.2238526,3.4664063,115.0
207,-5.19582,-2.0970993,1.1278,-0.90695804,2.4723632,3.7627075,115.0
208,-6.217972,-2.3437576,1.0960503,-0.90695804,2.4723632,3.7627075,115.0
209,-6.217972,-2.3437576,1.0960503,-1.2807862,2.1080933,4.7503786,115.0
210,-6.217972,-2.3437576,1.0960503,-1.2807862,2.1080933,4.7503786,106.0
211,-6.8962526,-2.844902,1.326828,-1.2807862,2.1080933,4.7503786,106.0
212,-6.8962526,-2.844902,1.326828,-1.4655762,2.9768188,4.6048827,106.0
213,-7.509775,-3.7568665,2.2417831,-1.4655762,2.9768188,4.6048827,106.0
214,-7.509775,-3.7568665,2.2417831,-1.5197388,2.4766114,4.6834717,106.0
215,-6.754965,-4.6222076,3.578949,-1.5197388,2.4766114,4.6834717,106.0
216,-6.754965,-4.6222076,3.578949,-1.3020264,2.1888063,4.405225,106.0
217,-3.9507866,-4.707123,4.053589,-1.3020264,2.1888063,4.405225,106.0
218,-3.9507866,-4.707123,4.053589,-1.2457398,1.8691406,4.3234496,106.0
219,-0.9431858,-4.182335,3.1627579,-1.2457398,1.8691406,4.3234496,106.0
220,-0.9431858,-4.182335,3.1627579,-0.92076415,1.6248779,3.8497925,106.0
221,1.1356239,-3.6718445,1.8841629,-0.92076415,1.6248779,3.8497925,106.0
222,1.1356239,-3.6718445,1.8841629,-0.3154175,1.4369019,2.9661987,106.0
223,2.2097683,-2.683792,1.0227623,-0.3154175,1.4369019,2.9661987,106.0
224,2.2097683,-2.683792,1.0227623,-0.4428589,1.2510499,2.2323487,106.0
225,2.7044106,-1.1170349,0.3793068,-0.4428589,1.2510499,2.2323487,106.0
226,2.7044106,-1.1170349,0.3793068,-1.0567017,1.0152832,1.6121339,106.0
227,2.9571686,0.335083,-0.25185013,-1.0567017,1.0152832,1.6121339,106.0
228,2.9571686,0.335083,-0.25185013,-2.0454347,0.7688965,1.2149414,106.0
229,3.0813599,0.98378754,-0.79742813,-2.0454347,0.7688965,1.2149414,106.0
230,3.0813599,0.98378754,-0.79742813,-2.5530763,0.5256958,0.8952759,106.0
231,3.1474113,0.8659744,-1.1627464,-2.5530763,0.5256958,0.8952759,106.0
232,3.1474113,0.8659744,-1.1627464,-2.8260133,0.3451538,0.74659425,106.0
233,3.1667213,0.5879669,-1.3483734,-2.8260133,0.3451538,0.74659425,106.0
234,3.1667213,0.5879669,-1.3483734,-2.8621216,0.22833252,0.6605713,106.0
235,3.0430336,0.3932724,-1.4354591,-2.8621216,0.22833252,0.6605713,106.0
236,3.0430336,0.3932724,-1.4354591,-2.6603394,0.17947999,0.62552494,106.0
237,2.7217197,0.30122375,-1.4654579,-2.6603394,0.17947999,0.62552494,106.0
238,2.7217197,0.30122375,-1.4654579,-2.2896974,0.19541016,0.6403931,106.0
239,2.2819414,0.3443985,-1.4223404,-2.2896974,0.19541016,0.6403931,106.0
240,2.2819414,0.3443985,-1.4223404,-1.8903809,0.24320069,0.6956177,106.0
241,1.8111486,0.46837616,-1.2725143,-1.8903809,0.24320069,0.6956177,106.0
242,1.8111486,0.46837616,-1.2725143,-1.5261109,0.3164795,0.79013675,106.0
243,1.3408737,0.443985,-1.0222588,-1.5261109,0.3164795,0.79013675,106.0
244,1.3408737,0.443985,-1.0222588,-1.1607789,0.41206056,0.8230591,106.0
245,0.8561096,0.23901367,-0.5917702,-1.1607789,0.41206056,0.8230591,106.0
246,0.8561096,0.23901367,-0.5917702,-0.6839356,0.5097656,0.86978763,106.0
247,0.36978817,-0.03352356,0.06497574,-0.6839356,0.5097656,0.86978763,106.0
248,0.36978817,-0.03352356,0.06497574,-0.26444092,0.5649902,0.72004396,106.0
249,-0.040314674,-0.2960968,0.80413055,-0.26444092,0.5649902,0.72004396,106.0
250,-0.040314674,-0.2960968,0.80413055,0.07327881,0.5872925,0.42055663,106.0
251,-0.22955322,-0.3176651,1.4096603,0.07327881,0.5872925,0.42055663,106.0
252,-0.22955322,-0.3176651,1.4096603,0.41843262,0.6053467,0.021240234,106.0
253,-0.3564577,-0.0819397,1.8199272,0.41843262,0.6053467,0.021240234,106.0
254,-0.3564577,-0.0819397,1.8199272,0.7434082,0.62127686,-0.41099855,106.0
255,-0.7915869,0.102378845,1.9392052,0.7434082,0.62127686,-0.41099855,106.0
256,-0.7915869,0.102378845,1.9392052,1.1214844,0.5894165,-0.82836914,106.0
257,-1.4466238,0.31575012,1.6495323,1.1214844,0.5894165,-0.82836914,106.0
258,-1.4466238,0.31575012,1.6495323,1.2000732,0.41312256,-1.1427246,106.0
259,-1.9542465,0.5508194,1.0349808,1.2000732,0.41312256,-1.1427246,106.0
260,-1.9542465,0.5508194,1.0349808,1.0630738,0.26656494,-1.4910644,106.0
261,-2.5276546,0.5335541,0.4230652,1.0630738,0.26656494,-1.4910644,106.0
262,-2.5276546,0.5335541,0.4230652,0.99935305,0.17735596,-1.8436524,106.0
263,-3.5420818,0.35382843,0.11662674,0.99935305,0.17735596,-1.8436524,106.0
264,-3.5420818,0.35382843,0.11662674,1.1246704,-0.20921631,-2.0549927,106.0
265,-4.320835,0.31726837,0.20795059,1.1246704,-0.20921631,-2.0549927,106.0
266,-4.320835,0.31726837,0.20795059,1.3869873,-0.70198977,-2.0284424,106.0
267,-3.6890907,0.5727234,0.40776443,1.3869873,-0.70198977,-2.0284424,106.0
268,-3.6890907,0.5727234,0.40776443,1.5515991,-1.1883911,-2.1165893,106.0
269,-1.6975002,0.8678589,0.20857239,1.5515991,-1.1883911,-2.1165893,106.0
270,-1.6975002,0.8678589,0.20857239,1.6068238,-1.4708862,-2.443689,106.0
271,0.11964798,0.99328613,-0.47680664,1.6068238,-1.4708862,-2.443689,106.0
272,0.11964798,0.99328613,-0.47680664,1.7363892,-1.6089478,-2.727246,106.0
273,0.5329857,0.9568863,-1.1982193,1.7363892,-1.6089478,-2.727246,106.0
274,0.5329857,0.9568863,-1.1982193,1.9233032,-1.6429322,-2.9141603,106.0
275,-0.16191673,0.86060333,-1.6132126,1.9233032,-1.6429322,-2.9141603,106.0
276,-0.16191673,0.86060333,-1.6132126,2.3321779,-1.7926759,-2.8727417,106.0
277,-0.70300674,0.9519806,-1.7623253,2.3321779,-1.7926759,-2.8727417,106.0
278,-0.70300674,0.9519806,-1.7623253,2.350232,-2.005078,-2.6815796,106.0
279,-0.32290268,1.1401367,-1.7559166,2.350232,-2.005078,-2.6815796,106.0
280,-0.32290268,1.1401367,-1.7559166,2.1452637,-2.0932252,-2.5594482,106.0
281,0.7229042,1.175621,-1.6633873,2.1452637,-2.0932252,-2.5594482,106.0
282,0.7229042,1.175621,-1.6633873,1.7724975,-2.1834962,-2.357666,106.0
283,1.8926048,1.036789,-1.5829926,1.7724975,-2.1834962,-2.357666,106.0
284,1.8926048,1.036789,-1.5829926,1.4528321,-2.1994264,-2.2769532,106.0
285,2.7911348,0.77838135,-1.557579,1.4528321,-2.1994264,-2.2769532,106.0
286,2.7911348,0.77838135,-1.557579,1.2914063,-2.1250856,-2.2249146,106.0
287,3.2031956,0.5283432,-1.5141068,1.2914063,-2.1250856,-2.2249146,106.0
288,3.2031956,0.5283432,-1.5141068,1.3190186,-1.99552,-2.1919923,106.0
289,3.0814657,0.39611053,-1.3321342,1.3190186,-1.99552,-2.1919923,106.0
290,3.0814657,0.39611053,-1.3321342,1.3678712,-1.8447144,-2.0401247,106.0
291,2.5895138,0.4110794,-1.0512657,1.3678712,-1.8447144,-2.0401247,106.0
292,2.5895138,0.4110794,-1.0512657,1.4124756,-1.7045288,-1.8744507,106.0
293,2.0590868,0.5070114,-0.76078796,1.4124756,-1.7045288,-1.8744507,106.0
294,2.0590868,0.5070114,-0.76078796,1.3009644,-1.6036377,-1.635498,106.0
295,1.8119183,0.52236176,-0.6287613,1.3009644,-1.6036377,-1.635498,106.0
296,1.8119183,0.52236176,-0.6287613,1.085376,-1.44115,-1.4443359,106.0
297,1.8731794,0.38658142,-0.74658966,1.085376,-1.44115,-1.4443359,106.0
298,1.8731794,0.38658142,-0.74658966,0.9483765,-1.173523,-1.2340577,106.0
299,1.9410486,0.22153473,-0.8975525,0.9483765,-1.173523,-1.2340577,106.0
300,1.9410486,0.22153473,-0.8975525,0.8442993,-0.86553955,-0.95581055,106.0
301,1.8256912,0.18678284,-0.82795334,0.8442993,-0.86553955,-0.95581055,106.0
302,1.8256912,0.18678284,-0.82795334,0.6403931,-0.5957886,-0.6637573,106.0
303,1.8256912,0.18678284,-0.82795334,0.6403931,-0.5957886,-0.6637573,102.0
304,1.7059021,0.2644043,-0.5342865,0.6403931,-0.5957886,-0.6637573,102.0
305,1.7059021,0.2644043,-0.5342865,0.3695801,-0.3058594,-0.38338622,102.0
306,1.7482548,0.32741547,-0.21290207,0.3695801,-0.3058594,-0.38338622,102.0
307,1.7482548,0.32741547,-0.21290207,0.027612304,0.053100586,-0.15186767,102.0
308,1.7625561,0.3278885,-0.01694107,0.027612304,0.053100586,-0.15186767,102.0
309,1.7625561,0.3278885,-0.01694107,-0.2782471,0.47578126,0.06478272,102.0
310,1.4019394,0.2749939,0.099666595,-0.2782471,0.47578126,0.06478272,102.0
311,1.4019394,0.2749939,0.099666595,-0.49171144,0.8857178,0.3525879,102.0
312,0.666852,0.18055725,0.28803253,-0.49171144,0.8857178,0.3525879,102.0
313,0.666852,0.18055725,0.28803253,-0.6180908,1.2542359,0.68499756,102.0
314,-0.14177418,0.12703705,0.6395321,-0.6180908,1.2542359,0.68499756,102.0
315,-0.14177418,0.12703705,0.6395321,-0.6818115,1.6078857,1.0768799,102.0
316,-0.8860512,0.16718292,1.1320953,-0.6818115,1.6078857,1.0768799,102.0
317,-0.8860512,0.16718292,1.1320953,-0.75615233,1.9307374,1.454956,102.0
318,-1.6671543,0.18016815,1.5662842,-0.75615233,1.9307374,1.454956,102.0
319,-1.6671543,0.18016815,1.5662842,-0.8952759,2.2918212,1.8436524,102.0
320,-2.7400951,0.10953522,1.6397209,-0.8952759,2.2918212,1.8436524,102.0
321,-2.7400951,0.10953522,1.6397209,-1.1958252,2.5116577,2.2546508,102.0
322,-4.0317974,-0.019683838,1.4141579,-1.1958252,2.5116577,2.2546508,102.0
323,-4.0317974,-0.019683838,1.4141579,-1.5537232,2.6550293,2.8153932,102.0
324,-4.9747543,-0.3618393,1.4066811,-1.5537232,2.6550293,2.8153932,102.0
325,-4.9747543,-0.3618393,1.4066811,-1.8224121,2.611487,3.3379028,102.0
326,-5.094757,-0.95209503,1.9847679,-1.8224121,2.611487,3.3379028,102.0
327,-5.094757,-0.95209503,1.9847679,-1.6769165,2.5159059,3.5556152,102.0
328,-4.5880013,-1.4727478,2.8646812,-1.6769165,2.5159059,3.5556152,102.0
329,-4.5880013,-1.4727478,2.8646812,-1.450708,2.2068603,3.538623,102.0
330,-3.6917763,-1.7942657,3.322239,-1.450708,2.2068603,3.538623,102.0
331,-3.6917763,-1.7942657,3.322239,-1.2531738,1.5420411,3.3294067,102.0
332,-2.0754051,-1.9154663,2.8507576,-1.2531738,1.5420411,3.3294067,102.0
333,-2.0754051,-1.9154663,2.8507576,-0.9420044,0.9632446,2.8355713,102.0
334,0.09259224,-1.6093903,1.7486115,-0.9420044,0.9632446,2.8355713,102.0
335,0.09259224,-1.6093903,1.7486115,-0.93563235,0.6531372,2.0974731,102.0
336,1.9499779,-0.90966797,0.70363617,-0.93563235,0.6531372,2.0974731,102.0
337,1.9499779,-0.90966797,0.70363617,-1.1512207,0.47896728,1.5792115,102.0
338,2.9479342,-0.099975586,-0.04055786,-1.1512207,0.47896728,1.5792115,102.0
339,2.9479342,-0.099975586,-0.04055786,-1.2829102,0.3706421,1.177771,102.0
340,3.26511,0.4366455,-0.6913452,-1.2829102,0.3706421,1.177771,102.0
341,3.26511,0.4366455,-0.6913452,-1.5154908,0.28461915,0.8517334,102.0
342,3.235098,0.33499908,-1.21875,-1.5154908,0.28461915,0.8517334,102.0
343,3.235098,0.33499908,-1.21875,-1.4443359,0.2177124,0.6425171,102.0
344,3.0029716,-0.09992981,-1.4261589,-1.4443359,0.2177124,0.6425171,102.0
345,3.0029716,-0.09992981,-1.4261589,-1.2776002,0.17416993,0.4885254,102.0
346,2.6283789,-0.27952576,-1.3624954,-1.2776002,0.17416993,0.4885254,102.0
347,2.6283789,-0.27952576,-1.3624954,-1.085376,0.14761963,0.41843262,102.0
348,2.1401787,-0.13386536,-1.2281685,-1.085376,0.14761963,0.41843262,102.0
349,2.1401787,-0.13386536,-1.2281685,-0.9398804,0.10620117,0.43117675,102.0
350,1.6019745,0.022590637,-1.100174,-0.9398804,0.10620117,0.43117675,102.0
351,1.6019745,0.022590637,-1.100174,-0.8326172,0.14549561,0.4715332,102.0
352,1.0171757,0.0236969,-0.86748123,-0.8326172,0.14549561,0.4715332,102.0
353,1.0171757,0.0236969,-0.86748123,-0.8421753,0.21558838,0.52888185,102.0
354,0.35467052,-0.058555603,-0.54276276,-0.8421753,0.21558838,0.52888185,102.0
355,0.35467052,-0.058555603,-0.54276276,-0.9505005,0.26337892,0.56180423,102.0
356,-0.3399086,-0.120536804,-0.29011917,-0.9505005,0.26337892,0.56180423,102.0
357,-0.3399086,-0.120536804,-0.29011917,-1.0577637,0.3058594,0.63933104,102.0
358,-0.8191433,-0.14442444,-0.20007706,-1.0577637,0.3058594,0.63933104,102.0
359,-0.8191433,-0.14442444,-0.20007706,-0.996167,0.32072756,0.6510132,102.0
360,-0.8508835,-0.20002747,-0.13103485,-0.996167,0.32072756,0.6510132,102.0
361,-0.8508835,-0.20002747,-0.13103485,-0.6988037,0.38975832,0.56817627,102.0
362,-0.570611,-0.20606995,0.17006302,-0.6988037,0.38975832,0.56817627,102.0
363,-0.570611,-0.20606995,0.17006302,-0.39082032,0.3791382,0.38869628,102.0
364,-0.24679661,-0.16316986,0.647892,-0.39082032,0.3791382,0.38869628,102.0
365,-0.24679661,-0.16316986,0.647892,-0.011682129,0.38763428,0.07646485,102.0
366,-0.23205566,-0.19876099,1.0787888,-0.011682129,0.38763428,0.07646485,102.0
367,-0.23205566,-0.19876099,1.0787888,0.42055663,0.37701416,-0.2782471,102.0
368,-0.762866,-0.13166809,1.2789993,0.42055663,0.37701416,-0.2782471,102.0
369,-0.762866,-0.13166809,1.2789993,0.73597413,0.26550293,-0.5671143,102.0
370,-1.4496365,0.21708679,1.1598206,0.73597413,0.26550293,-0.5671143,102.0
371,-1.4496365,0.21708679,1.1598206,0.7051758,0.058410645,-0.79332274,102.0
372,-1.7997484,0.65584564,0.80532455,0.7051758,0.058410645,-0.79332274,102.0
373,-1.7997484,0.65584564,0.80532455,0.4439209,-0.124255374,-0.9717407,102.0
374,-2.029642,0.8916702,0.37267685,0.4439209,-0.124255374,-0.9717407,102.0
375,-2.029642,0.8916702,0.37267685,0.090270996,-0.1901001,-1.1544068,102.0
376,-2.5802813,0.7730789,0.029903412,0.090270996,-0.1901001,-1.1544068,102.0
377,-2.5802813,0.7730789,0.029903412,-0.06690674,-0.2782471,-1.2446778,102.0
378,-3.1710243,0.49500275,-0.0689621,-0.06690674,-0.2782471,-1.2446778,102.0
379,-3.1710243,0.49500275,-0.0689621,0.025488282,-0.5384399,-1.2128174,102.0
380,-2.8326693,0.30937195,-0.031013489,0.025488282,-0.5384399,-1.2128174,102.0
381,-2.8326693,0.30937195,-0.031013489,0.13806152,-0.8591675,-1.2266235,102.0
382,-1.2211647,0.18184662,-0.2118454,0.13806152,-0.8591675,-1.2266235,102.0
383,-1.2211647,0.18184662,-0.2118454,0.24638672,-0.9770508,-1.4029175,102.0
384,0.34184265,-0.020889282,-0.6556206,0.24638672,-0.9770508,-1.4029175,102.0
385,0.34184265,-0.020889282,-0.6556206,0.46834716,-0.9483765,-1.6567383,102.0
386,0.59558105,-0.25014496,-1.0347252,0.46834716,-0.9483765,-1.6567383,102.0
387,0.59558105,-0.25014496,-1.0347252,0.9165161,-0.9866089,-1.7990478,102.0
388,0.061706543,-0.29125214,-1.1275978,0.9165161,-0.9866089,-1.7990478,102.0
389,0.061706543,-0.29125214,-1.1275978,1.3222046,-1.0343994,-1.8245362,102.0
390,-0.18925667,-0.10607147,-1.002079,1.3222046,-1.0343994,-1.8245362,102.0
391,-0.18925667,-0.10607147,-1.002079,1.5622193,-1.1873292,-1.7969239,102.0
392,0.19992542,0.15335846,-0.8799095,1.5622193,-1.1873292,-1.7969239,102.0
393,0.19992542,0.15335846,-0.8799095,1.4963745,-1.26698,-1.7353271,102.0
394,0.9753952,0.33518982,-0.8910866,1.4963745,-1.26698,-1.7353271,102.0
395,0.9753952,0.33518982,-0.8910866,1.3317627,-1.3614991,-1.7459472,102.0
396,1.801117,0.42858887,-1.004921,1.3317627,-1.3614991,-1.7459472,102.0
397,1.801117,0.42858887,-1.004921,1.1947632,-1.3976074,-1.7894897,102.0
398,2.4632568,0.58019257,-1.0902023,1.1947632,-1.3976074,-1.7894897,102.0
399,2.4632568,0.58019257,-1.0902023,1.0205933,-1.3901733,-1.8436524,102.0
400,2.8201046,0.65748596,-0.9848442,1.0205933,-1.3901733,-1.8436524,102.0
401,2.8201046,0.65748596,-0.9848442,0.8963379,-1.3530029,-1.8563966,102.0
402,2.8121014,0.60367584,-0.7265358,0.8963379,-1.3530029,-1.8563966,102.0
403,2.8121014,0.60367584,-0.7265358,0.903772,-1.3179566,-1.8011719,102.0
404,2.5021954,0.49079132,-0.54465485,0.903772,-1.3179566,-1.8011719,102.0
405,2.5021954,0.49079132,-0.54465485,0.88359374,-1.2988404,-1.7077149,102.0
406,2.0825052,0.41529846,-0.5779228,0.88359374,-1.2988404,-1.7077149,102.0
407,2.0825052,0.41529846,-0.5779228,1.0705079,-1.2457398,-1.6949707,102.0
408,2.0825052,0.41529846,-0.5779228,1.0705079,-1.2457398,-1.6949707,102.0
409,1.6679087,0.46913147,-0.7225914,1.0705079,-1.2457398,-1.6949707,102.0
410,1.6679087,0.46913147,-0.7225914,0.996167,-1.1650269,-1.544165,102.0
411,1.2566414,0.55991364,-0.8248253,0.996167,-1.1650269,-1.544165,102.0
412,1.2566414,0.55991364,-0.8248253,0.91757816,-1.0375855,-1.3774292,102.0
413,0.8621979,0.5884323,-0.8418312,0.91757816,-1.0375855,-1.3774292,102.0
414,0.8621979,0.5884323,-0.8418312,0.70092773,-0.8814697,-1.1416626,102.0
415,0.5334587,0.5716629,-0.8076935,0.70092773,-0.8814697,-1.1416626,102.0
416,0.5334587,0.5716629,-0.8076935,0.43967286,-0.65632325,-0.87403566,102.0
417,0.29358864,0.51327515,-0.76372147,0.43967286,-0.65632325,-0.87403566,102.0
418,0.29358864,0.51327515,-0.76372147,0.14549561,-0.3982544,-0.5522461,102.0
419,0.1845293,0.44901276,-0.7054825,0.14549561,-0.3982544,-0.5522461,102.0
420,0.1845293,0.44901276,-0.7054825,-0.095581055,-0.10301514,-0.21877442,102.0
421,0.22733498,0.53660583,-0.59897995,-0.095581055,-0.10301514,-0.21877442,102.0
422,0.22733498,0.53660583,-0.59897995,-0.40462646,0.2166504,0.15080567,102.0
423,0.27328682,0.7443085,-0.42980576,-0.40462646,0.2166504,0.15080567,102.0
424,0.27328682,0.7443085,-0.42980576,-0.7126099,0.57561034,0.50870365,102.0
425,0.040834427,0.7624283,-0.20197296,-0.7126099,0.57561034,0.50870365,102.0
426,0.040834427,0.7624283,-0.20197296,-0.90270996,0.9197022,0.85491943,102.0
427,-0.5076523,0.51612854,0.22410202,-0.90270996,0.9197022,0.85491943,102.0
428,-0.5076523,0.51612854,0.22410202,-0.9876709,1.1905152,1.177771,102.0
429,-1.1306219,0.19812775,0.79001236,-0.9876709,1.1905152,1.177771,102.0
430,-1.1306219,0.19812775,0.79001236,-1.0269654,1.4007934,1.4613281,102.0
431,-1.8213806,-0.023078918,1.1476707,-1.0269654,1.4007934,1.4613281,102.0
432,-1.8213806,-0.023078918,1.1476707,-1.1660889,1.6068238,1.7321411,102.0
433,-2.7953491,-0.13782501,1.0853004,-1.1660889,1.6068238,1.7321411,102.0
434,-2.7953491,-0.13782501,1.0853004,-1.3838013,1.7746216,2.0464966,102.0
435,-3.8451052,-0.25287628,0.80599594,-1.3838013,1.7746216,2.0464966,102.0
436,-3.8451052,-0.25287628,0.80599594,-1.7831177,1.8309082,2.433069,102.0
437,-4.344346,-0.65249634,0.8300743,-1.7831177,1.8309082,2.433069,102.0
438,-4.344346,-0.65249634,0.8300743,-2.1240234,1.5940796,2.7060058,102.0
439,-3.6734142,-1.3575592,1.3684425,-2.1240234,1.5940796,2.7060058,102.0
440,-3.6734142,-1.3575592,1.3684425,-2.355542,1.2404298,2.7261841,102.0
441,-2.0795155,-1.937706,1.9143105,-2.355542,1.2404298,2.7261841,102.0
442,-2.0795155,-1.937706,1.9143105,-2.1611938,0.8857178,2.4755495,102.0
443,-0.44868279,-2.055107,1.7421913,-2.1611938,0.8857178,2.4755495,102.0
444,-0.44868279,-2.055107,1.7421913,-1.725769,0.55755615,2.162256,102.0
445,0.77264595,-1.7002716,0.7871132,-1.725769,0.55755615,2.162256,102.0
446,0.77264595,-1.7002716,0.7871132,-1.268042,0.48640138,1.6397461,102.0
447,1.4034805,-1.1448975,-0.2776947,-1.268042,0.48640138,1.6397461,102.0
448,1.4034805,-1.1448975,-0.2776947,-0.8666016,0.39613038,1.1565307,102.0
449,1.5925598,-0.6336899,-0.88038254,-0.8666016,0.39613038,1.1565307,102.0
450,1.5925598,-0.6336899,-0.88038254,-0.6775635,0.32178956,0.86341554,102.0
451,1.7022953,-0.13622284,-0.98352814,-0.6775635,0.32178956,0.86341554,102.0
452,1.7022953,-0.13622284,-0.98352814,-0.76358646,0.26975098,0.6085327,102.0
453,1.9370804,0.39401245,-0.8476753,-0.76358646,0.26975098,0.6085327,102.0
454,1.9370804,0.39401245,-0.8476753,-1.1044922,0.21877442,0.47471926,102.0
455,2.292304,0.6341171,-0.6538849,-1.1044922,0.21877442,0.47471926,102.0
456,2.292304,0.6341171,-0.6538849,-1.3115845,0.24957275,0.3812622,102.0
457,2.5601368,0.5115204,-0.40527344,-1.3115845,0.24957275,0.3812622,102.0
458,2.5601368,0.5115204,-0.40527344,-1.3275146,0.24957275,0.3345337,102.0
459,2.5388079,0.40711975,-0.14819336,-1.3275146,0.24957275,0.3345337,102.0
460,2.5388079,0.40711975,-0.14819336,-1.3763672,0.2516968,0.32497558,102.0
461,2.2244186,0.4507599,0.025341034,-1.3763672,0.2516968,0.32497558,102.0
462,2.2244186,0.4507599,0.025341034,-1.2552979,0.2793091,0.29205322,102.0
463,1.7035465,0.5181427,0.11802673,-1.2552979,0.2793091,0.29205322,102.0
464,1.7035465,0.5181427,0.11802673,-0.94731444,0.29417726,0.24001466,102.0
465,1.049922,0.6075058,0.21779633,-0.94731444,0.29417726,0.24001466,102.0
466,1.049922,0.6075058,0.21779633,-0.70198977,0.30161133,0.20284425,102.0
467,0.3182583,0.6878128,0.44623566,-0.70198977,0.30161133,0.20284425,102.0
468,0.3182583,0.6878128,0.44623566,-0.51188964,0.28780517,0.1444336,102.0
469,-0.3188553,0.6216965,0.7885933,-0.51188964,0.28780517,0.1444336,102.0
470,-0.3188553,0.6216965,0.7885933,-0.30267334,0.21240234,0.095581055,102.0
471,-0.68560123,0.45732117,0.97301483,-0.30267334,0.21240234,0.095581055,102.0
472,-0.68560123,0.45732117,0.97301483,-0.13487549,0.17523193,0.0361084,102.0
473,-0.85370636,0.30760193,0.9292679,-0.13487549,0.17523193,0.0361084,102.0
474,-0.85370636,0.30760193,0.9292679,0.09770508,0.1359375,-0.03186035,102.0
475,-0.8464775,0.23774719,0.93024445,0.09770508,0.1359375,-0.03186035,102.0
476,-0.8464775,0.23774719,0.93024445,0.38763428,0.058410645,-0.07646485,102.0
477,-0.6721649,0.20394135,1.0360909,0.38763428,0.058410645,-0.07646485,102.0
478,-0.6721649,0.20394135,1.0360909,0.632959,-0.0021240234,-0.16673584,102.0
479,-0.5726929,0.1084137,1.0458794,0.632959,-0.0021240234,-0.16673584,102.0
480,-0.5726929,0.1084137,1.0458794,0.81243896,-0.08920898,-0.23045655,102.0
481,-0.6967163,-0.048606873,0.8344803,0.81243896,-0.08920898,-0.23045655,102.0
482,-0.6967163,-0.048606873,0.8344803,0.9759888,-0.1996582,-0.24213867,102.0
483,-0.9226446,-0.17577362,0.45597458,0.9759888,-0.1996582,-0.24213867,102.0
484,-0.9226446,-0.17577362,0.45597458,1.0620117,-0.29630128,-0.25063476,102.0
485,-1.0648861,-0.19119263,0.036949158,1.0620117,-0.29630128,-0.25063476,102.0
486,-1.0648861,-0.19119263,0.036949158,1.0620117,-0.4248047,-0.23895264,102.0
487,-1.0593061,-0.19327545,-0.3504219,1.0620117,-0.4248047,-0.23895264,102.0
488,-1.0593061,-0.19327545,-0.3504219,1.0450195,-0.45135498,-0.32497558,102.0
489,-1.5440512,-0.46775818,-0.6041031,1.0450195,-0.45135498,-0.32497558,102.0
490,-1.5440512,-0.46775818,-0.6041031,1.0694458,-0.30373535,-0.40356445,102.0
491,-2.9860954,-0.93592834,-0.53040314,1.0694458,-0.30373535,-0.40356445,102.0
492,-2.9860954,-0.93592834,-0.53040314,1.2999023,-0.38338622,-0.2984253,102.0
493,-3.8472261,-1.2389145,-0.22977829,1.2999023,-0.38338622,-0.2984253,102.0
494,-3.8472261,-1.2389145,-0.22977829,1.450708,-0.7763306,-0.16036378,102.0
495,-2.371482,-1.3704758,-0.24152374,1.450708,-0.7763306,-0.16036378,102.0
496,-2.371482,-1.3704758,-0.24152374,1.5993897,-0.92713624,-0.2782471,102.0
497,0.26972103,-1.5128098,-0.73230743,1.5993897,-0.92713624,-0.2782471,102.0
498,0.26972103,-1.5128098,-0.73230743,1.8245362,-0.8623535,-0.57242435,102.0
499,1.6897144,-1.6393967,-1.2360764,1.8245362,-0.8623535,-0.57242435,102.0
500,1.6897144,-1.6393967,-1.2360764,2.177124,-0.7306641,-0.85598147,102.0
501,1.303957,-1.7222443,-1.4409103,2.177124,-0.7306641,-0.85598147,102.0
502,1.303957,-1.7222443,-1.4409103,2.52334,-0.6881836,-1.0142212,102.0
503,0.1572771,-1.7806625,-1.4278641,2.52334,-0.6881836,-1.0142212,102.0
504,0.1572771,-1.7806625,-1.4278641,2.9109743,-0.7327881,-1.0259033,102.0
505,-0.50199795,-1.6320114,-1.358223,2.9109743,-0.7327881,-1.0259033,102.0
506,-0.50199795,-1.6320114,-1.358223,2.9651368,-0.77739257,-1.0036011,102.0
507,-0.21025372,-1.3132782,-1.1026077,2.9651368,-0.77739257,-1.0036011,102.0
508,-0.21025372,-1.3132782,-1.1026077,2.6932619,-0.7954468,-1.0375855,102.0
509,0.69032955,-1.0404434,-0.6172676,2.6932619,-0.7954468,-1.0375855,102.0
510,0.69032955,-1.0404434,-0.6172676,2.2812011,-0.7880127,-1.1416626,102.0
511,1.5670338,-0.9074631,-0.18102264,2.2812011,-0.7880127,-1.1416626,102.0
512,1.5670338,-0.9074631,-0.18102264,1.8871949,-0.76464844,-1.3285767,102.0
513,2.0256853,-0.81342316,0.015789032,1.8871949,-0.76464844,-1.3285767,102.0
514,2.0256853,-0.81342316,0.015789032,1.6493043,-0.72854006,-1.4815063,102.0
515,2.0611238,-0.66490173,0.06713486,1.6493043,-0.72854006,-1.4815063,102.0
516,2.0611238,-0.66490173,0.06713486,1.5760254,-0.71154785,-1.6195679,102.0
517,1.9037457,-0.4431305,0.1916008,1.5760254,-0.71154785,-1.6195679,102.0
518,1.9037457,-0.4431305,0.1916008,1.5866455,-0.7051758,-1.7066529,102.0
519,1.7329092,-0.140419,0.4114113,1.5866455,-0.7051758,-1.7066529,102.0
520,1.7329092,-0.140419,0.4114113,1.5993897,-0.69986576,-1.7491333,102.0
521,1.7329092,-0.140419,0.4114113,1.5993897,-0.69986576,-1.7491333,102.0
522,1.5873652,0.18987274,0.59235,1.5993897,-0.69986576,-1.7491333,102.0
523,1.5873652,0.18987274,0.59235,1.5303589,-0.68287355,-1.7735596,102.0
524,1.4563065,0.46365356,0.6534958,1.5303589,-0.68287355,-1.7735596,102.0
525,1.4563065,0.46365356,0.6534958,1.4061035,-0.6223389,-1.7586914,102.0
526,1.3299503,0.6816635,0.61564255,1.4061035,-0.6223389,-1.7586914,102.0
527,1.3299503,0.6816635,0.61564255,1.2871583,-0.5533081,-1.725769,102.0
528,1.1811838,0.8489914,0.55978775,1.2871583,-0.5533081,-1.725769,102.0
529,1.1811838,0.8489914,0.55978775,1.175647,-0.43754885,-1.6662964,102.0
530,0.9776993,0.94070435,0.5737343,1.175647,-0.43754885,-1.6662964,102.0
531,0.9776993,0.94070435,0.5737343,1.0790039,-0.32391357,-1.5887696,102.0
532,0.7987852,0.95809174,0.6424713,1.0790039,-0.32391357,-1.5887696,102.0
533,0.7987852,0.95809174,0.6424713,0.99722904,-0.18266602,-1.5016845,102.0
534,0.7145891,0.95378876,0.661705,0.99722904,-0.18266602,-1.5016845,102.0
535,0.7145891,0.95378876,0.661705,0.98448485,-0.022302246,-1.3721192,102.0
536,0.70160294,1.0610275,0.60850143,0.98448485,-0.022302246,-1.3721192,102.0
537,0.70160294,1.0610275,0.60850143,0.9154541,0.18160401,-1.174585,102.0
538,0.73128986,1.304512,0.65431976,0.9154541,0.18160401,-1.174585,102.0
539,0.73128986,1.304512,0.65431976,0.77951664,0.4343628,-0.9197022,102.0
540,0.6838484,1.5542755,1.0188904,0.77951664,0.4343628,-0.9197022,102.0
541,0.6838484,1.5542755,1.0188904,0.61702883,0.6860596,-0.62552494,102.0
542,0.41698837,1.6091156,1.6668091,0.61702883,0.6860596,-0.62552494,102.0
543,0.41698837,1.6091156,1.6668091,0.6064087,0.85704345,-0.3058594,102.0
544,-0.05840206,1.4224472,2.2090683,0.6064087,0.85704345,-0.3058594,102.0
545,-0.05840206,1.4224472,2.2090683,0.6265869,1.0089111,0.038232423,102.0
546,-0.8193531,1.0485535,2.3133354,0.6265869,1.0089111,0.038232423,102.0
547,-0.8193531,1.0485535,2.3133354,0.60322267,1.1947632,0.37382814,102.0
548,-1.8825941,0.63944244,2.0321274,0.60322267,1.1947632,0.37382814,102.0
549,-1.8825941,0.63944244,2.0321274,0.45772704,1.3243287,0.7412842,102.0
550,-2.4715052,0.37101746,1.7009583,0.45772704,1.3243287,0.7412842,102.0
551,-2.4715052,0.37101746,1.7009583,0.13168946,1.2276856,1.1575928,102.0
552,-1.7285833,0.06993103,1.6013184,0.13168946,1.2276856,1.1575928,102.0
553,-1.7285833,0.06993103,1.6013184,-0.22514649,1.183081,1.264856,102.0
554,-0.35001755,-0.44215393,1.6076927,-0.22514649,1.183081,1.264856,102.0
555,-0.35001755,-0.44215393,1.6076927,-0.4439209,1.2213135,1.2032593,102.0
556,0.17596722,-0.9462509,1.4977264,-0.4439209,1.2213135,1.2032593,102.0
557,0.17596722,-0.9462509,1.4977264,-0.39506838,1.2722901,1.1087402,102.0
558,-0.3416605,-1.2250443,1.3143196,-0.39506838,1.2722901,1.1087402,102.0
559,-0.3416605,-1.2250443,1.3143196,-0.007434082,1.2351197,1.1182984,102.0
560,-0.85533524,-1.2498856,1.1774826,-0.007434082,1.2351197,1.1182984,102.0
561,-0.85533524,-1.2498856,1.1774826,0.3802002,1.1660889,1.1437867,102.0
562,-0.70334816,-1.092392,1.0308533,0.3802002,1.1660889,1.1437867,102.0
563,-0.70334816,-1.092392,1.0308533,0.5033936,1.1321045,1.1299804,102.0
564,-0.1594925,-0.952652,0.81635666,0.5033936,1.1321045,1.1299804,102.0
565,-0.1594925,-0.952652,0.81635666,0.5278198,1.1278565,1.088562,102.0
566,0.3031807,-0.934494,0.61302185,0.5278198,1.1278565,1.088562,102.0
567,0.3031807,-0.934494,0.61302185,0.5479981,1.1459106,1.0726318,102.0
568,0.5394325,-0.9952011,0.4936905,0.5479981,1.1459106,1.0726318,102.0
569,0.5394325,-0.9952011,0.4936905,0.5851685,1.1820191,1.0577637,102.0
570,0.53347397,-1.0726242,0.51698685,0.5851685,1.1820191,1.0577637,102.0
571,0.53347397,-1.0726242,0.51698685,0.7051758,1.2202514,1.0747559,102.0
572,0.3118496,-1.1257858,0.6720352,0.7051758,1.2202514,1.0747559,102.0
573,0.3118496,-1.1257858,0.6720352,0.87191164,1.2574219,1.1002442,102.0
574,-0.086336136,-1.1846771,0.9072685,0.87191164,1.2574219,1.1002442,102.0
575,-0.086336136,-1.1846771,0.9072685,1.1416626,1.2860962,1.1193603,102.0
576,-0.5038948,-1.2081528,1.2050514,1.1416626,1.2860962,1.1193603,102.0
577,-0.5038948,-1.2081528,1.2050514,1.4209718,1.2786621,1.1597168,102.0
578,-0.69947815,-1.2151337,1.6139183,1.4209718,1.2786621,1.1597168,102.0
579,-0.69947815,-1.2151337,1.6139183,1.6960328,1.2393677,1.1607789,102.0
580,-0.6439457,-1.2927856,2.1414757,1.6960328,1.2393677,1.1607789,102.0
581,-0.6439457,-1.2927856,2.1414757,2.088977,1.1448487,1.1129884,102.0
582,-0.47114944,-1.3492737,2.6683197,2.088977,1.1448487,1.1129884,102.0
583,-0.47114944,-1.3492737,2.6683197,2.4691772,1.0057251,1.0067872,102.0
584,-0.23928452,-1.2255478,2.9402237,2.4691772,1.0057251,1.0067872,102.0
585,-0.23928452,-1.2255478,2.9402237,2.7909667,0.8358032,0.83049315,102.0
586,-0.0092868805,-0.9687195,2.8861008,2.7909667,0.8358032,0.83049315,102.0
587,-0.0092868805,-0.9687195,2.8861008,3.0522218,0.6616333,0.5915405,102.0
588,0.10096836,-0.6897125,2.7197838,3.0522218,0.6616333,0.5915405,102.0
589,0.10096836,-0.6897125,2.7197838,3.1467407,0.42905274,0.3536499,102.0
590,0.02678299,-0.37654877,2.583908,3.1467407,0.42905274,0.3536499,102.0
591,0.02678299,-0.37654877,2.583908,3.1626709,0.14761963,0.13168946,102.0
592,-0.11735535,0.05937195,2.444603,3.1626709,0.14761963,0.13168946,102.0
593,-0.11735535,0.05937195,2.444603,3.0426636,-0.16567384,-0.0722168,102.0
594,-0.15772629,0.4065094,2.2494316,3.0426636,-0.16567384,-0.0722168,102.0
595,-0.15772629,0.4065094,2.2494316,2.9194703,-0.32391357,-0.18054199,102.0
596,-0.49162292,0.8972397,1.3534279,2.9194703,-0.32391357,-0.18054199,102.0
597,-0.49162292,0.8972397,1.3534279,2.5488281,-0.74022216,-0.5150757,102.0
598,-0.43001652,0.9729309,0.92629623,2.5488281,-0.74022216,-0.5150757,102.0
599,-0.43001652,0.9729309,0.92629623,2.4521852,-0.84111327,-0.62340087,102.0
600,-0.78388214,0.84780884,-0.13659668,2.4521852,-0.84111327,-0.62340087,102.0
601,-0.78388214,0.84780884,-0.13659668,2.440503,-1.081128,-0.8581055,102.0
602,-0.71580124,0.8888321,-0.21051025,2.440503,-1.081128,-0.8581055,102.0
603,-0.71580124,0.8888321,-0.21051025,2.4543092,-1.1267945,-0.9303223,102.0
604,-2.1683807,0.59563446,-0.7496567,2.4543092,-1.1267945,-0.9303223,102.0
605,-2.1683807,0.59563446,-0.7496567,2.5095336,-1.1129884,-1.1119263,102.0
606,-2.5432014,0.6145325,-0.6167679,2.5095336,-1.1129884,-1.1119263,102.0
607,-2.5432014,0.6145325,-0.6167679,2.5998046,-1.1852051,-1.0747559,102.0
608,-2.5432014,0.6145325,-0.6167679,2.5998046,-1.1852051,-1.0747559,103.0
609,-3.950882,0.59550476,-0.90044403,2.5998046,-1.1852051,-1.0747559,103.0
610,-3.950882,0.59550476,-0.90044403,2.6709595,-1.6917847,-0.9770508,103.0
611,-2.6494265,0.86019135,-1.0078697,2.6709595,-1.6917847,-0.9770508,103.0
612,-2.6494265,0.86019135,-1.0078697,2.625293,-1.7268311,-1.0301514,103.0
613,0.6671524,1.222847,-1.7323341,2.625293,-1.7268311,-1.0301514,103.0
614,0.6671524,1.222847,-1.7323341,2.52334,-1.5707153,-1.2053833,103.0
615,1.4525204,1.4246902,-1.3338318,2.52334,-1.5707153,-1.2053833,103.0
616,1.4525204,1.4246902,-1.3338318,2.5254638,-1.537793,-1.2308716,103.0
617,1.8113203,1.5794754,-0.22973633,2.5254638,-1.537793,-1.2308716,103.0
618,1.8113203,1.5794754,-0.22973633,2.5690064,-1.5229248,-1.26698,103.0
619,1.463253,1.6069641,-0.05000305,2.5690064,-1.5229248,-1.26698,103.0
620,1.463253,1.6069641,-0.05000305,2.5913086,-1.5229248,-1.2531738,103.0
621,0.73847294,1.6209869,-0.42790604,2.5913086,-1.5229248,-1.2531738,103.0
622,0.73847294,1.6209869,-0.42790604,2.5562623,-1.6142578,-1.1087402,103.0
623,0.79966545,1.7761154,-0.6613045,2.5562623,-1.6142578,-1.1087402,103.0
624,0.79966545,1.7761154,-0.6613045,2.461743,-1.6588624,-1.0875,103.0
625,1.8193588,2.298355,-0.9785919,2.461743,-1.6588624,-1.0875,103.0
626,1.8193588,2.298355,-0.9785919,1.9169312,-1.7055908,-1.1448487,103.0
627,2.1444273,2.3067245,-0.901783,1.9169312,-1.7055908,-1.1448487,103.0
628,2.1444273,2.3067245,-0.901783,1.6769165,-1.6896607,-1.2223755,103.0
629,2.8016386,2.2840042,-0.6791687,1.6769165,-1.6896607,-1.2223755,103.0
630,2.8016386,2.2840042,-0.6791687,1.2765381,-1.629126,-1.3423828,103.0
631,2.9465847,2.0928879,-0.46855545,1.2765381,-1.629126,-1.3423828,103.0
632,2.9465847,2.0928879,-0.46855545,1.088562,-1.5335449,-1.4347779,103.0
633,2.6264324,1.8941498,-0.2918625,1.088562,-1.5335449,-1.4347779,103.0
634,2.6264324,1.8941498,-0.2918625,1.1437867,-1.4262818,-1.4613281,103.0
635,2.1497183,1.7975922,-0.26188278,1.1437867,-1.4262818,-1.4613281,103.0
636,2.1497183,1.7975922,-0.26188278,1.3328247,-1.3275146,-1.4262818,103.0
637,1.6511593,1.8624649,-0.5440407,1.3328247,-1.3275146,-1.4262818,103.0
638,1.6511593,1.8624649,-0.5440407,1.6089478,-1.1246704,-1.3296387,103.0
639,1.2993574,1.8639679,-0.65815735,1.6089478,-1.1246704,-1.3296387,103.0
640,1.2993574,1.8639679,-0.65815735,1.6737305,-1.0651978,-1.3158325,103.0
641,0.7643757,2.0406494,-0.55363464,1.6737305,-1.0651978,-1.3158325,103.0
642,0.7643757,2.0406494,-0.55363464,1.6885986,-0.90270996,-1.270166,103.0
643,0.5400162,2.0532684,-0.5183487,1.6885986,-0.90270996,-1.270166,103.0
644,0.5400162,2.0532684,-0.5183487,1.629126,-0.85385746,-1.269104,103.0
645,0.37040424,2.2995758,-0.4680977,1.629126,-0.85385746,-1.269104,103.0
646,0.37040424,2.2995758,-0.4680977,1.4145997,-0.74659425,-1.2032593,103.0
647,0.43034458,2.530281,-0.5044098,1.4145997,-0.74659425,-1.2032593,103.0
648,0.43034458,2.530281,-0.5044098,1.0705079,-0.60322267,-1.1416626,103.0
649,0.6317997,2.5943909,-0.47509766,1.0705079,-0.60322267,-1.1416626,103.0
650,0.6317997,2.5943909,-0.47509766,0.7306641,-0.42905274,-1.0694458,103.0
651,0.84502697,2.4743652,-0.22006989,0.7306641,-0.42905274,-1.0694458,103.0
652,0.84502697,2.4743652,-0.22006989,0.49277344,-0.23895264,-0.9855469,103.0
653,0.9998379,2.3035889,0.21599579,0.49277344,-0.23895264,-0.9855469,103.0
654,0.9998379,2.3035889,0.21599579,0.36320803,-0.032922365,-0.88253176,103.0
655,1.100029,2.1081161,0.68881226,0.36320803,-0.032922365,-0.88253176,103.0
656,1.100029,2.1081161,0.68881226,0.33665773,0.16142578,-0.7614624,103.0
657,1.2518373,1.904953,1.0547104,0.33665773,0.16142578,-0.7614624,103.0
658,1.2518373,1.904953,1.0547104,0.35152587,0.35046387,-0.6467652,103.0
659,1.4002371,1.6934662,1.3558388,0.35152587,0.35046387,-0.6467652,103.0
660,1.4002371,1.6934662,1.3558388,0.3727661,0.52038574,-0.56180423,103.0
661,1.3373404,1.4383774,1.6597328,0.3727661,0.52038574,-0.56180423,103.0
662,1.3373404,1.4383774,1.6597328,0.4970215,0.66588134,-0.50233155,103.0
663,0.9810538,1.1802139,1.989563,0.4970215,0.66588134,-0.50233155,103.0
664,0.9810538,1.1802139,1.989563,0.6860596,0.75721437,-0.41949463,103.0
665,0.46542168,1.0377731,2.165966,0.6860596,0.75721437,-0.41949463,103.0
666,0.46542168,1.0377731,2.165966,0.8092529,0.8028809,-0.34833986,103.0
667,-0.014101028,0.9805374,2.0337257,0.8092529,0.8028809,-0.34833986,103.0
668,-0.014101028,0.9805374,2.0337257,0.817749,0.8241211,-0.26444092,103.0
669,-0.39515543,0.90795135,1.7185211,0.817749,0.8241211,-0.26444092,103.0
670,-0.39515543,0.90795135,1.7185211,0.6956177,0.8358032,-0.17523193,103.0
671,-0.7396717,0.7889862,1.5027313,0.6956177,0.8358032,-0.17523193,103.0
672,-0.7396717,0.7889862,1.5027313,0.50020754,0.83049315,-0.05522461,103.0
673,-1.0222912,0.62823486,1.5439949,0.50020754,0.83049315,-0.05522461,103.0
674,-1.0222912,0.62823486,1.5439949,0.3079834,0.79013675,0.070092775,103.0
675,-1.036644,0.38462067,1.6981697,0.3079834,0.79013675,0.070092775,103.0
676,-1.036644,0.38462067,1.6981697,0.14549561,0.727478,0.15717773,103.0
677,-0.75806236,0.10496521,1.7369537,0.14549561,0.727478,0.15717773,103.0
678,-0.75806236,0.10496521,1.7369537,0.06159668,0.6796875,0.23045655,103.0
679,-0.41591024,-0.12882233,1.5868759,0.06159668,0.6796875,0.23045655,103.0
680,-0.41591024,-0.12882233,1.5868759,0.060534667,0.635083,0.2538208,103.0
681,-0.19793844,-0.25139618,1.2863464,0.060534667,0.635083,0.2538208,103.0
682,-0.19793844,-0.25139618,1.2863464,0.10195313,0.5894165,0.24638672,103.0
683,-0.12162018,-0.26756287,0.9258423,0.10195313,0.5894165,0.24638672,103.0
684,-0.12162018,-0.26756287,0.9258423,0.14868164,0.542688,0.22939454,103.0
685,-0.1433649,-0.19120789,0.5834503,0.14868164,0.542688,0.22939454,103.0
686,-0.1433649,-0.19120789,0.5834503,0.18691407,0.50233155,0.2166504,103.0
687,-0.2197094,-0.04637146,0.32409668,0.18691407,0.50233155,0.2166504,103.0
688,-0.2197094,-0.04637146,0.32409668,0.1359375,0.45347902,0.21240234,103.0
689,-0.28150463,0.08304596,0.14499664,0.1359375,0.45347902,0.21240234,103.0
690,-0.28150463,0.08304596,0.14499664,-0.010620117,0.41099855,0.22196046,103.0
691,-0.26715946,0.11643982,-0.036323547,-0.010620117,0.41099855,0.22196046,103.0
692,-0.26715946,0.11643982,-0.036323547,-0.18903808,0.39613038,0.24851075,103.0
693,-0.18500423,0.029129028,-0.1823082,-0.18903808,0.39613038,0.24851075,103.0
694,-0.18500423,0.029129028,-0.1823082,-0.30054933,0.39400634,0.28780517,103.0
695,-0.08005905,-0.13917542,-0.21072769,-0.30054933,0.39400634,0.28780517,103.0
696,-0.08005905,-0.13917542,-0.21072769,-0.35046387,0.40144044,0.32603762,103.0
697,0.03476906,-0.2966156,-0.16086578,-0.35046387,0.40144044,0.32603762,103.0
698,0.03476906,-0.2966156,-0.16086578,-0.32072756,0.40993652,0.35789797,103.0
699,0.13009739,-0.3723297,-0.10783386,-0.32072756,0.40993652,0.35789797,103.0
700,0.13009739,-0.3723297,-0.10783386,-0.270813,0.41737062,0.3802002,103.0
701,0.20532322,-0.36506653,-0.08704758,-0.270813,0.41737062,0.3802002,103.0
702,0.20532322,-0.36506653,-0.08704758,-0.21877442,0.42374268,0.38551027,103.0
703,0.22834587,-0.30625153,-0.13184357,-0.21877442,0.42374268,0.38551027,103.0
704,0.22834587,-0.30625153,-0.13184357,-0.18797608,0.44923097,0.38338622,103.0
705,0.07306957,-0.23345184,-0.2612381,-0.18797608,0.44923097,0.38338622,103.0
706,0.07306957,-0.23345184,-0.2612381,-0.21558838,0.50233155,0.38338622,103.0
707,-0.3450718,-0.20801544,-0.4079666,-0.21558838,0.50233155,0.38338622,103.0
708,-0.3450718,-0.20801544,-0.4079666,-0.2888672,0.5692383,0.38763428,103.0
709,-0.89274406,-0.23361206,-0.44443893,-0.2888672,0.5692383,0.38763428,103.0
710,-0.89274406,-0.23361206,-0.44443893,-0.41312256,0.6265869,0.40356445,103.0
711,-1.250926,-0.26109314,-0.31296158,-0.41312256,0.6265869,0.40356445,103.0
712,-1.250926,-0.26109314,-0.31296158,-0.5894165,0.6605713,0.4333008,103.0
713,-1.1966028,-0.32084656,-0.06116104,-0.5894165,0.6605713,0.4333008,103.0
714,-1.1966028,-0.32084656,-0.06116104,-0.5894165,0.6605713,0.4333008,104.0
715,-1.1966028,-0.32084656,-0.06116104,-0.7508423,0.68287355,0.44710693,104.0
716,-0.7351017,-0.4414749,0.20832443,-0.7508423,0.68287355,0.44710693,104.0
717,-0.7351017,-0.4414749,0.20832443,-0.82836914,0.68924564,0.45135498,104.0
718,-0.103058815,-0.59835815,0.45773697,-0.82836914,0.68924564,0.45135498,104.0
719,-0.103058815,-0.59835815,0.45773697,-0.79013675,0.7168579,0.4322388,104.0
720,0.4058094,-0.736496,0.65156555,-0.79013675,0.7168579,0.4322388,104.0
721,0.4058094,-0.736496,0.65156555,-0.6244629,0.77102053,0.4163086,104.0
722,0.60977936,-0.70067596,0.75839996,-0.6244629,0.77102053,0.4163086,104.0
723,0.60977936,-0.70067596,0.75839996,-0.47896728,0.8209351,0.41737062,104.0
724,0.54160786,-0.48731232,0.7654114,-0.47896728,0.8209351,0.41737062,104.0
725,0.54160786,-0.48731232,0.7654114,-0.38551027,0.84111327,0.4322388,104.0
726,0.3342018,-0.31433868,0.7117691,-0.38551027,0.84111327,0.4322388,104.0
727,0.3342018,-0.31433868,0.7117691,-0.35683593,0.8496094,0.45560303,104.0
728,0.09029865,-0.24964142,0.6371155,-0.35683593,0.8496094,0.45560303,104.0
729,0.09029865,-0.24964142,0.6371155,-0.45029297,0.84748536,0.4959595,104.0
730,-0.18562222,-0.29537964,0.56401443,-0.45029297,0.84748536,0.4959595,104.0
731,-0.18562222,-0.29537964,0.56401443,-0.6775635,0.82836914,0.5363159,104.0
732,-0.46347618,-0.442276,0.5165062,-0.6775635,0.82836914,0.5363159,104.0
733,-0.46347618,-0.442276,0.5165062,-0.9218262,0.80181885,0.5564942,104.0
734,-0.6868086,-0.6883774,0.5412674,-0.9218262,0.80181885,0.5564942,104.0
735,-0.6868086,-0.6883774,0.5412674,-1.0959961,0.7805786,0.55755615,104.0
736,-0.78986454,-0.9901657,0.6574516,-1.0959961,0.7805786,0.55755615,104.0
737,-0.78986454,-0.9901657,0.6574516,-1.1129884,0.75296634,0.5331299,104.0
738,-0.7471752,-1.195343,0.79537964,-1.1129884,0.75296634,0.5331299,104.0
739,-0.7471752,-1.195343,0.79537964,-0.998291,0.72854006,0.48533937,104.0
740,-0.6401844,-1.2172775,0.827858,-0.998291,0.72854006,0.48533937,104.0
741,-0.6401844,-1.2172775,0.827858,-0.83474123,0.69986576,0.4258667,104.0
742,-0.6096935,-1.08564,0.79864883,-0.83474123,0.69986576,0.4258667,104.0
743,-0.6096935,-1.08564,0.79864883,-0.60109866,0.65207523,0.3345337,104.0
744,-0.66902924,-0.84893036,0.84849167,-0.60109866,0.65207523,0.3345337,104.0
745,-0.66902924,-0.84893036,0.84849167,-0.5246338,0.54693604,0.2782471,104.0
746,-0.6383848,-0.5068817,0.8446274,-0.5246338,0.54693604,0.2782471,104.0
747,-0.6383848,-0.5068817,0.8446274,-0.55968016,0.45772704,0.2081543,104.0
748,-0.57236576,-0.2454834,0.65776825,-0.55968016,0.45772704,0.2081543,104.0
749,-0.57236576,-0.2454834,0.65776825,-0.67225343,0.37701416,0.1539917,104.0
750,-0.67009926,-0.17523956,0.42245483,-0.67225343,0.37701416,0.1539917,104.0
751,-0.67009926,-0.17523956,0.42245483,-0.7986328,0.24320069,0.10089111,104.0
752,-0.74379444,-0.16121674,0.2189064,-0.7986328,0.24320069,0.10089111,104.0
753,-0.74379444,-0.16121674,0.2189064,-1.1076783,0.13062744,0.0637207,104.0
754,-0.58756447,-0.2202301,-0.004135132,-1.1076783,0.13062744,0.0637207,104.0
755,-0.58756447,-0.2202301,-0.004135132,-1.3816773,0.0361084,0.016992187,104.0
756,-0.289814,-0.44693756,-0.28305817,-1.3816773,0.0361084,0.016992187,104.0
757,-0.289814,-0.44693756,-0.28305817,-1.539917,-0.0031860352,-0.046728518,104.0
758,-0.1655178,-0.76911926,-0.5785217,-1.539917,-0.0031860352,-0.046728518,104.0
759,-0.1655178,-0.76911926,-0.5785217,-1.5335449,0.04248047,-0.087084964,104.0
760,-0.60304356,-1.0838242,-0.78199387,-1.5335449,0.04248047,-0.087084964,104.0
761,-0.60304356,-1.0838242,-0.78199387,-1.3795532,0.15930176,-0.078588866,104.0
762,-1.6080322,-1.3375015,-0.7777786,-1.3795532,0.15930176,-0.078588866,104.0
763,-1.6080322,-1.3375015,-0.7777786,-1.2011353,0.26337892,0.0063720704,104.0
764,-2.6156502,-1.5093231,-0.53526306,-1.2011353,0.26337892,0.0063720704,104.0
765,-2.6156502,-1.5093231,-0.53526306,-0.96430665,0.28355715,0.12531738,104.0
766,-2.8864174,-1.5837631,-0.18591309,-0.96430665,0.28355715,0.12531738,104.0
767,-2.8864174,-1.5837631,-0.18591309,-0.6966797,0.2527588,0.24851075,104.0
768,-2.1930943,-1.5114594,0.011180878,-0.6966797,0.2527588,0.24851075,104.0
769,-2.1930943,-1.5114594,0.011180878,-0.5076416,0.23151855,0.24532472,104.0
770,-1.067646,-1.3177032,-0.017093658,-0.5076416,0.23151855,0.24532472,104.0
771,-1.067646,-1.3177032,-0.017093658,-0.36639404,0.21558838,0.14761963,104.0
772,-0.014724731,-1.0990753,-0.031475067,-0.36639404,0.21558838,0.14761963,104.0
773,-0.014724731,-1.0990753,-0.031475067,-0.12956543,0.13487549,0.028674318,104.0
774,0.8987675,-0.8414688,0.05298233,-0.12956543,0.13487549,0.028674318,104.0
775,0.8987675,-0.8414688,0.05298233,0.07540283,0.012744141,-0.070092775,104.0
776,1.6228104,-0.5699158,5.493164E-4,0.07540283,0.012744141,-0.070092775,104.0
777,1.6228104,-0.5699158,5.493164E-4,0.29205322,-0.11363526,-0.20921631,104.0
778,1.938983,-0.33294678,-0.24410248,0.29205322,-0.11363526,-0.20921631,104.0
779,1.938983,-0.33294678,-0.24410248,0.5055176,-0.20921631,-0.33771974,104.0
780,1.7788229,-0.09635925,-0.46936798,0.5055176,-0.20921631,-0.33771974,104.0
781,1.7788229,-0.09635925,-0.46936798,0.7189819,-0.2888672,-0.42268068,104.0
782,1.3237419,0.10758209,-0.51078796,0.7189819,-0.2888672,-0.42268068,104.0
783,1.3237419,0.10758209,-0.51078796,0.9430664,-0.4078125,-0.4800293,104.0
784,0.82658386,0.22164917,-0.42937088,0.9430664,-0.4078125,-0.4800293,104.0
785,0.82658386,0.22164917,-0.42937088,1.1480347,-0.5501221,-0.5161377,104.0
786,0.5069828,0.3150177,-0.38607407,1.1480347,-0.5501221,-0.5161377,104.0
787,0.5069828,0.3150177,-0.38607407,1.1990112,-0.7041138,-0.5331299,104.0
788,0.47743702,0.44680023,-0.49533463,1.1990112,-0.7041138,-0.5331299,104.0
789,0.47743702,0.44680023,-0.49533463,1.0705079,-0.84323734,-0.5703003,104.0
790,0.6598425,0.5385437,-0.75414276,1.0705079,-0.84323734,-0.5703003,104.0
791,0.6598425,0.5385437,-0.75414276,0.9526245,-0.94412845,-0.6446411,104.0
792,0.9418268,0.56186676,-1.0443573,0.9526245,-0.94412845,-0.6446411,104.0
793,0.9418268,0.56186676,-1.0443573,0.8729736,-1.0089111,-0.7051758,104.0
794,1.2297192,0.58908844,-1.2184563,0.8729736,-1.0089111,-0.7051758,104.0
795,1.2297192,0.58908844,-1.2184563,0.7943848,-1.0036011,-0.7614624,104.0
796,1.3884392,0.63640594,-1.2043304,0.7943848,-1.0036011,-0.7614624,104.0
797,1.3884392,0.63640594,-1.2043304,0.70305175,-0.9430664,-0.80606693,104.0
798,1.307456,0.7047577,-1.0249138,0.70305175,-0.9430664,-0.80606693,104.0
799,1.307456,0.7047577,-1.0249138,0.67331547,-0.87403566,-0.81243896,104.0
800,1.048626,0.7691803,-0.8069191,0.67331547,-0.87403566,-0.81243896,104.0
801,1.048626,0.7691803,-0.8069191,0.7349121,-0.8262451,-0.78376466,104.0
802,0.7536955,0.86302185,-0.66085434,0.7349121,-0.8262451,-0.78376466,104.0
803,0.7536955,0.86302185,-0.66085434,0.8772217,-0.7986328,-0.71791995,104.0
804,0.542861,1.0203247,-0.6505585,0.8772217,-0.7986328,-0.71791995,104.0
805,0.542861,1.0203247,-0.6505585,0.94731444,-0.7742066,-0.6552612,104.0
806,0.41945744,1.2082062,-0.7939911,0.94731444,-0.7742066,-0.6552612,104.0
807,0.41945744,1.2082062,-0.7939911,0.9143921,-0.7147339,-0.6180908,104.0
808,0.20974827,1.3737183,-1.0011597,0.9143921,-0.7147339,-0.6180908,104.0
809,0.20974827,1.3737183,-1.0011597,0.8496094,-0.62340087,-0.5798584,104.0
810,-0.14988899,1.5039597,-1.0945206,0.8496094,-0.62340087,-0.5798584,104.0
811,-0.14988899,1.5039597,-1.0945206,0.75509036,-0.5161377,-0.5012695,104.0
812,-0.14988899,1.5039597,-1.0945206,0.75509036,-0.5161377,-0.5012695,104.0
813,-0.46344185,1.6166306,-1.0362015,0.75509036,-0.5161377,-0.5012695,104.0
814,-0.46344185,1.6166306,-1.0362015,0.5968506,-0.4056885,-0.40144044,104.0
815,-0.54897594,1.6688538,-0.93139267,0.5968506,-0.4056885,-0.40144044,104.0
816,-0.54897594,1.6688538,-0.93139267,0.3802002,-0.26868898,-0.29205322,104.0
817,-0.5022545,1.609436,-0.7683296,0.3802002,-0.26868898,-0.29205322,104.0
818,-0.5022545,1.609436,-0.7683296,0.31116945,-0.058410645,-0.14018555,104.0
819,-0.6225071,1.4988251,-0.3863907,0.31116945,-0.058410645,-0.14018555,104.0
820,-0.6225071,1.4988251,-0.3863907,0.30479738,0.14974366,0.03079834,104.0
821,-1.0087843,1.3851929,0.08524704,0.30479738,0.14974366,0.03079834,104.0
822,-1.0087843,1.3851929,0.08524704,0.27612305,0.2984253,0.22833252,104.0
823,-1.3344326,1.2513199,0.25891113,0.27612305,0.2984253,0.22833252,104.0
824,-1.3344326,1.2513199,0.25891113,0.19647217,0.40250245,0.3982544,104.0
825,-1.332756,1.0956268,0.14241791,0.19647217,0.40250245,0.3982544,104.0
826,-1.332756,1.0956268,0.14241791,0.0541626,0.5065796,0.5851685,104.0
827,-1.250165,0.8899307,0.12033081,0.0541626,0.5065796,0.5851685,104.0
828,-1.250165,0.8899307,0.12033081,-0.17629395,0.60959476,0.74022216,104.0
829,-1.4932709,0.6231613,0.21629715,-0.17629395,0.60959476,0.74022216,104.0
830,-1.4932709,0.6231613,0.21629715,-0.5703003,0.72641605,0.88040775,104.0
831,-2.0059204,0.22168732,0.19424057,-0.5703003,0.72641605,0.88040775,104.0
832,-2.0059204,0.22168732,0.19424057,-1.002539,0.8209351,1.0683838,104.0
833,-2.1919441,-0.41281128,0.23059845,-1.002539,0.8209351,1.0683838,104.0
834,-2.1919441,-0.41281128,0.23059845,-1.3657471,0.813501,1.2499878,104.0
835,-1.2594643,-1.1320953,0.5436859,-1.3657471,0.813501,1.2499878,104.0
836,-1.2594643,-1.1320953,0.5436859,-1.5781494,0.7168579,1.3094605,104.0
837,0.7897301,-1.6676483,0.92211914,-1.5781494,0.7168579,1.3094605,104.0
838,0.7897301,-1.6676483,0.92211914,-1.3986695,0.62127686,1.2510499,104.0
839,2.8048067,-1.9032822,1.0926285,-1.3986695,0.62127686,1.2510499,104.0
840,2.8048067,-1.9032822,1.0926285,-0.8581055,0.6202149,1.0099732,104.0
841,3.5924177,-1.7170944,1.1917152,-0.8581055,0.6202149,1.0099732,104.0
842,3.5924177,-1.7170944,1.1917152,-0.26019287,0.73809814,0.79332274,104.0
843,2.9433804,-1.1060638,1.3410912,-0.26019287,0.73809814,0.79332274,104.0
844,2.9433804,-1.1060638,1.3410912,0.14549561,0.74659425,0.69349366,104.0
845,1.7243462,-0.3894043,1.2462463,0.14549561,0.74659425,0.69349366,104.0
846,1.7243462,-0.3894043,1.2462463,0.11044922,0.7168579,0.71791995,104.0
847,0.8046961,0.057029724,0.654953,0.11044922,0.7168579,0.71791995,104.0
848,0.8046961,0.057029724,0.654953,-0.24213867,0.59897465,0.727478,104.0
849,0.31854916,0.10460663,-0.18313217,-0.24213867,0.59897465,0.727478,104.0
850,0.31854916,0.10460663,-0.18313217,-0.80819094,0.5171997,0.8071289,104.0
851,0.033135414,-0.2585907,-0.7302933,-0.80819094,0.5171997,0.8071289,104.0
852,0.033135414,-0.2585907,-0.7302933,-1.2128174,0.53525394,0.89208984,104.0
853,-0.24658775,-1.0081787,-0.58922577,-1.2128174,0.53525394,0.89208984,104.0
854,-0.24658775,-1.0081787,-0.58922577,-1.3041505,0.59897465,0.9505005,104.0
855,-0.48146248,-1.7714462,0.043476105,-1.3041505,0.59897465,0.9505005,104.0
856,-0.48146248,-1.7714462,0.043476105,-1.170337,0.634021,0.96430665,104.0
857,-0.48202038,-2.1247406,0.57816315,-1.170337,0.634021,0.96430665,104.0
858,-0.48202038,-2.1247406,0.57816315,-0.9632446,0.6701294,0.9303223,104.0
859,-0.28449345,-1.9991913,0.6816368,-0.9632446,0.6701294,0.9303223,104.0
860,-0.28449345,-1.9991913,0.6816368,-0.8358032,0.74022216,0.811377,104.0
861,-0.10753822,-1.52742,0.4482994,-0.8358032,0.74022216,0.811377,104.0
862,-0.10753822,-1.52742,0.4482994,-0.81031495,0.77526855,0.6531372,104.0
863,-0.015095711,-0.989151,0.12150574,-0.81031495,0.77526855,0.6531372,104.0
864,-0.015095711,-0.989151,0.12150574,-0.92501223,0.80181885,0.49064943,104.0
865,-0.012198448,-0.75691223,0.008506775,-0.92501223,0.80181885,0.49064943,104.0
866,-0.012198448,-0.75691223,0.008506775,-1.0057251,0.85491943,0.34940186,104.0
867,-0.28350163,-0.79325867,0.34989548,-1.0057251,0.85491943,0.34940186,104.0
868,-0.28350163,-0.79325867,0.34989548,-0.88359374,0.9133301,0.29736328,104.0
869,-0.99843216,-0.82631683,1.0110054,-0.88359374,0.9133301,0.29736328,104.0
870,-0.99843216,-0.82631683,1.0110054,-0.47471926,0.903772,0.30373535,104.0
871,-1.7246609,-0.69740295,1.4852448,-0.47471926,0.903772,0.30373535,104.0
872,-1.7246609,-0.69740295,1.4852448,-0.22939454,0.73597413,0.3451538,104.0
873,-1.7491255,-0.5068741,1.2689667,-0.22939454,0.73597413,0.3451538,104.0
874,-1.7491255,-0.5068741,1.2689667,-0.27399904,0.59897465,0.29417726,104.0
875,-1.1310749,-0.45614624,0.56845856,-0.27399904,0.59897465,0.29417726,104.0
876,-1.1310749,-0.45614624,0.56845856,-0.3727661,0.56392825,0.14337158,104.0
877,-0.56081676,-0.5412369,0.2605896,-0.3727661,0.56392825,0.14337158,104.0
878,-0.56081676,-0.5412369,0.2605896,-0.35895997,0.54587406,-0.02442627,104.0
879,-0.6049156,-0.53354645,0.72276306,-0.35895997,0.54587406,-0.02442627,104.0
880,-0.6049156,-0.53354645,0.72276306,-0.14549561,0.45454103,-0.1731079,104.0
881,-1.2231531,-0.38323212,1.2487183,-0.14549561,0.45454103,-0.1731079,104.0
882,-1.2231531,-0.38323212,1.2487183,0.0,0.31329346,-0.3462158,104.0
883,-1.7752876,-0.20518494,0.95583344,0.0,0.31329346,-0.3462158,104.0
884,-1.7752876,-0.20518494,0.95583344,0.0361084,0.19647217,-0.54906005,104.0
885,-1.8554592,0.009841919,-0.09693909,0.0361084,0.19647217,-0.54906005,104.0
886,-1.8554592,0.009841919,-0.09693909,-0.16673584,0.2081543,-0.721106,104.0
887,-2.0187054,0.13367462,-0.6841202,-0.16673584,0.2081543,-0.721106,104.0
888,-2.0187054,0.13367462,-0.6841202,-0.15717773,0.2793091,-0.8421753,104.0
889,-2.7141457,-0.17703247,0.15366745,-0.15717773,0.2793091,-0.8421753,104.0
890,-2.7141457,-0.17703247,0.15366745,0.06478272,0.25913087,-0.88996583,104.0
891,-3.2037878,-0.72356415,1.7082214,0.06478272,0.25913087,-0.88996583,104.0
892,-3.2037878,-0.72356415,1.7082214,0.6711914,-0.009558106,-0.7784546,104.0
893,-2.3526049,-0.87187195,2.5609589,0.6711914,-0.009558106,-0.7784546,104.0
894,-2.3526049,-0.87187195,2.5609589,1.4124756,-0.4364868,-0.634021,104.0
895,-0.38755226,-0.6014404,2.0270996,1.4124756,-0.4364868,-0.634021,104.0
896,-0.38755226,-0.6014404,2.0270996,1.8340943,-0.7593384,-0.72216797,104.0
897,1.0068645,-0.1621933,0.46003342,1.8340943,-0.7593384,-0.72216797,104.0
898,1.0068645,-0.1621933,0.46003342,1.9997681,-0.9696167,-0.9696167,104.0
899,0.896678,0.48065948,-1.1252213,1.9997681,-0.9696167,-0.9696167,104.0
900,0.896678,0.48065948,-1.1252213,1.8245362,-1.268042,-1.1161743,104.0
901,0.13591003,1.0459518,-1.855133,1.8245362,-1.268042,-1.1161743,104.0
902,0.13591003,1.0459518,-1.855133,1.442212,-1.713025,-1.1926392,104.0
903,-0.05518818,1.1676102,-1.8351669,1.442212,-1.713025,-1.1926392,104.0
904,-0.05518818,1.1676102,-1.8351669,1.4252198,-2.0358765,-1.2765381,104.0
905,0.42336655,0.8985214,-1.7219772,1.4252198,-2.0358765,-1.2765381,104.0
906,0.42336655,0.8985214,-1.7219772,1.5016845,-2.2397828,-1.3126465,104.0
907,0.97464275,0.6923981,-1.8239326,1.5016845,-2.2397828,-1.3126465,104.0
908,0.97464275,0.6923981,-1.8239326,1.4560181,-2.4075806,-1.3052124,104.0
909,1.4930811,0.9275055,-2.0231094,1.4560181,-2.4075806,-1.3052124,104.0
910,1.4930811,0.9275055,-2.0231094,1.2213135,-2.541394,-1.3200806,104.0
911,2.1914864,1.3554306,-2.21883,1.2213135,-2.541394,-1.3200806,104.0
912,2.1914864,1.3554306,-2.21883,0.86341554,-2.5690064,-1.3827393,104.0
913,2.924551,1.5001373,-2.404873,0.86341554,-2.5690064,-1.3827393,104.0
914,2.924551,1.5001373,-2.404873,0.40250245,-2.4543092,-1.5717773,104.0
915,2.924551,1.5001373,-2.404873,0.40250245,-2.4543092,-1.5717773,105.0
916,3.297575,1.3326569,-2.5174026,0.40250245,-2.4543092,-1.5717773,105.0
917,3.297575,1.3326569,-2.5174026,0.078588866,-2.2801392,-1.7629395,105.0
918,3.1191387,1.2088394,-2.3803406,0.078588866,-2.2801392,-1.7629395,105.0
919,3.1191387,1.2088394,-2.3803406,-0.08920898,-2.1643798,-1.8383423,105.0
920,2.5884514,1.2705536,-2.0461044,-0.08920898,-2.1643798,-1.8383423,105.0
921,2.5884514,1.2705536,-2.0461044,-0.010620117,-2.0178223,-1.8627685,105.0
922,2.0155,1.3934784,-1.8764229,-0.010620117,-2.0178223,-1.8627685,105.0
923,2.0155,1.3934784,-1.8764229,0.15717773,-1.8372803,-1.6970948,105.0
924,1.6286478,1.5136871,-1.9497719,0.15717773,-1.8372803,-1.6970948,105.0
925,1.6286478,1.5136871,-1.9497719,0.71367186,-1.6078857,-1.6185058,105.0
926,1.4656258,1.7109222,-1.9505768,0.71367186,-1.6078857,-1.6185058,105.0
927,1.4656258,1.7109222,-1.9505768,0.7604004,-1.3753052,-1.3338867,105.0
928,1.3828278,2.0497284,-1.7604485,0.7604004,-1.3753052,-1.3338867,105.0
929,1.3828278,2.0497284,-1.7604485,0.5936646,-1.0938721,-1.0450195,105.0
930,1.3423824,2.3410034,-1.4572754,0.5936646,-1.0938721,-1.0450195,105.0
931,1.3423824,2.3410034,-1.4572754,0.3536499,-0.7805786,-0.7975708,105.0
932,1.3294353,2.3650894,-1.172863,0.3536499,-0.7805786,-0.7975708,105.0
933,1.3294353,2.3650894,-1.172863,-0.013806152,-0.42374268,-0.5384399,105.0
934,1.2533674,2.1522675,-1.0549507,-0.013806152,-0.42374268,-0.5384399,105.0
935,1.2533674,2.1522675,-1.0549507,-0.2347046,-0.0063720704,-0.23364258,105.0
936,0.8641443,1.914856,-0.94957733,-0.2347046,-0.0063720704,-0.23364258,105.0
937,0.8641443,1.914856,-0.94957733,-0.2899292,0.4333008,0.09664307,105.0
938,0.122870445,1.6615219,-0.6147537,-0.2899292,0.4333008,0.09664307,105.0
939,0.122870445,1.6615219,-0.6147537,-0.19434814,0.80181885,0.43754885,105.0
940,-0.58261204,1.3887863,-0.07287216,-0.19434814,0.80181885,0.43754885,105.0
941,-0.58261204,1.3887863,-0.07287216,-0.18903808,1.0747559,0.7742066,105.0
942,-0.9427986,1.086647,0.3454132,-0.18903808,1.0747559,0.7742066,105.0
943,-0.9427986,1.086647,0.3454132,-0.36002198,1.2977784,1.0736939,105.0
944,-1.3884554,0.608696,0.2833023,-0.36002198,1.2977784,1.0736939,105.0
945,-1.3884554,0.608696,0.2833023,-0.73597413,1.629126,1.3317627,105.0
946,-2.4180765,-0.11172485,-0.08054733,-0.73597413,1.629126,1.3317627,105.0
947,-2.4180765,-0.11172485,-0.08054733,-1.1618408,1.9764038,1.7448853,105.0
948,-3.49712,-1.0217743,0.055618286,-1.1618408,1.9764038,1.7448853,105.0
949,-3.49712,-1.0217743,0.055618286,-1.6556762,2.1123414,2.1590698,105.0
950,-3.7579994,-1.959877,1.0211563,-1.6556762,2.1123414,2.1590698,105.0
951,-3.7579994,-1.959877,1.0211563,-2.1006591,2.1006591,2.444751,105.0
952,-3.1564846,-2.7866516,2.1763954,-2.1006591,2.1006591,2.444751,105.0
953,-3.1564846,-2.7866516,2.1763954,-2.2748291,2.0326905,2.5594482,105.0
954,-2.2702074,-3.2381363,2.73217,-2.2748291,2.0326905,2.5594482,105.0
955,-2.2702074,-3.2381363,2.73217,-2.261023,1.9679078,2.5020998,105.0
956,-1.5228062,-3.2347488,2.6421814,-2.261023,1.9679078,2.5020998,105.0
957,-1.5228062,-3.2347488,2.6421814,-2.250403,1.8946289,2.3651001,105.0
958,-0.954134,-3.1238098,2.3756714,-2.250403,1.8946289,2.3651001,105.0
959,-0.954134,-3.1238098,2.3756714,-2.1951783,1.6875366,2.2121704,105.0
960,-0.35499382,-3.2071,2.191784,-2.1951783,1.6875366,2.2121704,105.0
961,-0.35499382,-3.2071,2.191784,-2.0879152,1.3965454,2.0507448,105.0
962,0.5822773,-3.2579193,1.9058685,-2.0879152,1.3965454,2.0507448,105.0
963,0.5822773,-3.2579193,1.9058685,-1.9562256,1.1161743,1.8680786,105.0
964,1.7686663,-3.0069962,1.3732185,-1.9562256,1.1161743,1.8680786,105.0
965,1.7686663,-3.0069962,1.3732185,-2.0284424,1.0089111,1.6864747,105.0
966,2.6170206,-2.6362152,0.76255035,-2.0284424,1.0089111,1.6864747,105.0
967,2.6170206,-2.6362152,0.76255035,-1.9371094,1.0099732,1.5165528,105.0
968,2.665247,-2.423111,0.3099785,-1.9371094,1.0099732,1.5165528,105.0
969,2.665247,-2.423111,0.3099785,-1.8383423,1.0280274,1.3296387,105.0
970,1.9860668,-2.3026505,0.0743866,-1.8383423,1.0280274,1.3296387,105.0
971,1.9860668,-2.3026505,0.0743866,-1.7438233,1.0545777,1.1947632,105.0
972,0.98970795,-2.2223892,0.02275467,-1.7438233,1.0545777,1.1947632,105.0
973,0.98970795,-2.2223892,0.02275467,-1.6599244,1.0471436,1.0662597,105.0
974,0.039714813,-2.2681808,0.14078522,-1.6599244,1.0471436,1.0662597,105.0
975,0.039714813,-2.2681808,0.14078522,-1.448584,1.0152832,0.99085695,105.0
976,-0.75967026,-2.334198,0.44176483,-1.448584,1.0152832,0.99085695,105.0
977,-0.75967026,-2.334198,0.44176483,-1.174585,0.9547486,0.94412845,105.0
978,-1.4329805,-2.198204,0.7531433,-1.174585,0.9547486,0.94412845,105.0
979,-1.4329805,-2.198204,0.7531433,-0.9876709,0.8814697,0.90695804,105.0
980,-1.9249611,-1.7962341,0.97943115,-0.9876709,0.8814697,0.90695804,105.0
981,-1.9249611,-1.7962341,0.97943115,-0.96430665,0.77951664,0.8485474,105.0
982,-2.0410194,-1.3280869,1.1687622,-0.96430665,0.77951664,0.8485474,105.0
983,-2.0410194,-1.3280869,1.1687622,-0.9451904,0.67437744,0.7041138,105.0
984,-1.7077303,-0.9677658,1.2777443,-0.9451904,0.67437744,0.7041138,105.0
985,-1.7077303,-0.9677658,1.2777443,-0.9802368,0.58198243,0.49064943,105.0
986,-1.1766949,-0.8903961,1.2662506,-0.9802368,0.58198243,0.49064943,105.0
987,-1.1766949,-0.8903961,1.2662506,-0.9717407,0.4959595,0.21983643,105.0
988,-0.8507309,-1.0927734,1.1747818,-0.9717407,0.4959595,0.21983643,105.0
989,-0.8507309,-1.0927734,1.1747818,-0.7338501,0.4067505,-0.02442627,105.0
990,-0.89795494,-1.2950821,1.108345,-0.7338501,0.4067505,-0.02442627,105.0
991,-0.89795494,-1.2950821,1.108345,-0.23258057,0.2824951,-0.22408448,105.0
992,-1.1294479,-1.3255234,1.148819,-0.23258057,0.2824951,-0.22408448,105.0
993,-1.1294479,-1.3255234,1.148819,0.27293703,0.08496094,-0.48109132,105.0
994,-1.2957458,-1.0867004,1.0807228,0.27293703,0.08496094,-0.48109132,105.0
995,-1.2957458,-1.0867004,1.0807228,0.54375,-0.10620117,-0.7742066,105.0
996,-1.5848026,-0.5937271,0.7227707,0.54375,-0.10620117,-0.7742066,105.0
997,-1.5848026,-0.5937271,0.7227707,0.5671143,-0.22727051,-1.0227174,105.0
998,-2.3394117,-0.16759491,0.30968475,0.5671143,-0.22727051,-1.0227174,105.0
999,-2.3394117,-0.16759491,0.30968475,0.5055176,-0.37595215,-1.2128174,105.0
1000,-3.0888023,-0.016548157,0.11256409,0.5055176,-0.37595215,-1.2128174,105.0
1001,-3.0888023,-0.016548157,0.11256409,0.6414551,-0.68712157,-1.3179566,105.0
1002,-2.7119484,0.0046310425,0.05451584,0.6414551,-0.68712157,-1.3179566,105.0
1003,-2.7119484,0.0046310425,0.05451584,0.8527954,-1.0609497,-1.4252198,105.0
1004,-1.157095,0.06049347,-0.23843384,0.8527954,-1.0609497,-1.4252198,105.0
1005,-1.157095,0.06049347,-0.23843384,1.174585,-1.2510499,-1.6737305,105.0
1006,0.13698387,0.09565735,-0.85989,1.174585,-1.2510499,-1.6737305,105.0
1007,0.13698387,0.09565735,-0.85989,1.6556762,-1.3784913,-1.9795898,105.0
1008,0.25403214,0.06606293,-1.5079575,1.6556762,-1.3784913,-1.9795898,105.0
1009,0.25403214,0.06606293,-1.5079575,2.5626342,-1.4900025,-2.2185426,105.0
1010,-0.24467468,0.19275665,-1.8127251,2.5626342,-1.4900025,-2.2185426,105.0
1011,-0.24467468,0.19275665,-1.8127251,3.4865844,-1.716211,-2.2737672,105.0
1012,-0.51846886,0.74256134,-1.8579788,3.4865844,-1.716211,-2.2737672,105.0
1013,-0.51846886,0.74256134,-1.8579788,3.9666138,-2.0188844,-2.451123,105.0
1014,-0.08585739,1.8370667,-1.9822807,3.9666138,-2.0188844,-2.451123,105.0
1015,-0.08585739,1.8370667,-1.9822807,3.5662353,-2.3130615,-2.531836,105.0
1016,1.034256,2.9957047,-2.0121536,3.5662353,-2.3130615,-2.531836,105.0
1017,1.034256,2.9957047,-2.0121536,2.6635253,-2.5668824,-2.7750366,105.0
1018,2.261426,3.5310364,-1.7224808,2.6635253,-2.5668824,-2.7750366,105.0
1019,2.261426,3.5310364,-1.7224808,1.6981567,-2.788843,-2.974695,105.0
1020,3.1066751,3.5175247,-1.4203568,1.6981567,-2.788843,-2.974695,105.0
1021,3.1066751,3.5175247,-1.4203568,0.9897949,-2.9173462,-3.0384157,105.0
1022,3.5395641,3.3157883,-1.4710655,0.9897949,-2.9173462,-3.0384157,105.0
1023,3.5395641,3.3157883,-1.4710655,0.90908206,-2.9194703,-3.0617797,105.0
1024,3.6963978,3.1951065,-1.8800278,0.90908206,-2.9194703,-3.0617797,105.0
1025,3.6963978,3.1951065,-1.8800278,1.0535157,-2.8515015,-2.974695,105.0
1026,3.5504284,3.3808212,-2.3848228,1.0535157,-2.8515015,-2.974695,105.0
1027,3.5504284,3.3808212,-2.3848228,1.2404298,-2.7697265,-2.7803466,105.0
1028,3.2050524,3.7966003,-2.776596,1.2404298,-2.7697265,-2.7803466,105.0
1029,3.2050524,3.7966003,-2.776596,1.2213135,-2.6051147,-2.5084717,105.0
1030,3.2050524,3.7966003,-2.776596,1.2213135,-2.6051147,-2.5084717,104.0
1031,2.8918133,4.135254,-2.9550629,1.2213135,-2.6051147,-2.5084717,104.0
1032,2.8918133,4.135254,-2.9550629,1.0651978,-2.3385499,-2.1420777,104.0
1033,2.6290016,4.2313843,-2.9494514,1.0651978,-2.3385499,-2.1420777,104.0
1034,2.6290016,4.2313843,-2.9494514,0.98448485,-2.0348146,-1.6652344,104.0
1035,2.445157,4.1150513,-2.9385414,0.98448485,-2.0348146,-1.6652344,104.0
1036,2.445157,4.1150513,-2.9385414,0.80394286,-1.6662964,-1.1395386,104.0
1037,2.4316626,3.7933578,-2.988491,0.80394286,-1.6662964,-1.1395386,104.0
1038,2.4316626,3.7933578,-2.988491,0.6223389,-1.2181275,-0.65207523,104.0
1039,2.5599537,3.325676,-2.9883385,0.6223389,-1.2181275,-0.65207523,104.0
1040,2.5599537,3.325676,-2.9883385,0.31223145,-0.70092773,-0.22408448,104.0
1041,2.501845,2.7299957,-2.8153534,0.31223145,-0.70092773,-0.22408448,104.0
1042,2.501845,2.7299957,-2.8153534,-0.04141846,-0.12850343,0.0637207,104.0
1043,1.9879508,1.9937897,-2.348217,-0.04141846,-0.12850343,0.0637207,104.0
1044,1.9879508,1.9937897,-2.348217,-0.22939454,0.5076416,0.32497558,104.0
1045,1.0317302,1.4776764,-1.5279999,-0.22939454,0.5076416,0.32497558,104.0
1046,1.0317302,1.4776764,-1.5279999,-0.3993164,1.0630738,0.5320679,104.0
1047,-0.15307045,1.2069702,-0.483181,-0.3993164,1.0630738,0.5320679,104.0
1048,-0.15307045,1.2069702,-0.483181,-0.59472656,1.5091187,0.8262451,104.0
1049,-1.0921097,0.6917038,0.53617096,-0.59472656,1.5091187,0.8262451,104.0
1050,-1.0921097,0.6917038,0.53617096,-0.7943848,1.905249,1.1374146,104.0
1051,-1.7957458,-0.109687805,1.3028374,-0.7943848,1.905249,1.1374146,104.0
1052,-1.7957458,-0.109687805,1.3028374,-1.0949341,2.3449218,1.4666382,104.0
1053,-2.8641605,-0.88336945,1.6842995,-1.0949341,2.3449218,1.4666382,104.0
1054,-2.8641605,-0.88336945,1.6842995,-1.4050416,2.7357423,1.9317993,104.0
1055,-4.248128,-1.5211334,1.9363174,-1.4050416,2.7357423,1.9317993,104.0
1056,-4.248128,-1.5211334,1.9363174,-1.81073,2.89823,2.5137818,104.0
1057,-5.0751133,-2.150673,2.4604912,-1.81073,2.89823,2.5137818,104.0
1058,-5.0751133,-2.150673,2.4604912,-2.2196045,2.7548585,3.1116943,104.0
1059,-5.01169,-2.9861374,3.173298,-2.2196045,2.7548585,3.1116943,104.0
1060,-5.01169,-2.9861374,3.173298,-2.521216,2.6953857,3.5619874,104.0
1061,-4.6175556,-3.9772644,3.7202034,-2.521216,2.6953857,3.5619874,104.0
1062,-4.6175556,-3.9772644,3.7202034,-2.6040528,2.52865,3.8179321,104.0
1063,-4.191432,-4.7768555,3.86652,-2.6040528,2.52865,3.8179321,104.0
1064,-4.191432,-4.7768555,3.86652,-2.4957275,2.2440307,3.8604126,104.0
1065,-3.3806725,-4.9749985,3.437378,-2.4957275,2.2440307,3.8604126,104.0
1066,-3.3806725,-4.9749985,3.437378,-2.5095336,1.8255981,3.6511962,104.0
1067,-1.854538,-4.6937103,2.584301,-2.5095336,1.8255981,3.6511962,104.0
1068,-1.854538,-4.6937103,2.584301,-2.531836,1.4613281,3.274182,104.0
1069,0.06403828,-4.355774,1.7642441,-2.531836,1.4613281,3.274182,104.0
1070,0.06403828,-4.355774,1.7642441,-2.3226197,1.1214844,2.8546875,104.0
1071,1.6304541,-3.9484634,1.2565117,-2.3226197,1.1214844,2.8546875,104.0
1072,1.6304541,-3.9484634,1.2565117,-2.2206666,1.0343994,2.356604,104.0
1073,2.4914484,-3.4220123,0.9114952,-2.2206666,1.0343994,2.356604,104.0
1074,2.4914484,-3.4220123,0.9114952,-2.259961,0.9165161,1.9233032,104.0
1075,2.6645823,-2.9710846,0.4869728,-2.259961,0.9165161,1.9233032,104.0
1076,2.6645823,-2.9710846,0.4869728,-2.1399536,0.86978763,1.6779785,104.0
1077,2.310341,-2.6190338,0.065639496,-2.1399536,0.86978763,1.6779785,104.0
1078,2.310341,-2.6190338,0.065639496,-1.8723267,0.84323734,1.4984986,104.0
1079,1.7116032,-2.258072,-0.20420074,-1.8723267,0.84323734,1.4984986,104.0
1080,1.7116032,-2.258072,-0.20420074,-1.7480713,0.80606693,1.3476928,104.0
1081,1.1289625,-1.985817,-0.34684753,-1.7480713,0.80606693,1.3476928,104.0
1082,1.1289625,-1.985817,-0.34684753,-1.6939087,0.7720825,1.26698,104.0
1083,0.6488247,-1.8579025,-0.40525055,-1.6939087,0.7720825,1.26698,104.0
1084,0.6488247,-1.8579025,-0.40525055,-1.5685914,0.7582764,1.3381348,104.0
1085,0.29994392,-1.7770538,-0.33629608,-1.5685914,0.7582764,1.3381348,104.0
1086,0.29994392,-1.7770538,-0.33629608,-1.4677002,0.74871826,1.4294678,104.0
1087,0.025245667,-1.7201538,-0.23418427,-1.4677002,0.74871826,1.4294678,104.0
1088,0.025245667,-1.7201538,-0.23418427,-1.358313,0.75615233,1.4761963,104.0
1089,-0.24690628,-1.7502899,-0.21227264,-1.358313,0.75615233,1.4761963,104.0
1090,-0.24690628,-1.7502899,-0.21227264,-1.2276856,0.7614624,1.4698242,104.0
1091,-0.5688381,-1.8332443,-0.12175751,-1.2276856,0.7614624,1.4698242,104.0
1092,-0.5688381,-1.8332443,-0.12175751,-1.0503296,0.7423462,1.4443359,104.0
1093,-0.8993702,-1.8227234,0.14353943,-1.0503296,0.7423462,1.4443359,104.0
1094,-0.8993702,-1.8227234,0.14353943,-0.9197022,0.6924316,1.2924683,104.0
1095,-1.070631,-1.6685333,0.4632187,-0.9197022,0.6924316,1.2924683,104.0
1096,-1.070631,-1.6685333,0.4632187,-0.8772217,0.64782715,1.0120972,104.0
1097,-1.1072979,-1.5349884,0.76257706,-0.8772217,0.64782715,1.0120972,104.0
1098,-1.1072979,-1.5349884,0.76257706,-0.8007569,0.6149048,0.6042847,104.0
1099,-1.0931377,-1.4140396,0.8013458,-0.8007569,0.6149048,0.6042847,104.0
1100,-1.0931377,-1.4140396,0.8013458,-0.7455322,0.57454836,0.40356445,104.0
1101,-1.5116558,-1.70755,1.2751465,-0.7455322,0.57454836,0.40356445,104.0
1102,-1.5116558,-1.70755,1.2751465,-0.42268068,0.33665773,-0.26125488,104.0
1103,-1.4444199,-1.5252304,1.0712166,-0.42268068,0.33665773,-0.26125488,104.0
1104,-1.4444199,-1.5252304,1.0712166,-0.28461915,0.27399904,-0.5150757,104.0
1105,-2.4229183,-1.128952,0.8983154,-0.28461915,0.27399904,-0.5150757,104.0
1106,-2.4229183,-1.128952,0.8983154,0.22196046,0.1263794,-1.2446778,104.0
1107,-2.4307423,-0.68001556,0.809742,0.22196046,0.1263794,-1.2446778,104.0
1108,-2.4307423,-0.68001556,0.809742,0.39506838,0.007434082,-1.4241577,104.0
1109,-3.0115852,-0.025909424,0.9942169,0.39506838,0.007434082,-1.4241577,104.0
1110,-3.0115852,-0.025909424,0.9942169,1.0354614,-0.51188964,-1.9222412,104.0
1111,-2.0191917,0.31484222,0.96380615,1.0354614,-0.51188964,-1.9222412,104.0
1112,-2.0191917,0.31484222,0.96380615,1.2786621,-0.67437744,-2.080481,104.0
1113,-0.3510704,1.0190506,0.48164368,1.2786621,-0.67437744,-2.080481,104.0
1114,-0.3510704,1.0190506,0.48164368,1.9997681,-0.9420044,-2.6093628,104.0
1115,0.09247208,1.3175507,0.2394638,1.9997681,-0.9420044,-2.6093628,104.0
1116,0.09247208,1.3175507,0.2394638,2.2748291,-1.0184692,-2.7792847,104.0
1117,-1.0920143,1.8388062,-0.6646805,2.2748291,-1.0184692,-2.7792847,104.0
1118,-1.0920143,1.8388062,-0.6646805,3.0182374,-1.3699951,-3.0214233,104.0
1119,-1.0920143,1.8388062,-0.6646805,3.0182374,-1.3699951,-3.0214233,103.0
1120,-1.150053,2.2672882,-0.68374634,3.0182374,-1.3699951,-3.0214233,103.0
1121,-1.150053,2.2672882,-0.68374634,3.158423,-1.538855,-3.0511596,103.0
1122,-1.4287586,3.459221,-1.3194466,3.158423,-1.538855,-3.0511596,103.0
1123,-1.4287586,3.459221,-1.3194466,2.9120362,-2.0380006,-3.0543458,103.0
1124,-0.5220356,3.6298141,-1.3435326,2.9120362,-2.0380006,-3.0543458,103.0
1125,-0.5220356,3.6298141,-1.3435326,2.7495484,-2.1898682,-2.985315,103.0
1126,1.6832142,3.9683151,-1.7329559,2.7495484,-2.1898682,-2.985315,103.0
1127,1.6832142,3.9683151,-1.7329559,2.0348146,-2.4649293,-2.9396484,103.0
1128,2.4341564,3.7158356,-1.6359482,2.0348146,-2.4649293,-2.9396484,103.0
1129,2.4341564,3.7158356,-1.6359482,1.7576294,-2.4585571,-2.9120362,103.0
1130,4.0079823,3.2334366,-1.6330376,1.7576294,-2.4585571,-2.9120362,103.0
1131,4.0079823,3.2334366,-1.6330376,1.5664673,-2.5137818,-2.8345094,103.0
1132,3.8550558,2.985283,-1.7205429,1.5664673,-2.5137818,-2.8345094,103.0
1133,3.8550558,2.985283,-1.7205429,1.6004517,-2.4967897,-2.794153,103.0
1134,3.9192858,2.792595,-2.0739555,1.6004517,-2.4967897,-2.794153,103.0
1135,3.9192858,2.792595,-2.0739555,1.7512573,-2.4713013,-2.631665,103.0
1136,3.838212,2.801033,-2.2495842,1.7512573,-2.4713013,-2.631665,103.0
1137,3.838212,2.801033,-2.2495842,1.8882569,-2.446875,-2.4118288,103.0
1138,3.6515636,2.923027,-2.1847992,1.8882569,-2.446875,-2.4118288,103.0
1139,3.6515636,2.923027,-2.1847992,1.8648926,-2.3884645,-2.1378295,103.0
1140,3.3904772,3.0326233,-2.1848755,1.8648926,-2.3884645,-2.1378295,103.0
1141,3.3904772,3.0326233,-2.1848755,1.7151489,-2.2429688,-1.8585205,103.0
1142,3.3671417,3.2006989,-2.7135887,1.7151489,-2.2429688,-1.8585205,103.0
1143,3.3671417,3.2006989,-2.7135887,1.3285767,-1.9328613,-1.3668091,103.0
1144,2.984168,2.9192276,-2.7438927,1.3285767,-1.9328613,-1.3668091,103.0
1145,2.984168,2.9192276,-2.7438927,1.1650269,-1.7947998,-1.2181275,103.0
1146,2.9265556,2.6613235,-2.827221,1.1650269,-1.7947998,-1.2181275,103.0
1147,2.9265556,2.6613235,-2.827221,0.94412845,-1.445398,-0.9281983,103.0
1148,2.777646,2.3468933,-2.4988403,0.94412845,-1.445398,-0.9281983,103.0
1149,2.777646,2.3468933,-2.4988403,0.65844727,-1.0651978,-0.6180908,103.0
1150,2.5048928,2.0991669,-2.0383186,0.65844727,-1.0651978,-0.6180908,103.0
1151,2.5048928,2.0991669,-2.0383186,0.29523927,-0.6287109,-0.33771974,103.0
1152,2.1596518,1.7606659,-1.5835266,0.29523927,-0.6287109,-0.33771974,103.0
1153,2.1596518,1.7606659,-1.5835266,0.040356446,-0.13699952,-0.058410645,103.0
1154,1.720995,1.3472748,-1.1436768,0.040356446,-0.13699952,-0.058410645,103.0
1155,1.720995,1.3472748,-1.1436768,-0.1901001,0.38657227,0.21134034,103.0
1156,1.0779924,0.9783478,-0.578125,-0.1901001,0.38657227,0.21134034,103.0
1157,1.0779924,0.9783478,-0.578125,-0.48215333,0.86341554,0.5214478,103.0
1158,0.297575,0.60643005,0.06491852,-0.48215333,0.86341554,0.5214478,103.0
1159,0.297575,0.60643005,0.06491852,-0.7720825,1.2839721,0.811377,103.0
1160,-0.56988716,0.0803833,0.7128372,-0.7720825,1.2839721,0.811377,103.0
1161,-0.56988716,0.0803833,0.7128372,-1.0174073,1.7077149,1.0875,103.0
1162,-1.7221813,-0.43547058,1.162117,-1.0174073,1.7077149,1.0875,103.0
1163,-1.7221813,-0.43547058,1.162117,-1.2138795,2.1463258,1.4687623,103.0
1164,-3.032835,-0.8279877,1.4629097,-1.2138795,2.1463258,1.4687623,103.0
1165,-3.032835,-0.8279877,1.4629097,-1.4390259,2.4946656,1.8925049,103.0
1166,-3.9235706,-1.2079239,1.9602432,-1.4390259,2.4946656,1.8925049,103.0
1167,-3.9235706,-1.2079239,1.9602432,-1.621692,2.5849366,2.3948364,103.0
1168,-3.965334,-1.7810822,2.8416328,-1.621692,2.5849366,2.3948364,103.0
1169,-3.965334,-1.7810822,2.8416328,-1.7724975,2.625293,2.7516725,103.0
1170,-3.552968,-2.5610962,3.7844658,-1.7724975,2.625293,2.7516725,103.0
1171,-3.552968,-2.5610962,3.7844658,-1.6694825,2.6019287,2.9269044,103.0
1172,-3.3370152,-3.3048706,4.1836014,-1.6694825,2.6019287,2.9269044,103.0
1173,-3.3370152,-3.3048706,4.1836014,-1.44115,2.461743,3.0129273,103.0
1174,-3.3450146,-3.5559464,3.7769966,-1.44115,2.461743,3.0129273,103.0
1175,-3.3450146,-3.5559464,3.7769966,-1.3445069,2.265271,2.9959352,103.0
1176,-3.1554184,-3.2493439,2.8281136,-1.3445069,2.265271,2.9959352,103.0
1177,-3.1554184,-3.2493439,2.8281136,-1.5707153,1.9307374,2.7431762,103.0
1178,-2.3735905,-2.671669,1.7770653,-1.5707153,1.9307374,2.7431762,103.0
1179,-2.3735905,-2.671669,1.7770653,-1.9381714,1.5547851,2.4288208,103.0
1180,-1.0701122,-2.2019196,0.95555115,-1.9381714,1.5547851,2.4288208,103.0
1181,-1.0701122,-2.2019196,0.95555115,-2.257837,1.3073364,2.073047,103.0
1182,0.26390553,-2.032898,0.5668678,-2.257837,1.3073364,2.073047,103.0
1183,0.26390553,-2.032898,0.5668678,-2.5392702,1.1214844,1.6684204,103.0
1184,1.3648357,-2.2155151,0.50082016,-2.5392702,1.1214844,1.6684204,103.0
1185,1.3648357,-2.2155151,0.50082016,-2.611487,1.0120972,1.44646,103.0
1186,2.0610218,-2.6246338,0.47723007,-2.611487,1.0120972,1.44646,103.0
1187,2.0610218,-2.6246338,0.47723007,-2.3778443,0.97280276,1.3179566,103.0
1188,2.2615376,-2.8224716,0.29263687,-2.3778443,0.97280276,1.3179566,103.0
1189,2.2615376,-2.8224716,0.29263687,-2.0008302,0.93138427,1.2414917,103.0
1190,2.0028944,-2.627388,-0.0044517517,-2.0008302,0.93138427,1.2414917,103.0
1191,2.0028944,-2.627388,-0.0044517517,-1.7236451,0.88996583,1.177771,103.0
1192,1.4964075,-2.2234268,-0.21600342,-1.7236451,0.88996583,1.177771,103.0
1193,1.4964075,-2.2234268,-0.21600342,-1.5346069,0.86341554,1.1448487,103.0
1194,0.89235306,-1.8737717,-0.26950836,-1.5346069,0.86341554,1.1448487,103.0
1195,0.89235306,-1.8737717,-0.26950836,-1.3933594,0.8506714,1.174585,103.0
1196,0.1953392,-1.6823654,-0.19416046,-1.3933594,0.8506714,1.174585,103.0
1197,0.1953392,-1.6823654,-0.19416046,-1.2850342,0.8421753,1.2510499,103.0
1198,-0.59461975,-1.5821228,-0.08351517,-1.2850342,0.8421753,1.2510499,103.0
1199,-0.59461975,-1.5821228,-0.08351517,-1.2829102,0.8092529,1.3253907,103.0
1200,-1.323864,-1.5313721,0.023651123,-1.2829102,0.8092529,1.3253907,103.0
1201,-1.323864,-1.5313721,0.023651123,-1.2967163,0.78164065,1.3476928,103.0
1202,-1.7740202,-1.5520172,0.17717361,-1.2967163,0.78164065,1.3476928,103.0
1203,-1.7740202,-1.5520172,0.17717361,-1.2489258,0.7126099,1.3115845,103.0
1204,-1.7879791,-1.6398087,0.33579254,-1.2489258,0.7126099,1.3115845,103.0
1205,-1.7879791,-1.6398087,0.33579254,-1.09281,0.6595093,1.1618408,103.0
1206,-1.510107,-1.7594223,0.48224258,-1.09281,0.6595093,1.1618408,103.0
1207,-1.510107,-1.7594223,0.48224258,-0.8581055,0.60322267,0.8973999,103.0
1208,-1.3090134,-1.8011551,0.7423477,-0.8581055,0.60322267,0.8973999,103.0
1209,-1.3090134,-1.8011551,0.7423477,-0.51188964,0.544812,0.58410645,103.0
1210,-1.3965759,-1.5958405,1.007843,-0.51188964,0.544812,0.58410645,103.0
1211,-1.3965759,-1.5958405,1.007843,-0.14655761,0.4364868,0.2347046,103.0
1212,-1.5263176,-1.0970154,0.9971161,-0.14655761,0.4364868,0.2347046,103.0
1213,-1.5263176,-1.0970154,0.9971161,0.20178223,0.29099122,-0.14124756,103.0
1214,-1.5907068,-0.5427551,0.6646118,0.20178223,0.29099122,-0.14124756,103.0
1215,-1.5907068,-0.5427551,0.6646118,0.3717041,0.18160401,-0.5320679,103.0
1216,-1.5907068,-0.5427551,0.6646118,0.3717041,0.18160401,-0.5320679,101.0
1217,-2.0084658,-0.16867828,0.2924652,0.3717041,0.18160401,-0.5320679,101.0
1218,-2.0084658,-0.16867828,0.2924652,0.5628662,0.0998291,-0.8028809,101.0
1219,-2.839548,0.14675903,0.24074554,0.5628662,0.0998291,-0.8028809,101.0
1220,-2.839548,0.14675903,0.24074554,0.7168579,-0.1529297,-1.0492676,101.0
1221,-3.075142,0.48895264,0.49824524,0.7168579,-0.1529297,-1.0492676,101.0
1222,-3.075142,0.48895264,0.49824524,0.7168579,-0.6595093,-1.3137085,101.0
1223,-1.767828,0.6989746,0.5054436,0.7168579,-0.6595093,-1.3137085,101.0
1224,-1.767828,0.6989746,0.5054436,0.77102053,-1.0163453,-1.6004517,101.0
1225,0.18125725,0.74715424,-0.030986786,0.77102053,-1.0163453,-1.6004517,101.0
1226,0.18125725,0.74715424,-0.030986786,1.0343994,-1.1597168,-1.9700317,101.0
1227,1.0627174,0.75159454,-0.641552,1.0343994,-1.1597168,-1.9700317,101.0
1228,1.0627174,0.75159454,-0.641552,1.4751343,-1.2882203,-2.2950075,101.0
1229,0.6653843,0.98194885,-0.9145355,1.4751343,-1.2882203,-2.2950075,101.0
1230,0.6653843,0.98194885,-0.9145355,1.9296753,-1.4878784,-2.4882934,101.0
1231,0.026996613,1.5502472,-0.97454834,1.9296753,-1.4878784,-2.4882934,101.0
1232,0.026996613,1.5502472,-0.97454834,2.1144655,-1.7289551,-2.5955567,101.0
1233,-0.018417358,2.2152328,-1.0774918,2.1144655,-1.7289551,-2.5955567,101.0
1234,-0.018417358,2.2152328,-1.0774918,2.0369384,-1.9541016,-2.631665,101.0
1235,0.61457443,2.6556473,-1.2302437,2.0369384,-1.9541016,-2.631665,101.0
1236,0.61457443,2.6556473,-1.2302437,1.8394043,-2.1134033,-2.5658205,101.0
1237,1.5734596,2.6928864,-1.3776169,1.8394043,-2.1134033,-2.5658205,101.0
1238,1.5734596,2.6928864,-1.3776169,1.6854126,-2.2015502,-2.4946656,101.0
1239,2.5097075,2.4595795,-1.5400467,1.6854126,-2.2015502,-2.4946656,101.0
1240,2.5097075,2.4595795,-1.5400467,1.6121339,-2.253589,-2.4203248,101.0
1241,3.32969,2.2819214,-1.7197952,1.6121339,-2.253589,-2.4203248,101.0
1242,3.32969,2.2819214,-1.7197952,1.6206299,-2.258899,-2.3024414,101.0
1243,3.9785233,2.305336,-1.8475914,1.6206299,-2.258899,-2.3024414,101.0
1244,3.9785233,2.305336,-1.8475914,1.6811646,-2.2057984,-2.165442,101.0
1245,4.2715273,2.3628464,-1.8025208,1.6811646,-2.2057984,-2.165442,101.0
1246,4.2715273,2.3628464,-1.8025208,1.7109009,-2.1293335,-2.001892,101.0
1247,4.0013046,2.406021,-1.5984879,1.7109009,-2.1293335,-2.001892,101.0
1248,4.0013046,2.406021,-1.5984879,1.6546143,-2.0210083,-1.8468384,101.0
1249,3.307806,2.5030746,-1.5414238,1.6546143,-2.0210083,-1.8468384,101.0
1250,3.307806,2.5030746,-1.5414238,1.5027466,-1.9349854,-1.6684204,101.0
1251,2.7227707,2.5915222,-1.761837,1.5027466,-1.9349854,-1.6684204,101.0
1252,2.7227707,2.5915222,-1.761837,1.2977784,-1.8224121,-1.454956,101.0
1253,2.5091,2.618019,-2.021202,1.2977784,-1.8224121,-1.454956,101.0
1254,2.5091,2.618019,-2.021202,1.0917481,-1.6408081,-1.2032593,101.0
1255,2.4070482,2.5304031,-2.1254463,1.0917481,-1.6408081,-1.2032593,101.0
1256,2.4070482,2.5304031,-2.1254463,0.8230591,-1.3933594,-0.92501223,101.0
1257,2.163786,2.3072128,-2.1327324,0.8230591,-1.3933594,-0.92501223,101.0
1258,2.163786,2.3072128,-2.1327324,0.544812,-1.0768799,-0.6605713,101.0
1259,1.8105941,2.065277,-2.1086159,0.544812,-1.0768799,-0.6605713,101.0
1260,1.8105941,2.065277,-2.1086159,0.22514649,-0.70198977,-0.37382814,101.0
1261,1.458705,1.8520279,-1.9493713,0.22514649,-0.70198977,-0.37382814,101.0
1262,1.458705,1.8520279,-1.9493713,-0.06796875,-0.24957275,-0.09133301,101.0
1263,1.0813441,1.5605164,-1.5244751,-0.06796875,-0.24957275,-0.09133301,101.0
1264,1.0813441,1.5605164,-1.5244751,-0.29523927,0.22939454,0.1901001,101.0
1265,0.59885216,1.1619415,-0.8815193,-0.29523927,0.22939454,0.1901001,101.0
1266,0.59885216,1.1619415,-0.8815193,-0.54693604,0.6966797,0.4630371,101.0
1267,0.03137684,0.70625305,-0.21889877,-0.54693604,0.6966797,0.4630371,101.0
1268,0.03137684,0.70625305,-0.21889877,-0.7614624,1.0673218,0.7476563,101.0
1269,-0.46819687,0.23890686,0.37147522,-0.7614624,1.0673218,0.7476563,101.0
1270,-0.46819687,0.23890686,0.37147522,-0.9717407,1.3689331,1.0322754,101.0
1271,-1.1310148,-0.2763672,0.84030914,-0.9717407,1.3689331,1.0322754,101.0
1272,-1.1310148,-0.2763672,0.84030914,-1.2457398,1.721521,1.2892822,101.0
1273,-2.5532985,-0.75231934,1.078228,-1.2457398,1.721521,1.2892822,101.0
1274,-2.5532985,-0.75231934,1.078228,-1.7034668,2.086853,1.6567383,101.0
1275,-4.40736,-1.232727,1.2342224,-1.7034668,2.086853,1.6567383,101.0
1276,-4.40736,-1.232727,1.2342224,-2.3831544,2.2270386,2.0571167,101.0
1277,-5.324192,-2.1017685,1.6178093,-2.3831544,2.2270386,2.0571167,101.0
1278,-5.324192,-2.1017685,1.6178093,-3.0394776,2.1452637,2.4946656,101.0
1279,-4.701517,-3.2454376,2.19841,-3.0394776,2.1452637,2.4946656,101.0
1280,-4.701517,-3.2454376,2.19841,-3.2816162,1.9572877,2.7463624,101.0
1281,-3.3519726,-4.2215576,2.7271004,-3.2816162,1.9572877,2.7463624,101.0
1282,-3.3519726,-4.2215576,2.7271004,-3.0150514,1.7884277,2.7410524,101.0
1283,-2.2510357,-4.835121,2.9089355,-3.0150514,1.7884277,2.7410524,101.0
1284,-2.2510357,-4.835121,2.9089355,-2.3746583,1.6174439,2.5700684,101.0
1285,-1.5422106,-4.8210983,2.4598656,-2.3746583,1.6174439,2.5700684,101.0
1286,-1.5422106,-4.8210983,2.4598656,-1.8712647,1.350879,2.2323487,101.0
1287,-0.8086462,-4.0423737,1.5031433,-1.8712647,1.350879,2.2323487,101.0
1288,-0.8086462,-4.0423737,1.5031433,-1.7724975,1.0067872,1.7671875,101.0
1289,0.16989136,-2.9143066,0.6567764,-1.7724975,1.0067872,1.7671875,101.0
1290,0.16989136,-2.9143066,0.6567764,-1.8956909,0.75296634,1.4071655,101.0
1291,1.2792482,-2.01062,0.33833694,-1.8956909,0.75296634,1.4071655,101.0
1292,1.2792482,-2.01062,0.33833694,-2.0284424,0.6669434,1.1607789,101.0
1293,2.2426243,-1.574585,0.3269806,-2.0284424,0.6669434,1.1607789,101.0
1294,2.2426243,-1.574585,0.3269806,-2.0560548,0.6149048,0.9685547,101.0
1295,2.8479319,-1.4795151,0.19881439,-2.0560548,0.6149048,0.9685547,101.0
1296,2.8479319,-1.4795151,0.19881439,-1.8181641,0.59472656,0.88040775,101.0
1297,3.0666142,-1.4405441,-0.17720413,-1.8181641,0.59472656,0.88040775,101.0
1298,3.0666142,-1.4405441,-0.17720413,-1.5547851,0.6074707,0.815625,101.0
1299,2.8379345,-1.2740326,-0.5095253,-1.5547851,0.6074707,0.815625,101.0
1300,2.8379345,-1.2740326,-0.5095253,-1.265918,0.634021,0.78376466,101.0
1301,2.109191,-1.0115585,-0.5091591,-1.265918,0.634021,0.78376466,101.0
1302,2.109191,-1.0115585,-0.5091591,-1.1002442,0.65419924,0.7848267,101.0
1303,1.0821285,-0.7817154,-0.23065567,-1.1002442,0.65419924,0.7848267,101.0
1304,1.0821285,-0.7817154,-0.23065567,-1.0577637,0.62340087,0.81987303,101.0
1305,0.060783386,-0.6471634,0.058200836,-1.0577637,0.62340087,0.81987303,101.0
1306,0.060783386,-0.6471634,0.058200836,-1.1299804,0.5586182,0.82836914,101.0
1307,-0.8060484,-0.6198578,0.15266418,-1.1299804,0.5586182,0.82836914,101.0
1308,-0.8060484,-0.6198578,0.15266418,-1.2521118,0.47896728,0.81031495,101.0
1309,-1.5457907,-0.6809082,-0.028736115,-1.2521118,0.47896728,0.81031495,101.0
1310,-1.5457907,-0.6809082,-0.028736115,-1.3115845,0.42374268,0.7625244,101.0
1311,-2.0860586,-0.76418304,-0.2763939,-1.3115845,0.42374268,0.7625244,101.0
1312,-2.0860586,-0.76418304,-0.2763939,-1.3317627,0.362146,0.65419924,101.0
1313,-2.1830435,-0.79182434,-0.41874695,-1.3317627,0.362146,0.65419924,101.0
1314,-2.1830435,-0.79182434,-0.41874695,-1.3944215,0.27506104,0.46622315,101.0
1315,-1.7271595,-0.81378174,-0.48448563,-1.3944215,0.27506104,0.46622315,101.0
1316,-1.7271595,-0.81378174,-0.48448563,-1.3710572,0.22408448,0.20496826,101.0
1317,-1.136488,-0.87648773,-0.4435959,-1.3710572,0.22408448,0.20496826,101.0
1318,-1.136488,-0.87648773,-0.4435959,-1.0768799,0.22514649,-0.07434082,101.0
1319,-1.0064926,-0.75193787,-0.326519,-1.0768799,0.22514649,-0.07434082,101.0
1320,-1.0064926,-0.75193787,-0.326519,-0.6701294,0.21346436,-0.33028564,101.0
1321,-1.3092098,-0.3773346,-0.2943344,-0.6701294,0.21346436,-0.33028564,101.0
1322,-1.3092098,-0.3773346,-0.2943344,-0.48321533,0.14549561,-0.64570314,101.0
1323,-1.5072193,0.017227173,-0.24234009,-0.48321533,0.14549561,-0.64570314,101.0
1324,-1.5072193,0.017227173,-0.24234009,-0.39188233,0.045666505,-0.903772,101.0
1325,-1.5805559,0.34475708,0.015369415,-0.39188233,0.045666505,-0.903772,101.0
1326,-1.5805559,0.34475708,0.015369415,-0.3069214,0.022302246,-1.1406006,101.0
1327,-2.0340729,0.60419464,0.30612946,-0.3069214,0.022302246,-1.1406006,101.0
1328,-2.0340729,0.60419464,0.30612946,-0.13381349,-0.03717041,-1.1947632,101.0
1329,-2.0340729,0.60419464,0.30612946,-0.13381349,-0.03717041,-1.1947632,103.0
1330,-2.5337524,0.81178284,0.6143608,-0.13381349,-0.03717041,-1.1947632,103.0
1331,-2.5337524,0.81178284,0.6143608,0.13381349,-0.38975832,-1.0492676,103.0
1332,-1.7757072,0.9797592,0.89515305,0.13381349,-0.38975832,-1.0492676,103.0
1333,-1.7757072,0.9797592,0.89515305,0.32922363,-0.79969484,-0.98236084,103.0
1334,0.19301987,0.97766876,0.6727257,0.32922363,-0.79969484,-0.98236084,103.0
1335,0.19301987,0.97766876,0.6727257,0.5522461,-0.92501223,-1.083252,103.0
1336,1.4689789,0.8149719,-0.028800964,0.5522461,-0.92501223,-1.083252,103.0
1337,1.4689789,0.8149719,-0.028800964,0.8963379,-0.9398804,-1.1522827,103.0
1338,1.0556765,0.72076416,-0.6326103,0.8963379,-0.9398804,-1.1522827,103.0
1339,1.0556765,0.72076416,-0.6326103,1.265918,-1.0269654,-1.1459106,103.0
1340,-0.062440872,0.8568268,-0.65639496,1.265918,-1.0269654,-1.1459106,103.0
1341,-0.062440872,0.8568268,-0.65639496,1.5144287,-1.2393677,-1.0938721,103.0
1342,-0.52448845,1.2623367,-0.4435501,1.5144287,-1.2393677,-1.0938721,103.0
1343,-0.52448845,1.2623367,-0.4435501,1.2170655,-1.4613281,-1.0875,103.0
1344,0.0011005402,1.5331497,-0.5316353,1.2170655,-1.4613281,-1.0875,103.0
1345,0.0011005402,1.5331497,-0.5316353,0.724292,-1.6599244,-1.1437867,103.0
1346,1.079176,1.3730316,-0.95461655,0.724292,-1.6599244,-1.1437867,103.0
1347,1.079176,1.3730316,-0.95461655,0.31010744,-1.8054199,-1.2457398,103.0
1348,-3.6005268,4.4069214,5.4566307,0.31010744,-1.8054199,-1.2457398,103.0
1349,-3.6005268,4.4069214,5.4566307,0.0637207,-1.898877,-1.3476928,103.0
1350,-1.467556,3.281784,4.10754,0.0637207,-1.898877,-1.3476928,103.0
1351,-1.467556,3.281784,4.10754,0.050976563,-1.9466676,-1.4145997,103.0
1352,0.031656265,2.5070953,3.1459084,0.050976563,-1.9466676,-1.4145997,103.0
1353,0.031656265,2.5070953,3.1459084,0.22514649,-1.9286133,-1.4347779,103.0
1354,0.94909286,2.0597382,2.396244,0.22514649,-1.9286133,-1.4347779,103.0
1355,0.94909286,2.0597382,2.396244,0.50870365,-1.8680786,-1.44646,103.0
1356,1.4090052,1.8886871,1.7326202,0.50870365,-1.8680786,-1.44646,103.0
1357,1.4090052,1.8886871,1.7326202,0.7858887,-1.812854,-1.4156617,103.0
1358,1.5630932,1.9361801,1.0907593,0.7858887,-1.812854,-1.4156617,103.0
1359,1.5630932,1.9361801,1.0907593,0.86766356,-1.7289551,-1.3476928,103.0
1360,1.5571766,2.050064,0.50162125,0.86766356,-1.7289551,-1.3476928,103.0
1361,1.5571766,2.050064,0.50162125,0.78164065,-1.6078857,-1.2075074,103.0
1362,1.4922991,2.0775986,0.009521484,0.78164065,-1.6078857,-1.2075074,103.0
1363,1.4922991,2.0775986,0.009521484,0.7104859,-1.4018555,-1.0004151,103.0
1364,1.3965244,2.0077438,-0.33652496,0.7104859,-1.4018555,-1.0004151,103.0
1365,1.3965244,2.0077438,-0.33652496,0.62977296,-1.1321045,-0.72960204,103.0
1366,1.2439651,1.8628616,-0.49151993,0.62977296,-1.1321045,-0.72960204,103.0
1367,1.2439651,1.8628616,-0.49151993,0.48640138,-0.8209351,-0.42692873,103.0
1368,1.0177307,1.6589737,-0.49608612,0.48640138,-0.8209351,-0.42692873,103.0
1369,1.0177307,1.6589737,-0.49608612,0.29736328,-0.45347902,-0.1178833,103.0
1370,0.6723747,1.3630447,-0.43941116,0.29736328,-0.45347902,-0.1178833,103.0
1371,0.6723747,1.3630447,-0.43941116,0.15717773,-0.0361084,0.1444336,103.0
1372,0.14618778,1.0155716,-0.25891495,0.15717773,-0.0361084,0.1444336,103.0
1373,0.14618778,1.0155716,-0.25891495,0.04141846,0.38338622,0.38444826,103.0
1374,-0.5627737,0.7003479,0.100925446,0.04141846,0.38338622,0.38444826,103.0
1375,-0.5627737,0.7003479,0.100925446,-0.090270996,0.7306641,0.58198243,103.0
1376,-1.3364372,0.44115448,0.5847931,-0.090270996,0.7306641,0.58198243,103.0
1377,-1.3364372,0.44115448,0.5847931,-0.09664307,1.0174073,0.79969484,103.0
1378,-1.9124355,0.26039886,1.0506973,-0.09664307,1.0174073,0.79969484,103.0
1379,-1.9124355,0.26039886,1.0506973,-0.10513916,1.2011353,1.0482056,103.0
1380,-2.2107344,0.116363525,1.2671547,-0.10513916,1.2011353,1.0482056,103.0
1381,-2.2107344,0.116363525,1.2671547,-0.19647217,1.3901733,1.2414917,103.0
1382,-2.8108969,-0.08492279,0.9398346,-0.19647217,1.3901733,1.2414917,103.0
1383,-2.8108969,-0.08492279,0.9398346,-0.33665773,1.7374512,1.4677002,103.0
1384,-4.011156,-0.32361603,0.272789,-0.33665773,1.7374512,1.4677002,103.0
1385,-4.011156,-0.32361603,0.272789,-0.5511841,1.992334,1.8351563,103.0
1386,-4.7760277,-0.5067291,0.19382858,-0.5511841,1.992334,1.8351563,103.0
1387,-4.7760277,-0.5067291,0.19382858,-0.811377,1.9689697,2.179248,103.0
1388,-4.023678,-0.75077057,1.1110077,-0.811377,1.9689697,2.179248,103.0
1389,-4.023678,-0.75077057,1.1110077,-1.1119263,1.8489624,2.2896974,103.0
1390,-2.456688,-1.103035,2.151413,-1.1119263,1.8489624,2.2896974,103.0
1391,-2.456688,-1.103035,2.151413,-1.4974365,1.7618774,2.1781862,103.0
1392,-1.5682182,-1.3448944,2.2204094,-1.4974365,1.7618774,2.1781862,103.0
1393,-1.5682182,-1.3448944,2.2204094,-1.7767457,1.6068238,1.9615357,103.0
1394,-1.6623135,-1.3880005,1.3877182,-1.7767457,1.6068238,1.9615357,103.0
1395,-1.6623135,-1.3880005,1.3877182,-1.7990478,1.360437,1.7724975,103.0
1396,-1.9259453,-1.3282852,0.4772644,-1.7990478,1.360437,1.7724975,103.0
1397,-1.9259453,-1.3282852,0.4772644,-1.7735596,0.92926025,1.5547851,103.0
1398,-1.4148655,-1.2905579,-0.14792633,-1.7735596,0.92926025,1.5547851,103.0
1399,-1.4148655,-1.2905579,-0.14792633,-2.1017213,0.48427734,1.2149414,103.0
1400,0.025371552,-1.3291397,-0.6977577,-2.1017213,0.48427734,1.2149414,103.0
1401,0.025371552,-1.3291397,-0.6977577,-2.51803,0.29523927,0.905896,103.0
1402,1.616745,-1.429451,-1.158596,-2.51803,0.29523927,0.905896,103.0
1403,1.616745,-1.429451,-1.158596,-2.7474244,0.29205322,0.7317261,103.0
1404,2.5190182,-1.6916428,-1.2354698,-2.7474244,0.29205322,0.7317261,103.0
1405,2.5190182,-1.6916428,-1.2354698,-2.6412232,0.29630128,0.64995116,103.0
1406,2.6192799,-2.1440887,-0.94932556,-2.6412232,0.29630128,0.64995116,103.0
1407,2.6192799,-2.1440887,-0.94932556,-2.2089844,0.270813,0.5649902,103.0
1408,2.271389,-2.4746552,-0.60459137,-2.2089844,0.270813,0.5649902,103.0
1409,2.271389,-2.4746552,-0.60459137,-1.5855836,0.25806886,0.5235718,103.0
1410,1.785984,-2.2743073,-0.3796196,-1.5855836,0.25806886,0.5235718,103.0
1411,1.785984,-2.2743073,-0.3796196,-1.1023682,0.271875,0.5734863,103.0
1412,1.2417145,-1.5772858,-0.37259293,-1.1023682,0.271875,0.5734863,103.0
1413,1.2417145,-1.5772858,-0.37259293,-0.87403566,0.33665773,0.6510132,103.0
1414,0.6964474,-0.8874054,-0.6759567,-0.87403566,0.33665773,0.6510132,103.0
1415,0.6964474,-0.8874054,-0.6759567,-0.8995239,0.4725952,0.724292,103.0
1416,0.16099167,-0.5561142,-1.1058388,-0.8995239,0.4725952,0.724292,103.0
1417,0.16099167,-0.5561142,-1.1058388,-1.0046631,0.6595093,0.81668705,103.0
1418,-0.5034809,-0.5264511,-1.2005272,-1.0046631,0.6595093,0.81668705,103.0
1419,-0.5034809,-0.5264511,-1.2005272,-1.0460815,0.813501,0.90802,103.0
1420,-1.2855358,-0.5705414,-0.82453537,-1.0460815,0.813501,0.90802,103.0
1421,-1.2855358,-0.5705414,-0.82453537,-1.089624,0.86553955,0.99298096,103.0
1422,-1.2855358,-0.5705414,-0.82453537,-1.089624,0.86553955,0.99298096,104.0
1423,-1.9404774,-0.66316986,-0.27249527,-1.089624,0.86553955,0.99298096,104.0
1424,-1.9404774,-0.66316986,-0.27249527,-1.1257324,0.8644776,0.9855469,104.0
1425,-2.2594013,-0.81985474,0.23704529,-1.1257324,0.8644776,0.9855469,104.0
1426,-2.2594013,-0.81985474,0.23704529,-1.1267945,0.80181885,0.8963379,104.0
1427,-2.1670666,-0.9546051,0.67803955,-1.1267945,0.80181885,0.8963379,104.0
1428,-2.1670666,-0.9546051,0.67803955,-1.0386475,0.71367186,0.72960204,104.0
1429,-1.925951,-0.982254,0.960022,-1.0386475,0.71367186,0.72960204,104.0
1430,-1.925951,-0.982254,0.960022,-0.80181885,0.6403931,0.5278198,104.0
1431,-1.9834118,-0.81217957,1.0191269,-0.80181885,0.6403931,0.5278198,104.0
1432,-1.9834118,-0.81217957,1.0191269,-0.544812,0.5129517,0.33240968,104.0
1433,-2.227953,-0.47642517,0.85437775,-0.544812,0.5129517,0.33240968,104.0
1434,-2.227953,-0.47642517,0.85437775,-0.5331299,0.30479738,0.10513916,104.0
1435,-2.1617432,-0.20581055,0.42710495,-0.5331299,0.30479738,0.10513916,104.0
1436,-2.1617432,-0.20581055,0.42710495,-0.6149048,0.12531738,-0.16036378,104.0
1437,-1.9365959,-0.12321472,-0.08979797,-0.6149048,0.12531738,-0.16036378,104.0
1438,-1.9365959,-0.12321472,-0.08979797,-0.66269535,0.0637207,-0.36851808,104.0
1439,-2.140316,-0.23809052,-0.37177658,-0.66269535,0.0637207,-0.36851808,104.0
1440,-2.140316,-0.23809052,-0.37177658,-0.60109866,0.012744141,-0.5055176,104.0
1441,-2.6615314,-0.5168915,-0.22069931,-0.60109866,0.012744141,-0.5055176,104.0
1442,-2.6615314,-0.5168915,-0.22069931,-0.41418457,-0.16354981,-0.5511841,104.0
1443,-2.4464607,-0.74253845,0.25727844,-0.41418457,-0.16354981,-0.5511841,104.0
1444,-2.4464607,-0.74253845,0.25727844,-0.107263185,-0.47471926,-0.6244629,104.0
1445,-0.83833313,-0.75743866,0.49000168,-0.107263185,-0.47471926,-0.6244629,104.0
1446,-0.83833313,-0.75743866,0.49000168,0.271875,-0.6956177,-0.80181885,104.0
1447,1.0646477,-0.61151886,0.14601898,0.271875,-0.6956177,-0.80181885,104.0
1448,1.0646477,-0.61151886,0.14601898,0.7986328,-0.7880127,-1.0301514,104.0
1449,1.69421,-0.37674713,-0.436203,0.7986328,-0.7880127,-1.0301514,104.0
1450,1.69421,-0.37674713,-0.436203,1.3105224,-0.89102787,-1.2308716,104.0
1451,1.0518646,-0.06625366,-0.7226715,1.3105224,-0.89102787,-1.2308716,104.0
1452,1.0518646,-0.06625366,-0.7226715,1.6885986,-1.0407715,-1.3774292,104.0
1453,0.23831749,0.36470032,-0.5862427,1.6885986,-1.0407715,-1.3774292,104.0
1454,0.23831749,0.36470032,-0.5862427,1.8202881,-1.260608,-1.5069946,104.0
1455,0.08447647,0.7798233,-0.40335846,1.8202881,-1.260608,-1.5069946,104.0
1456,0.08447647,0.7798233,-0.40335846,1.5739014,-1.44646,-1.6397461,104.0
1457,0.72242737,0.97301483,-0.41975784,1.5739014,-1.44646,-1.6397461,104.0
1458,0.72242737,0.97301483,-0.41975784,1.532483,-1.6195679,-1.7841797,104.0
1459,1.8234367,1.0432587,-0.5318756,1.532483,-1.6195679,-1.7841797,104.0
1460,1.8234367,1.0432587,-0.5318756,1.4188477,-1.7703736,-1.8903809,104.0
1461,2.9420128,1.1138306,-0.51836014,1.4188477,-1.7703736,-1.8903809,104.0
1462,2.9420128,1.1138306,-0.51836014,1.2956543,-1.8383423,-1.9817139,104.0
1463,3.7024765,1.1726685,-0.36489487,1.2956543,-1.8383423,-1.9817139,104.0
1464,3.7024765,1.1726685,-0.36489487,1.1852051,-1.8585205,-2.0188844,104.0
1465,3.9845276,1.206337,-0.23284912,1.1852051,-1.8585205,-2.0188844,104.0
1466,3.9845276,1.206337,-0.23284912,1.0917481,-1.8351563,-1.9987061,104.0
1467,3.9007683,1.1923752,-0.23189926,1.0917481,-1.8351563,-1.9987061,104.0
1468,3.9007683,1.1923752,-0.23189926,1.0821899,-1.7714356,-1.9041871,104.0
1469,3.604807,1.1312332,-0.2927208,1.0821899,-1.7714356,-1.9041871,104.0
1470,3.604807,1.1312332,-0.2927208,1.1533448,-1.6949707,-1.7576294,104.0
1471,3.1685123,1.0948792,-0.32730484,1.1533448,-1.6949707,-1.7576294,104.0
1472,3.1685123,1.0948792,-0.32730484,1.2011353,-1.6121339,-1.5643433,104.0
1473,2.6836872,1.1485214,-0.3746376,1.2011353,-1.6121339,-1.5643433,104.0
1474,2.6836872,1.1485214,-0.3746376,1.0959961,-1.4804443,-1.364685,104.0
1475,2.2759895,1.217926,-0.53868866,1.0959961,-1.4804443,-1.364685,104.0
1476,2.2759895,1.217926,-0.53868866,0.97386473,-1.2999023,-1.1459106,104.0
1477,1.9966707,1.1470184,-0.70622253,0.97386473,-1.2999023,-1.1459106,104.0
1478,1.9966707,1.1470184,-0.70622253,0.9600586,-1.080066,-0.8867798,104.0
1479,1.7962866,1.0276413,-0.67739105,0.9600586,-1.080066,-0.8867798,104.0
1480,1.7962866,1.0276413,-0.67739105,0.81243896,-0.85704345,-0.6223389,104.0
1481,1.6235037,1.0904694,-0.58865356,0.81243896,-0.85704345,-0.6223389,104.0
1482,1.6235037,1.0904694,-0.58865356,0.50445557,-0.5894165,-0.37382814,104.0
1483,1.4704828,1.1803818,-0.6929207,0.50445557,-0.5894165,-0.37382814,104.0
1484,1.4704828,1.1803818,-0.6929207,0.1444336,-0.20603028,-0.16461182,104.0
1485,1.1679754,1.0456772,-0.833622,0.1444336,-0.20603028,-0.16461182,104.0
1486,1.1679754,1.0456772,-0.833622,-0.014868164,0.21983643,0.06690674,104.0
1487,0.59202194,0.8825836,-0.7008438,-0.014868164,0.21983643,0.06690674,104.0
1488,0.59202194,0.8825836,-0.7008438,-0.10301514,0.635083,0.2803711,104.0
1489,-0.11390686,0.89391327,-0.2922058,-0.10301514,0.635083,0.2803711,104.0
1490,-0.11390686,0.89391327,-0.2922058,-0.1709839,0.996167,0.52675784,104.0
1491,-0.7548828,0.96684265,0.21250153,-0.1709839,0.996167,0.52675784,104.0
1492,-0.7548828,0.96684265,0.21250153,-0.26762697,1.3423828,0.79119873,104.0
1493,-1.5576534,0.8506851,0.53595734,-0.26762697,1.3423828,0.79119873,104.0
1494,-1.5576534,0.8506851,0.53595734,-0.3982544,1.7650635,1.0290893,104.0
1495,-2.9090996,0.5850601,0.5802307,-0.3982544,1.7650635,1.0290893,104.0
1496,-2.9090996,0.5850601,0.5802307,-0.5150757,2.0911012,1.4029175,104.0
1497,-4.395383,0.26870728,0.68813324,-0.5150757,2.0911012,1.4029175,104.0
1498,-4.395383,0.26870728,0.68813324,-0.8464233,2.1548219,1.7544434,104.0
1499,-4.9422226,-0.22237396,1.1701088,-0.8464233,2.1548219,1.7544434,104.0
1500,-4.9422226,-0.22237396,1.1701088,-1.3073364,1.9774659,2.0135744,104.0
1501,-4.1048393,-0.9126892,1.735939,-1.3073364,1.9774659,2.0135744,104.0
1502,-4.1048393,-0.9126892,1.735939,-1.6089478,1.8022339,2.066675,104.0
1503,-4.1048393,-0.9126892,1.735939,-1.5962037,1.6652344,1.9158691,104.0
1504,-2.6897182,-1.6052704,1.9611893,-1.5962037,1.6652344,1.9158691,104.0
1505,-1.7381268,-2.0327988,1.814251,-1.5962037,1.6652344,1.9158691,104.0
1506,-1.7381268,-2.0327988,1.814251,-1.3232666,1.3976074,1.6758546,104.0
1507,-1.350254,-2.0481186,1.4680748,-1.3232666,1.3976074,1.6758546,104.0
1508,-1.350254,-2.0481186,1.4680748,-1.1342286,1.083252,1.363623,104.0
1509,-1.0373821,-1.6774673,0.9885254,-1.1342286,1.083252,1.363623,104.0
1510,-1.0373821,-1.6774673,0.9885254,-1.2383057,0.6860596,1.0577637,104.0
1511,-0.37436295,-1.165863,0.32566833,-1.2383057,0.6860596,1.0577637,104.0
1512,-0.37436295,-1.165863,0.32566833,-1.5855836,0.3812622,0.7848267,104.0
1513,0.6641331,-0.84615326,-0.35131836,-1.5855836,0.3812622,0.7848267,104.0
1514,0.6641331,-0.84615326,-0.35131836,-1.9233032,0.22408448,0.62552494,104.0
1515,1.6567574,-0.86914825,-0.7764168,-1.9233032,0.22408448,0.62552494,104.0
1516,1.6567574,-0.86914825,-0.7764168,-2.0879152,0.15717773,0.5129517,104.0
1517,2.239029,-1.1302338,-0.9589386,-2.0879152,0.15717773,0.5129517,104.0
1518,2.239029,-1.1302338,-0.9589386,-2.0199463,0.115759276,0.46516114,104.0
1519,2.3955212,-1.4098129,-1.1152191,-2.0199463,0.115759276,0.46516114,104.0
1520,2.3955212,-1.4098129,-1.1152191,-1.7958618,0.10513916,0.4333008,104.0
1521,2.3955212,-1.4098129,-1.1152191,-1.7958618,0.10513916,0.4333008,106.0
1522,2.2869854,-1.5383987,-1.3255844,-1.7958618,0.10513916,0.4333008,106.0
1523,2.2869854,-1.5383987,-1.3255844,-1.5048707,0.1529297,0.43861085,106.0
1524,1.9700794,-1.4377365,-1.4678192,-1.5048707,0.1529297,0.43861085,106.0
1525,1.9700794,-1.4377365,-1.4678192,-1.2393677,0.24638672,0.5076416,106.0
1526,1.411171,-1.1500397,-1.447876,-1.2393677,0.24638672,0.5076416,106.0
1527,1.411171,-1.1500397,-1.447876,-1.0567017,0.36427003,0.5968506,106.0
1528,0.63797,-0.8809662,-1.26548,-1.0567017,0.36427003,0.5968506,106.0
1529,0.63797,-0.8809662,-1.26548,-0.998291,0.48109132,0.6956177,106.0
1530,-0.22939491,-0.8205185,-1.0040092,-0.998291,0.48109132,0.6956177,106.0
1531,-0.22939491,-0.8205185,-1.0040092,-1.0195312,0.5851685,0.76677245,106.0
1532,-1.137373,-0.8815155,-0.75936127,-1.0195312,0.5851685,0.76677245,106.0
1533,-1.137373,-0.8815155,-0.75936127,-0.9122681,0.6839356,0.8517334,106.0
1534,-1.9559803,-0.9007721,-0.4218712,-0.9122681,0.6839356,0.8517334,106.0
1535,-1.9559803,-0.9007721,-0.4218712,-0.75509036,0.7126099,0.903772,106.0
1536,-2.371437,-0.8813019,0.11812973,-0.75509036,0.7126099,0.903772,106.0
1537,-2.371437,-0.8813019,0.11812973,-0.6064087,0.6446411,0.8358032,106.0
1538,-2.1646671,-0.84537506,0.7257767,-0.6064087,0.6446411,0.8358032,106.0
1539,-2.1646671,-0.84537506,0.7257767,-0.39400634,0.54587406,0.6414551,106.0
1540,-1.7246552,-0.7434006,1.1790924,-0.39400634,0.54587406,0.6414551,106.0
1541,-1.7246552,-0.7434006,1.1790924,-0.06796875,0.5097656,0.38551027,106.0
1542,-1.720459,-0.46916962,1.2877922,-0.06796875,0.5097656,0.38551027,106.0
1543,-1.720459,-0.46916962,1.2877922,0.15611573,0.4630371,0.21346436,106.0
1544,-2.110962,-0.04412079,1.0248489,0.15611573,0.4630371,0.21346436,106.0
1545,-2.110962,-0.04412079,1.0248489,0.24744873,0.30373535,0.046728518,106.0
1546,-2.2479858,0.36149597,0.5532265,0.24744873,0.30373535,0.046728518,106.0
1547,-2.2479858,0.36149597,0.5532265,0.078588866,0.052038576,-0.095581055,106.0
1548,-1.7505493,0.6005249,0.02973938,0.078588866,0.052038576,-0.095581055,106.0
1549,-1.7505493,0.6005249,0.02973938,-0.23682861,-0.11469727,-0.2623169,106.0
1550,-1.2145996,0.43418884,-0.4928093,-0.23682861,-0.11469727,-0.2623169,106.0
1551,-1.2145996,0.43418884,-0.4928093,-0.49489745,-0.095581055,-0.46834716,106.0
1552,-1.4649048,-0.09741211,-0.7912216,-0.49489745,-0.095581055,-0.46834716,106.0
1553,-1.4649048,-0.09741211,-0.7912216,-0.49064943,-0.09133301,-0.5883545,106.0
1554,-2.1924438,-0.6014328,-0.5677185,-0.49064943,-0.09133301,-0.5883545,106.0
1555,-2.1924438,-0.6014328,-0.5677185,-0.27506104,-0.2262085,-0.6074707,106.0
1556,-2.1309338,-0.77440643,0.044052124,-0.27506104,-0.2262085,-0.6074707,106.0
1557,-2.1309338,-0.77440643,0.044052124,0.013806152,-0.49171144,-0.6053467,106.0
1558,-0.80900764,-0.8015671,0.4037361,0.013806152,-0.49171144,-0.6053467,106.0
1559,-0.80900764,-0.8015671,0.4037361,0.34833986,-0.60322267,-0.71791995,106.0
1560,0.45601654,-0.9011154,0.20572662,0.34833986,-0.60322267,-0.71791995,106.0
1561,0.45601654,-0.9011154,0.20572662,0.84323734,-0.635083,-0.87191164,106.0
1562,0.5640812,-0.7793503,-0.22373962,0.84323734,-0.635083,-0.87191164,106.0
1563,0.5640812,-0.7793503,-0.22373962,1.2850342,-0.72323,-1.0248413,106.0
1564,0.09379387,-0.40442657,-0.47231293,1.2850342,-0.72323,-1.0248413,106.0
1565,0.09379387,-0.40442657,-0.47231293,1.5303589,-0.84111327,-1.171399,106.0
1566,-0.017774582,-0.034088135,-0.42959595,1.5303589,-0.84111327,-1.171399,106.0
1567,-0.017774582,-0.034088135,-0.42959595,1.6716064,-1.0184692,-1.3073364,106.0
1568,0.5023346,0.3443222,-0.29756165,1.6716064,-1.0184692,-1.3073364,106.0
1569,0.5023346,0.3443222,-0.29756165,1.5845215,-1.1873292,-1.4199097,106.0
1570,1.4478035,0.73729706,-0.24245834,1.5845215,-1.1873292,-1.4199097,106.0
1571,1.4478035,0.73729706,-0.24245834,1.3742431,-1.3285767,-1.5016845,106.0
1572,2.5088043,0.97164917,-0.2406311,1.3742431,-1.3285767,-1.5016845,106.0
1573,2.5088043,0.97164917,-0.2406311,1.1427246,-1.4326538,-1.6588624,106.0
1574,3.3670654,0.99959564,-0.18938065,1.1427246,-1.4326538,-1.6588624,106.0
1575,3.3670654,0.99959564,-0.18938065,1.0174073,-1.4995606,-1.7894897,106.0
1576,3.8906136,0.9767914,-0.092876434,1.0174073,-1.4995606,-1.7894897,106.0
1577,3.8906136,0.9767914,-0.092876434,1.0089111,-1.5261109,-1.8595825,106.0
1578,4.069706,0.9818115,-0.019077301,1.0089111,-1.5261109,-1.8595825,106.0
1579,4.069706,0.9818115,-0.019077301,1.1002442,-1.5335449,-1.8627685,106.0
1580,3.9542637,1.0229492,0.018539429,1.1002442,-1.5335449,-1.8627685,106.0
1581,3.9542637,1.0229492,0.018539429,1.3253907,-1.5239868,-1.8351563,106.0
1582,3.6003609,1.1423492,0.044654846,1.3253907,-1.5239868,-1.8351563,106.0
1583,3.6003609,1.1423492,0.044654846,1.5292969,-1.5059327,-1.7608155,106.0
1584,3.0656776,1.3178711,-0.017719269,1.5292969,-1.5059327,-1.7608155,106.0
1585,3.0656776,1.3178711,-0.017719269,1.5898316,-1.445398,-1.6386842,106.0
