,accx,accy,accz,gyrox,gyroy,gyroz,heart rate
0,walk,walk,walk,walk,walk,walk,walk
1,-7.402649,15.91886,126.213806,0.0,0.0,0.0,0.0
2,-7.402649,15.91886,126.213806,-0.095581055,0.04248047,-0.035046387,0.0
3,-5.853748,12.692511,100.85046,-0.095581055,0.04248047,-0.035046387,0.0
4,-5.853748,12.692511,100.85046,0.020178223,0.19434814,-0.10938721,0.0
5,-4.6818995,9.9192915,80.457855,0.020178223,0.19434814,-0.10938721,0.0
6,-4.6818995,9.9192915,80.457855,0.13062744,0.2888672,-0.12531738,0.0
7,-4.6818995,9.9192915,80.457855,0.15611573,0.3069214,-0.11044922,0.0
8,-3.8103266,7.801424,64.12352,0.15611573,0.3069214,-0.11044922,0.0
9,-3.1642404,6.16714,51.009636,0.15611573,0.3069214,-0.11044922,0.0
10,-3.1642404,6.16714,51.009636,0.115759276,0.27506104,-0.11257324,0.0
11,-2.6404743,4.8731775,40.55401,0.115759276,0.27506104,-0.11257324,0.0
12,-2.6404743,4.8731775,40.55401,0.11151123,0.20496826,-0.10089111,0.0
13,-2.1470842,3.8625927,32.29235,0.11151123,0.20496826,-0.10089111,0.0
14,-2.1470842,3.8625927,32.29235,0.12850343,0.12531738,-0.078588866,0.0
15,-2.1470842,3.8625927,32.29235,0.09770508,0.07540283,-0.06796875,0.0
16,-1.6993937,3.0957146,25.775314,0.09770508,0.07540283,-0.06796875,0.0
17,-1.3538752,2.5153408,20.575577,0.09770508,0.07540283,-0.06796875,0.0
18,-1.3538752,2.5153408,20.575577,0.053100586,0.070092775,-0.04460449,0.0
19,-1.104743,2.033537,16.436127,0.053100586,0.070092775,-0.04460449,0.0
20,-1.104743,2.033537,16.436127,0.03079834,0.05628662,-0.023364259,0.0
21,-0.89775944,1.6155376,13.223022,0.03079834,0.05628662,-0.023364259,0.0
22,-0.89775944,1.6155376,13.223022,0.035046387,0.0021240234,-0.016992187,0.0
23,-0.6945753,1.3040752,10.733017,0.035046387,0.0021240234,-0.016992187,0.0
24,-0.6945753,1.3040752,10.733017,0.0180542,-0.05628662,-0.027612304,0.0
25,-0.4963827,1.0965443,8.703339,0.0180542,-0.05628662,-0.027612304,0.0
26,-0.4963827,1.0965443,8.703339,-0.0031860352,-0.07540283,-0.039294433,0.0
27,-0.32016468,0.9548607,7.002945,-0.0031860352,-0.07540283,-0.039294433,0.0
28,-0.32016468,0.9548607,7.002945,-0.03079834,-0.035046387,-0.038232423,0.0
29,-0.18954182,0.84064674,5.6906433,-0.03079834,-0.035046387,-0.038232423,0.0
30,-0.18954182,0.84064674,5.6906433,-0.07115479,-0.035046387,-0.04248047,0.0
31,-0.10584545,0.71375275,4.708725,-0.07115479,-0.035046387,-0.04248047,0.0
32,-0.10584545,0.71375275,4.708725,-0.09133301,-0.05522461,-0.07115479,0.0
33,-0.044099808,0.6269474,3.9025269,-0.09133301,-0.05522461,-0.07115479,0.0
34,-0.044099808,0.6269474,3.9025269,-0.1539917,-0.07115479,-0.10195313,0.0
35,-0.028114319,0.5919514,3.202118,-0.1539917,-0.07115479,-0.10195313,0.0
36,-0.028114319,0.5919514,3.202118,-0.19116211,-0.046728518,-0.124255374,0.0
37,-0.0697937,0.4788475,2.5832214,-0.19116211,-0.046728518,-0.124255374,0.0
38,-0.0697937,0.4788475,2.5832214,-0.23789063,-0.0053100586,-0.13275146,0.0
39,-0.12817383,0.1786232,2.031067,-0.23789063,-0.0053100586,-0.13275146,0.0
40,-0.12817383,0.1786232,2.031067,-0.13168946,0.010620117,-0.14230958,0.0
41,-0.12817383,0.1786232,2.031067,0.21240234,0.019116212,-0.14761963,0.0
42,-0.26589394,-0.20704079,1.4948578,0.21240234,0.019116212,-0.14761963,0.0
43,-0.4536085,-0.4078331,0.95214844,0.21240234,0.019116212,-0.14761963,0.0
44,-0.4536085,-0.4078331,0.95214844,0.4609131,0.0021240234,-0.12319336,0.0
45,-0.5031338,-0.21093369,0.5118866,0.4609131,0.0021240234,-0.12319336,0.0
46,-0.5031338,-0.21093369,0.5118866,0.37807617,-0.039294433,-0.0541626,0.0
47,-0.38801765,0.078653336,0.26004028,0.37807617,-0.039294433,-0.0541626,0.0
48,-0.38801765,0.078653336,0.26004028,0.26019287,-0.07327881,-0.040356446,0.0
49,-0.2319355,0.105196,0.15545654,0.26019287,-0.07327881,-0.040356446,0.0
50,-0.2319355,0.105196,0.15545654,0.23682861,-0.13699952,-0.032922365,0.0
51,-0.1204977,0.063734055,0.09837341,0.23682861,-0.13699952,-0.032922365,0.0
52,-0.1204977,0.063734055,0.09837341,0.2803711,-0.1539917,0.012744141,0.0
53,-0.08188343,0.13572884,0.015945435,0.2803711,-0.1539917,0.012744141,0.0
54,-0.08188343,0.13572884,0.015945435,0.25700685,-0.16036378,0.045666505,0.0
55,-0.078287125,0.30405426,-0.06436157,0.25700685,-0.16036378,0.045666505,0.0
56,-0.078287125,0.30405426,-0.06436157,0.11682129,-0.1709839,0.05628662,0.0
57,-0.07351875,0.4520321,-0.09820557,0.11682129,-0.1709839,0.05628662,0.0
58,-0.07351875,0.4520321,-0.09820557,-0.06903076,-0.20496826,0.047790527,0.0
59,-0.081459045,0.4944744,-0.12527466,-0.06903076,-0.20496826,0.047790527,0.0
60,-0.081459045,0.4944744,-0.12527466,-0.20390625,-0.2623169,0.0180542,0.0
61,-0.09027672,0.4179554,-0.2414856,-0.20390625,-0.2623169,0.0180542,0.0
62,-0.09027672,0.4179554,-0.2414856,-0.29099122,-0.28461915,0.0053100586,0.0
63,-0.103666306,0.29599762,-0.44732666,-0.29099122,-0.28461915,0.0053100586,0.0
64,-0.103666306,0.29599762,-0.44732666,-0.3345337,-0.26444092,0.011682129,0.0
65,-0.15760326,0.17174721,-0.6168213,-0.3345337,-0.26444092,0.011682129,0.0
66,-0.15760326,0.17174721,-0.6168213,-0.41418457,-0.29948732,0.0010620117,0.0
67,-0.2752161,0.121126175,-0.71406555,-0.41418457,-0.29948732,0.0010620117,0.0
68,-0.2752161,0.121126175,-0.71406555,-0.6159668,-0.38975832,-0.052038576,0.0
69,-0.3886671,0.24273872,-0.8397064,-0.6159668,-0.38975832,-0.052038576,0.0
70,-0.3886671,0.24273872,-0.8397064,-0.97492677,-0.50445557,-0.11682129,0.0
71,-0.43859482,0.50805855,-1.0334167,-0.97492677,-0.50445557,-0.11682129,0.0
72,-0.43859482,0.50805855,-1.0334167,-1.4432739,-0.6403931,-0.2081543,0.0
73,-0.42682743,0.753664,-1.2353516,-1.4432739,-0.6403931,-0.2081543,0.0
74,-0.42682743,0.753664,-1.2353516,-1.9296753,-0.79013675,-0.3334717,0.0
75,-0.3294506,0.83579254,-1.3103333,-1.9296753,-0.79013675,-0.3334717,0.0
76,-0.3294506,0.83579254,-1.3103333,-2.3640382,-0.9791748,-0.5171997,0.0
77,-0.11686802,0.6469059,-1.1126556,-2.3640382,-0.9791748,-0.5171997,0.0
78,-0.11686802,0.6469059,-1.1126556,-2.7580445,-1.2383057,-0.7720825,0.0
79,0.29429817,0.115522385,-0.5111847,-2.7580445,-1.2383057,-0.7720825,0.0
80,0.29429817,0.115522385,-0.5111847,-3.1509888,-1.634436,-1.1193603,0.0
81,0.79071236,-0.49317932,0.19972229,-3.1509888,-1.634436,-1.1193603,0.0
82,0.79071236,-0.49317932,0.19972229,-3.5545533,-2.0369384,-1.4751343,0.0
83,1.1649427,-0.8490238,0.5670929,-3.5545533,-2.0369384,-1.4751343,0.0
84,1.1649427,-0.8490238,0.5670929,-4.213001,-2.34386,-1.9530395,0.0
85,1.1649427,-0.8490238,0.5670929,-4.4848757,-2.5148437,-2.1144655,0.0
86,1.5879107,-1.277132,0.5440674,-4.4848757,-2.5148437,-2.1144655,0.0
87,1.5879107,-1.277132,0.5440674,-4.4848757,-2.5148437,-2.1144655,89.0
88,2.1674109,-2.475563,0.6852722,-4.4848757,-2.5148437,-2.1144655,89.0
89,2.1674109,-2.475563,0.6852722,-4.713208,-2.7378662,-2.627417,89.0
90,2.8526297,-4.024042,1.2853699,-4.713208,-2.7378662,-2.627417,89.0
91,2.8526297,-4.024042,1.2853699,-4.9394164,-3.0469117,-3.1159425,89.0
92,3.5042963,-4.913349,1.8107605,-4.9394164,-3.0469117,-3.1159425,89.0
93,3.5042963,-4.913349,1.8107605,-5.04137,-3.352771,-3.5131347,89.0
94,3.8844676,-4.741397,1.5657196,-5.04137,-3.352771,-3.5131347,89.0
95,3.8844676,-4.741397,1.5657196,-4.7609987,-3.4961426,-3.529065,89.0
96,4.0628967,-4.0501366,0.425766,-4.7609987,-3.4961426,-3.529065,89.0
97,4.0628967,-4.0501366,0.425766,-3.6809328,-3.2826784,-3.3347168,89.0
98,4.288391,-3.7108374,-0.8063507,-3.6809328,-3.2826784,-3.3347168,89.0
99,4.288391,-3.7108374,-0.8063507,-2.8706176,-2.9332764,-3.349585,89.0
100,4.677747,-3.7082691,-1.3749695,-2.8706176,-2.9332764,-3.349585,89.0
101,4.677747,-3.7082691,-1.3749695,-2.3311157,-2.5169678,-3.448352,89.0
102,5.238206,-3.62212,-1.1651917,-2.3311157,-2.5169678,-3.448352,89.0
103,5.238206,-3.62212,-1.1651917,-1.9679078,-2.1728761,-3.6076539,89.0
104,5.9113655,-3.521658,-0.54048157,-1.9679078,-2.1728761,-3.6076539,89.0
105,5.9113655,-3.521658,-0.54048157,-1.7863038,-1.8829468,-3.805188,89.0
106,6.279593,-3.6272507,0.22276306,-1.7863038,-1.8829468,-3.805188,89.0
107,6.279593,-3.6272507,0.22276306,-1.628064,-1.8266602,-3.99104,89.0
108,6.387444,-3.8299017,0.8079071,-1.628064,-1.8266602,-3.99104,89.0
109,6.387444,-3.8299017,0.8079071,-1.453894,-2.1144655,-4.081311,89.0
110,6.227045,-3.9981499,0.96180725,-1.453894,-2.1144655,-4.081311,89.0
111,6.227045,-3.9981499,0.96180725,-1.3083985,-2.2334106,-4.044141,89.0
112,5.5038896,-3.9750948,0.94903564,-1.3083985,-2.2334106,-4.044141,89.0
113,5.5038896,-3.9750948,0.94903564,-1.1565307,-2.3778443,-3.802002,89.0
114,4.5305777,-3.6477761,0.9517212,-1.1565307,-2.3778443,-3.802002,89.0
115,4.5305777,-3.6477761,0.9517212,-1.1023682,-2.4118288,-3.3814454,89.0
116,3.5273552,-3.1173058,0.98654175,-1.1023682,-2.4118288,-3.3814454,89.0
117,3.5273552,-3.1173058,0.98654175,-1.0949341,-2.438379,-2.7771606,89.0
118,2.652194,-2.0474458,0.6424713,-1.0949341,-2.438379,-2.7771606,89.0
119,2.652194,-2.0474458,0.6424713,-1.1522827,-2.1388917,-2.001892,89.0
120,2.1720238,-0.88699245,-0.1818695,-1.1522827,-2.1388917,-2.001892,89.0
121,2.1720238,-0.88699245,-0.1818695,-1.6015137,-1.6694825,-1.1607789,89.0
122,2.0065403,-0.52534103,-0.8483124,-1.6015137,-1.6694825,-1.1607789,89.0
123,2.0065403,-0.52534103,-0.8483124,-1.6970948,-1.1342286,-0.6180908,89.0
124,1.5770216,-0.69754314,-1.033905,-1.6970948,-1.1342286,-0.6180908,89.0
125,1.5770216,-0.69754314,-1.033905,-1.4517701,-0.66481936,-0.2984253,89.0
126,0.69423485,-0.96018314,-0.8217926,-1.4517701,-0.66481936,-0.2984253,89.0
127,0.69423485,-0.96018314,-0.8217926,-1.3614991,-0.36320803,-0.2623169,89.0
128,-0.13440704,-1.1134467,-0.33920288,-1.3614991,-0.36320803,-0.2623169,89.0
129,-0.13440704,-1.1134467,-0.33920288,-1.0004151,-0.4439209,-0.27293703,89.0
130,-0.27738667,-1.3536115,0.22232056,-1.0004151,-0.4439209,-0.27293703,89.0
131,-0.27738667,-1.3536115,0.22232056,-0.5872925,-0.5777344,-0.56392825,89.0
132,0.05077076,-1.6672764,0.7406616,-0.5872925,-0.5777344,-0.56392825,89.0
133,0.05077076,-1.6672764,0.7406616,0.13062744,-0.7657105,-0.7678345,89.0
134,0.36838722,-1.783113,1.0820923,0.13062744,-0.7657105,-0.7678345,89.0
135,0.36838722,-1.783113,1.0820923,0.58304447,-0.81987303,-0.80181885,89.0
136,0.36879444,-1.4797864,1.1216278,0.58304447,-0.81987303,-0.80181885,89.0
137,0.36879444,-1.4797864,1.1216278,1.2276856,-0.65844727,-0.48746338,89.0
138,-0.08260155,-0.6530309,0.8694153,1.2276856,-0.65844727,-0.48746338,89.0
139,-0.08260155,-0.6530309,0.8694153,1.9827759,-0.5246338,0.15080567,89.0
140,-0.43002224,0.73721886,0.26663208,1.9827759,-0.5246338,0.15080567,89.0
141,-0.43002224,0.73721886,0.26663208,2.4946656,0.06265869,0.6202149,89.0
142,-0.5195179,2.2605758,-0.28735352,2.4946656,0.06265869,0.6202149,89.0
143,-0.5195179,2.2605758,-0.28735352,2.9523926,1.1289185,1.1660889,89.0
144,-0.32081413,3.5987806,-0.36146545,2.9523926,1.1289185,1.1660889,89.0
145,-0.32081413,3.5987806,-0.36146545,4.2671633,1.6546143,1.2850342,89.0
146,-0.11336517,4.8875694,-0.1715393,4.2671633,1.6546143,1.2850342,89.0
147,-0.11336517,4.8875694,-0.1715393,3.9623659,2.5552003,1.4220337,89.0
148,-0.16980648,5.395444,0.38356018,3.9623659,2.5552003,1.4220337,89.0
149,-0.16980648,5.395444,0.38356018,2.9290283,2.6539674,1.3763672,89.0
150,-0.7362232,4.674803,0.8930664,2.9290283,2.6539674,1.3763672,89.0
151,-0.7362232,4.674803,0.8930664,1.2340577,2.6433473,1.4379638,89.0
152,-1.7059469,3.3290758,0.7765045,1.2340577,2.6433473,1.4379638,89.0
153,-1.7059469,3.3290758,0.7765045,-0.23258057,2.7697265,1.6578003,89.0
154,-2.6697254,2.0047894,0.1643219,-0.23258057,2.7697265,1.6578003,89.0
155,-2.6697254,2.0047894,0.1643219,-0.9494385,2.9226563,1.8340943,89.0
156,-2.9523697,1.3884754,-0.38502502,-0.9494385,2.9226563,1.8340943,89.0
157,-2.9523697,1.3884754,-0.38502502,-0.9133301,2.8674316,1.9158691,89.0
158,-3.8109436,0.53957653,-1.2378387,-0.9133301,2.8674316,1.9158691,89.0
159,-3.8109436,0.53957653,-1.2378387,-1.0482056,2.6571534,2.1144655,89.0
160,-3.6270633,0.44016933,-1.5614014,-1.0482056,2.6571534,2.1144655,89.0
161,-3.6270633,0.44016933,-1.5614014,-0.85491943,2.5775025,2.160132,89.0
162,-3.607071,0.4985714,-2.0963898,-0.85491943,2.5775025,2.160132,89.0
163,-3.607071,0.4985714,-2.0963898,-0.7349121,2.9630127,2.2440307,89.0
164,-2.8502684,0.9608078,-2.272766,-0.7349121,2.9630127,2.2440307,89.0
165,-2.8502684,0.9608078,-2.272766,-0.4354248,2.350232,1.8617066,89.0
166,-3.2634177,0.94414616,-1.0840912,-0.4354248,2.350232,1.8617066,89.0
167,-3.2634177,0.94414616,-1.0840912,-0.019116212,2.0932252,1.6609863,89.0
168,-2.9134076,1.0683422,-0.78009033,-0.019116212,2.0932252,1.6609863,89.0
169,-2.9134076,1.0683422,-0.78009033,0.118945315,1.893567,1.4730103,89.0
170,-2.786793,1.6426983,-0.054244995,0.118945315,1.893567,1.4730103,89.0
171,-2.786793,1.6426983,-0.054244995,0.37595215,1.2722901,1.0651978,89.0
172,-2.485196,1.7594595,0.068115234,0.37595215,1.2722901,1.0651978,89.0
173,-2.485196,1.7594595,0.068115234,0.3982544,1.0407715,0.9143921,89.0
174,-2.6887307,2.6261349,0.76530457,0.3982544,1.0407715,0.9143921,89.0
175,-2.6887307,2.6261349,0.76530457,0.0053100586,0.42799073,0.44073486,89.0
176,-2.3814654,2.506071,0.7454071,0.0053100586,0.42799073,0.44073486,89.0
177,-2.3814654,2.506071,0.7454071,-0.3164795,0.27612305,0.27293703,89.0
178,-2.1792326,2.6179304,0.6997223,-0.3164795,0.27612305,0.27293703,89.0
179,-2.1792326,2.6179304,0.6997223,-1.7809937,-0.14974366,-0.28355715,89.0
180,-1.6329979,1.8940144,0.3276825,-1.7809937,-0.14974366,-0.28355715,89.0
181,-1.6329979,1.8940144,0.3276825,-2.1983643,-0.19753419,-0.5798584,89.0
182,-0.68554866,0.22533035,-0.25479126,-2.1983643,-0.19753419,-0.5798584,89.0
183,-0.68554866,0.22533035,-0.25479126,-2.9088502,-0.46622315,-1.4379638,89.0
184,-0.14376366,-0.36193562,-0.43385315,-2.9088502,-0.46622315,-1.4379638,89.0
185,-0.14376366,-0.36193562,-0.43385315,-3.1541748,-0.59260255,-1.6949707,89.0
186,1.4733069,-1.3941755,-0.39315796,-3.1541748,-0.59260255,-1.6949707,89.0
187,1.4733069,-1.3941755,-0.39315796,-4.213001,-0.94625247,-2.4160767,89.0
188,2.2821856,-1.8265705,-0.53015137,-4.213001,-0.94625247,-2.4160767,89.0
189,2.2821856,-1.8265705,-0.53015137,-4.52948,-1.0577637,-2.7283082,89.0
190,4.696623,-3.3645515,-0.9601898,-4.52948,-1.0577637,-2.7283082,89.0
191,4.696623,-3.3645515,-0.9601898,-4.7471924,-1.2404298,-3.6373901,89.0
192,7.617467,-5.7525177,-2.0065155,-4.7471924,-1.2404298,-3.6373901,89.0
193,7.617467,-5.7525177,-2.0065155,-3.9474976,-1.2478638,-4.4073486,89.0
194,10.171965,-9.025428,-3.6043243,-3.9474976,-1.2478638,-4.4073486,89.0
195,10.171965,-9.025428,-3.6043243,-0.8793457,-0.81987303,-4.731262,89.0
196,8.766783,-8.133684,-3.0266876,-0.8793457,-0.81987303,-4.731262,89.0
197,8.766783,-8.133684,-3.0266876,0.07540283,-0.71791995,-4.539038,89.0
198,4.7364244,-5.5394917,-1.5297089,0.07540283,-0.71791995,-4.539038,89.0
199,4.7364244,-5.5394917,-1.5297089,1.537793,-0.7943848,-3.0108032,89.0
200,2.872941,-3.8155656,-0.62664795,1.537793,-0.7943848,-3.0108032,89.0
201,2.872941,-3.8155656,-0.62664795,1.629126,-0.7975708,-2.4086425,89.0
202,0.58066463,-1.5458362,-0.023269653,1.629126,-0.7975708,-2.4086425,89.0
203,0.58066463,-1.5458362,-0.023269653,1.4889405,-0.56605226,-1.0726318,89.0
204,-0.43836117,0.10655594,-0.26748657,1.4889405,-0.56605226,-1.0726318,89.0
205,-0.43836117,0.10655594,-0.26748657,0.7869507,-0.035046387,0.08496094,89.0
206,-0.82694626,0.824759,-0.67240906,0.7869507,-0.035046387,0.08496094,89.0
207,-0.82694626,0.824759,-0.67240906,0.18585205,0.4428589,0.91757816,89.0
208,-1.4044285,0.7959156,-0.75686646,0.18585205,0.4428589,0.91757816,89.0
209,-1.4044285,0.7959156,-0.75686646,-0.21877442,0.83686525,1.3838013,89.0
210,-2.4234943,0.5914078,-0.450943,-0.21877442,0.83686525,1.3838013,89.0
211,-2.4234943,0.5914078,-0.450943,-0.4343628,0.991919,1.5972656,89.0
212,-3.4959245,0.6410341,0.1068573,-0.4343628,0.991919,1.5972656,89.0
213,-3.4959245,0.6410341,0.1068573,-0.28461915,0.9855469,1.3827393,89.0
214,-4.1742907,1.406858,0.8053589,-0.28461915,0.9855469,1.3827393,89.0
215,-4.1742907,1.406858,0.8053589,0.7189819,0.79013675,1.1310425,89.0
216,-4.528361,2.1454573,0.93019104,0.7189819,0.79013675,1.1310425,89.0
217,-4.528361,2.1454573,0.93019104,0.23258057,0.61915284,0.9685547,89.0
218,-4.5982747,1.8079796,0.70961,0.23258057,0.61915284,0.9685547,89.0
219,-4.5982747,1.8079796,0.70961,0.21452637,0.16567384,0.8878418,89.0
220,-4.0900335,1.0929165,0.6635895,0.21452637,0.16567384,0.8878418,89.0
221,-4.0900335,1.0929165,0.6635895,0.4088745,-0.008496094,0.8050049,89.0
222,-3.1712089,0.84475565,0.5575104,0.4088745,-0.008496094,0.8050049,89.0
223,-3.1712089,0.84475565,0.5575104,0.86766356,-0.11257324,0.72854006,89.0
224,-2.1966474,0.863976,0.31575012,0.86766356,-0.11257324,0.72854006,89.0
225,-2.1966474,0.863976,0.31575012,1.171399,-0.09451904,0.6616333,89.0
226,-1.2966857,0.8190613,0.01399231,1.171399,-0.09451904,0.6616333,89.0
227,-1.2966857,0.8190613,0.01399231,1.359375,-0.026550293,0.55755615,89.0
228,-0.4496777,0.75367403,-0.24238586,1.359375,-0.026550293,0.55755615,89.0
229,-0.4496777,0.75367403,-0.24238586,1.4188477,0.095581055,0.44816896,89.0
230,-0.4496777,0.75367403,-0.24238586,1.4188477,0.095581055,0.44816896,92.0
231,0.19265044,0.6239233,-0.2638855,1.4188477,0.095581055,0.44816896,92.0
232,0.19265044,0.6239233,-0.2638855,1.4358399,0.1178833,0.25594482,92.0
233,0.81591237,0.44640446,-0.1285553,1.4358399,0.1178833,0.25594482,92.0
234,0.81591237,0.44640446,-0.1285553,1.5027466,0.09133301,0.0998291,92.0
235,1.8345048,0.37235832,-0.30044556,1.5027466,0.09133301,0.0998291,92.0
236,1.8345048,0.37235832,-0.30044556,1.2924683,0.04991455,-0.057348635,92.0
237,3.022572,0.08054066,-0.4571228,1.2924683,0.04991455,-0.057348635,92.0
238,3.022572,0.08054066,-0.4571228,0.93563235,0.045666505,-0.24638672,92.0
239,3.8011632,-0.3845787,-0.023727417,0.93563235,0.045666505,-0.24638672,92.0
240,3.8011632,-0.3845787,-0.023727417,0.7338501,-0.22408448,-0.3802002,92.0
241,3.9082036,-0.43919373,0.7418213,0.7338501,-0.22408448,-0.3802002,92.0
242,3.9082036,-0.43919373,0.7418213,0.42055663,-0.7593384,-0.15080567,92.0
243,3.336121,-0.027941704,1.5110931,0.42055663,-0.7593384,-0.15080567,92.0
244,3.336121,-0.027941704,1.5110931,-0.045666505,-1.1692749,0.04460449,92.0
245,2.6025763,0.515574,2.376419,-0.045666505,-1.1692749,0.04460449,92.0
246,2.6025763,0.515574,2.376419,-0.6924316,-1.6992188,0.035046387,92.0
247,2.367693,0.93078184,3.2668762,-0.6924316,-1.6992188,0.035046387,92.0
248,2.367693,0.93078184,3.2668762,-1.1469727,-2.3066895,0.1985962,92.0
249,2.4681168,1.0345302,3.8010864,-1.1469727,-2.3066895,0.1985962,92.0
250,2.4681168,1.0345302,3.8010864,-1.3275146,-2.613611,0.25700685,92.0
251,2.011078,0.56448936,3.5221252,-1.3275146,-2.613611,0.25700685,92.0
252,2.011078,0.56448936,3.5221252,-1.2266235,-2.3725343,-0.010620117,92.0
253,0.57442665,-0.52178526,2.2371826,-1.2266235,-2.3725343,-0.010620117,92.0
254,0.57442665,-0.52178526,2.2371826,-0.544812,-1.9296753,-0.0010620117,92.0
255,-0.9255781,-1.3430753,0.15031433,-0.544812,-1.9296753,-0.0010620117,92.0
256,-0.9255781,-1.3430753,0.15031433,-0.07115479,-1.0099732,-0.16885987,92.0
257,-1.5442953,-0.9787326,-1.8449554,-0.07115479,-1.0099732,-0.16885987,92.0
258,-1.5442953,-0.9787326,-1.8449554,-0.5235718,1.2574219,0.23789063,92.0
259,-1.2083492,-0.39262962,-2.5403748,-0.5235718,1.2574219,0.23789063,92.0
260,-1.2083492,-0.39262962,-2.5403748,0.06265869,2.5891845,0.542688,92.0
261,-0.9809251,0.06565714,-2.325714,0.06265869,2.5891845,0.542688,92.0
262,-0.9809251,0.06565714,-2.325714,0.29736328,3.0076172,0.72004396,92.0
263,-1.4868884,0.88195705,-2.125534,0.29736328,3.0076172,0.72004396,92.0
264,-1.4868884,0.88195705,-2.125534,-0.08920898,2.9035401,0.813501,92.0
265,-2.2985926,1.6380239,-1.9713287,-0.08920898,2.9035401,0.813501,92.0
266,-2.2985926,1.6380239,-1.9713287,-0.9494385,2.8185792,0.9600586,92.0
267,-3.0388498,1.7359562,-1.7646179,-0.9494385,2.8185792,0.9600586,92.0
268,-3.0388498,1.7359562,-1.7646179,-1.5781494,2.3417358,0.9568726,92.0
269,-3.5062752,1.0948076,-1.686966,-1.5781494,2.3417358,0.9568726,92.0
270,-3.5062752,1.0948076,-1.686966,-1.713025,1.7406372,0.7614624,92.0
271,-3.6336336,0.42579746,-1.747879,-1.713025,1.7406372,0.7614624,92.0
272,-3.6336336,0.42579746,-1.747879,-1.2988404,1.1544068,0.5140137,92.0
273,-3.1417215,0.43491268,-2.252884,-1.2988404,1.1544068,0.5140137,92.0
274,-3.1417215,0.43491268,-2.252884,-1.2308716,1.6981567,0.18585205,92.0
275,-2.837779,0.3253231,-1.9756927,-1.2308716,1.6981567,0.18585205,92.0
276,-2.837779,0.3253231,-1.9756927,-0.2984253,0.634021,-0.13168946,92.0
277,-2.5591393,0.22307587,-0.99168396,-0.2984253,0.634021,-0.13168946,92.0
278,-2.5591393,0.22307587,-0.99168396,0.37382814,0.14230958,-0.4088745,92.0
279,-1.5917695,0.65360737,-0.66578674,0.37382814,0.14230958,-0.4088745,92.0
280,-1.5917695,0.65360737,-0.66578674,0.36745605,-0.1720459,-0.5363159,92.0
281,-0.7468897,0.686924,-0.5523529,0.36745605,-0.1720459,-0.5363159,92.0
282,-0.7468897,0.686924,-0.5523529,0.14868164,-0.40250245,-0.6839356,92.0
283,-0.2366597,0.17096233,-0.38516235,0.14868164,-0.40250245,-0.6839356,92.0
284,-0.2366597,0.17096233,-0.38516235,-0.010620117,-0.5766724,-0.7742066,92.0
285,0.09465659,-0.607749,-0.024612427,-0.010620117,-0.5766724,-0.7742066,92.0
286,0.09465659,-0.607749,-0.024612427,0.11682129,-0.77526855,-0.8772217,92.0
287,0.55375266,-1.1730032,0.50068665,0.11682129,-0.77526855,-0.8772217,92.0
288,0.55375266,-1.1730032,0.50068665,0.33878174,-1.0067872,-1.0322754,92.0
289,1.3436003,-1.3971434,0.91334534,0.33878174,-1.0067872,-1.0322754,92.0
290,1.3436003,-1.3971434,0.91334534,0.5065796,-1.1873292,-1.1926392,92.0
291,2.427297,-1.3994894,1.0826569,0.5065796,-1.1873292,-1.1926392,92.0
292,2.427297,-1.3994894,1.0826569,0.38975832,-1.3625611,-1.3062744,92.0
293,3.4370282,-1.2948604,1.2299957,0.38975832,-1.3625611,-1.3062744,92.0
294,3.4370282,-1.2948604,1.2299957,-0.4078125,-1.5919555,-1.264856,92.0
295,4.003065,-1.257751,1.6031036,-0.4078125,-1.5919555,-1.264856,92.0
296,4.003065,-1.257751,1.6031036,-1.3020264,-1.716211,-1.1172364,92.0
297,4.463585,-1.0711055,2.0998077,-1.3020264,-1.716211,-1.1172364,92.0
298,4.463585,-1.0711055,2.0998077,-2.9545166,-1.7289551,-1.1225464,92.0
299,5.669342,-1.3421874,2.191925,-2.9545166,-1.7289551,-1.1225464,92.0
300,5.669342,-1.3421874,2.191925,-3.0065553,-2.0125122,-0.8219971,92.0
301,6.6196413,-2.77209,1.0759583,-3.0065553,-2.0125122,-0.8219971,92.0
302,6.6196413,-2.77209,1.0759583,-0.95581055,-1.5611572,-0.69349366,92.0
303,5.275962,-3.7971888,-0.6777191,-0.95581055,-1.5611572,-0.69349366,92.0
304,5.275962,-3.7971888,-0.6777191,0.014868164,-1.1204224,-0.30054933,92.0
305,2.4053154,-3.1470408,-1.3678131,0.014868164,-1.1204224,-0.30054933,92.0
306,2.4053154,-3.1470408,-1.3678131,1.5792115,0.08283692,0.19222413,92.0
307,-0.3693142,-0.87589693,-1.3694305,1.5792115,0.08283692,0.19222413,92.0
308,-0.3693142,-0.87589693,-1.3694305,2.7814088,1.1289185,0.033984374,92.0
309,-2.5794353,1.1275783,-1.3072968,2.7814088,1.1289185,0.033984374,92.0
310,-2.5794353,1.1275783,-1.3072968,2.9704468,1.2213135,0.8793457,92.0
311,-3.1593008,1.4549799,-1.0450287,2.9704468,1.2213135,0.8793457,92.0
312,-3.1593008,1.4549799,-1.0450287,3.172229,1.6535523,0.8379273,92.0
313,-2.574975,1.5828071,-0.7094879,3.172229,1.6535523,0.8379273,92.0
314,-2.574975,1.5828071,-0.7094879,2.7622926,2.0188844,0.8336792,92.0
315,-2.1656075,1.8685408,-0.060836792,2.7622926,2.0188844,0.8336792,92.0
316,-2.1656075,1.8685408,-0.060836792,1.8245362,2.0401247,0.88253176,92.0
317,-2.3922272,1.7029381,0.50901794,1.8245362,2.0401247,0.88253176,92.0
318,-2.3922272,1.7029381,0.50901794,0.9632446,1.8266602,0.9281983,92.0
319,-3.094983,1.1192722,0.649353,0.9632446,1.8266602,0.9281983,92.0
320,-3.094983,1.1192722,0.649353,0.35046387,1.2871583,0.88996583,92.0
321,-3.603074,0.6063309,0.27249146,0.35046387,1.2871583,0.88996583,92.0
322,-3.603074,0.6063309,0.27249146,0.2081543,0.88253176,0.94731444,92.0
323,-3.4970465,0.5300112,-0.443161,0.2081543,0.88253176,0.94731444,92.0
324,-3.4970465,0.5300112,-0.443161,0.057348635,1.0768799,0.96430665,92.0
325,-3.2293267,0.5683203,-0.56954956,0.057348635,1.0768799,0.96430665,92.0
326,-3.2293267,0.5683203,-0.56954956,0.5798584,0.46409914,1.1066163,92.0
327,-2.8954122,0.5978451,0.021896362,0.5798584,0.46409914,1.1066163,92.0
328,-2.8954122,0.5978451,0.021896362,1.1384766,0.0031860352,1.2457398,92.0
329,-2.2239227,0.78950644,0.47961426,1.1384766,0.0031860352,1.2457398,92.0
330,-2.2239227,0.78950644,0.47961426,1.4910644,-0.18054199,1.2340577,92.0
331,-1.5318725,1.0250502,0.6097412,1.4910644,-0.18054199,1.2340577,92.0
332,-1.5318725,1.0250502,0.6097412,1.6832886,-0.2623169,1.1873292,92.0
333,-0.93222415,1.220748,0.5881195,1.6832886,-0.2623169,1.1873292,92.0
334,-0.93222415,1.220748,0.5881195,1.6652344,-0.26337892,1.0694458,92.0
335,-0.36474907,1.3055291,0.6224823,1.6652344,-0.26337892,1.0694458,92.0
336,-0.36474907,1.3055291,0.6224823,1.6238159,-0.25806886,0.93350834,92.0
337,0.11117923,1.3063002,0.7503967,1.6238159,-0.25806886,0.93350834,92.0
338,0.11117923,1.3063002,0.7503967,1.4910644,-0.25700685,0.7869507,92.0
339,0.53332806,1.3063803,0.8634491,1.4910644,-0.25700685,0.7869507,92.0
340,0.53332806,1.3063803,0.8634491,1.2552979,-0.2782471,0.59047854,92.0
341,1.1331079,1.282238,0.8069763,1.2552979,-0.2782471,0.59047854,92.0
342,1.1331079,1.282238,0.8069763,0.9483765,-0.29205322,0.35895997,92.0
343,1.8469038,1.2015839,0.68063354,0.9483765,-0.29205322,0.35895997,92.0
344,1.8469038,1.2015839,0.68063354,0.52038574,-0.31223145,0.10195313,92.0
345,2.1368127,1.0271482,0.7657013,0.52038574,-0.31223145,0.10195313,92.0
346,2.1368127,1.0271482,0.7657013,-0.023364259,-0.40250245,-0.121069334,92.0
347,1.8227072,0.8753071,1.0720367,-0.023364259,-0.40250245,-0.121069334,92.0
348,1.8227072,0.8753071,1.0720367,-0.7720825,-0.5713623,-0.3175415,92.0
349,1.5165277,0.65703297,1.2451935,-0.7720825,-0.5713623,-0.3175415,92.0
350,1.5165277,0.65703297,1.2451935,-1.6100098,-0.7858887,-0.5713623,92.0
351,1.5695577,0.1289587,1.0980072,-1.6100098,-0.7858887,-0.5713623,92.0
352,1.5695577,0.1289587,1.0980072,-2.0188844,-0.9632446,-0.88996583,92.0
353,1.594379,-0.6478586,0.7415924,-2.0188844,-0.9632446,-0.88996583,92.0
354,1.594379,-0.6478586,0.7415924,-2.1781862,-1.1448487,-1.2361816,92.0
355,1.4947171,-1.5838995,0.58258057,-2.1781862,-1.1448487,-1.2361816,92.0
356,1.4947171,-1.5838995,0.58258057,-1.7767457,-1.4284058,-1.6546143,92.0
357,1.4745822,-2.59649,1.125351,-1.7767457,-1.4284058,-1.6546143,92.0
358,1.4745822,-2.59649,1.125351,-0.77739257,-1.9381714,-2.0879152,92.0
359,1.5549464,-3.3469672,2.0703583,-0.77739257,-1.9381714,-2.0879152,92.0
360,1.5549464,-3.3469672,2.0703583,0.45347902,-2.4670532,-2.3767822,92.0
361,1.790698,-3.4352398,2.4693909,0.45347902,-2.4670532,-2.3767822,92.0
362,1.790698,-3.4352398,2.4693909,1.083252,-2.7261841,-2.4235108,92.0
363,1.790698,-3.4352398,2.4693909,1.083252,-2.7261841,-2.4235108,90.0
364,2.0779438,-2.860948,2.0524292,1.083252,-2.7261841,-2.4235108,90.0
365,2.0779438,-2.860948,2.0524292,1.3434448,-2.6826417,-2.075171,90.0
366,2.366518,-1.6932626,1.0346527,1.3434448,-2.6826417,-2.075171,90.0
367,2.366518,-1.6932626,1.0346527,1.0375855,-2.1038454,-1.2786621,90.0
368,2.3085465,-0.13720274,0.0342865,1.0375855,-2.1038454,-1.2786621,90.0
369,2.3085465,-0.13720274,0.0342865,0.37595215,-0.5246338,-0.3971924,90.0
370,1.3276725,1.0554476,0.069366455,0.37595215,-0.5246338,-0.3971924,90.0
371,1.3276725,1.0554476,0.069366455,-0.5692383,0.6595093,0.4619751,90.0
372,-0.51324034,1.378892,0.6048279,-0.5692383,0.6595093,0.4619751,90.0
373,-0.51324034,1.378892,0.6048279,-1.0959961,1.1692749,1.0184692,90.0
374,-2.5150356,0.6984501,0.51545715,-1.0959961,1.1692749,1.0184692,90.0
375,-2.5150356,0.6984501,0.51545715,-0.23151855,1.170337,1.2043213,90.0
376,-3.8361254,-0.16024637,-0.04837036,-0.23151855,1.170337,1.2043213,90.0
377,-3.8361254,-0.16024637,-0.04837036,0.6042847,0.8400513,0.90058595,90.0
378,-4.1177044,-0.04671526,-0.59233093,0.6042847,0.8400513,0.90058595,90.0
379,-4.1177044,-0.04671526,-0.59233093,0.83049315,0.46516114,0.4800293,90.0
380,-3.6008162,1.0442562,-0.9259949,0.83049315,0.46516114,0.4800293,90.0
381,-3.6008162,1.0442562,-0.9259949,0.9398804,0.24213867,0.20496826,90.0
382,-2.73943,2.1034713,-1.0696411,0.9398804,0.24213867,0.20496826,90.0
383,-2.73943,2.1034713,-1.0696411,0.76358646,0.14761963,0.07965088,90.0
384,-1.8174596,2.1838388,-1.1053467,0.76358646,0.14761963,0.07965088,90.0
385,-1.8174596,2.1838388,-1.1053467,0.66481936,0.14337158,0.06796875,90.0
386,-0.9520025,1.5508556,-1.082016,0.66481936,0.14337158,0.06796875,90.0
387,-0.9520025,1.5508556,-1.082016,0.6711914,0.24744873,0.0063720704,90.0
388,-0.17866755,0.9213238,-0.9557953,0.6711914,0.24744873,0.0063720704,90.0
389,-0.17866755,0.9213238,-0.9557953,0.66269535,0.36533204,-0.04460449,90.0
390,0.48017383,0.5562849,-0.7398224,0.66269535,0.36533204,-0.04460449,90.0
391,0.48017383,0.5562849,-0.7398224,0.4343628,0.4258667,-0.0053100586,90.0
392,1.1646199,0.34746933,-0.6097107,0.4343628,0.4258667,-0.0053100586,90.0
393,1.1646199,0.34746933,-0.6097107,0.15717773,0.44498292,0.06690674,90.0
394,1.8886173,0.089901924,-0.68151855,0.15717773,0.44498292,0.06690674,90.0
395,1.8886173,0.089901924,-0.68151855,-0.08920898,0.5607422,0.13912354,90.0
396,2.430584,-0.050551414,-0.38731384,-0.08920898,0.5607422,0.13912354,90.0
397,2.430584,-0.050551414,-0.38731384,-0.6754395,0.21452637,0.4630371,90.0
398,2.5268278,0.1611948,1.0296173,-0.6754395,0.21452637,0.4630371,90.0
399,2.5268278,0.1611948,1.0296173,-1.3763672,0.090270996,0.9600586,90.0
400,1.800149,1.014246,3.0021973,-1.3763672,0.090270996,0.9600586,90.0
401,1.800149,1.014246,3.0021973,-1.1331666,-0.039294433,0.8241211,90.0
402,1.3868113,1.9231644,3.3365784,-1.1331666,-0.039294433,0.8241211,90.0
403,1.3868113,1.9231644,3.3365784,-2.4840455,0.21983643,0.56605226,90.0
404,2.598939,0.8178892,1.0652161,-2.4840455,0.21983643,0.56605226,90.0
405,2.598939,0.8178892,1.0652161,-3.516321,0.42161867,0.47578126,90.0
406,3.6989632,-2.2458715,-1.9850311,-3.516321,0.42161867,0.47578126,90.0
407,3.6989632,-2.2458715,-1.9850311,-2.627417,0.5246338,0.087084964,90.0
408,3.043973,-4.316326,-3.7376404,-2.627417,0.5246338,0.087084964,90.0
409,3.043973,-4.316326,-3.7376404,-0.90802,0.6701294,-0.3419678,90.0
410,0.798399,-3.819479,-3.6981049,-0.90802,0.6701294,-0.3419678,90.0
411,0.798399,-3.819479,-3.6981049,0.09664307,0.7126099,-0.28674316,90.0
412,-1.8064833,-1.8458052,-2.3809814,0.09664307,0.7126099,-0.28674316,90.0
413,-1.8064833,-1.8458052,-2.3809814,0.7189819,0.49383545,-0.1985962,90.0
414,-3.0745082,0.056375504,-1.0536804,0.7189819,0.49383545,-0.1985962,90.0
415,-3.0745082,0.056375504,-1.0536804,0.8517334,0.26019287,-0.043542482,90.0
416,-2.7893915,1.103487,-0.46772766,0.8517334,0.26019287,-0.043542482,90.0
417,-2.7893915,1.103487,-0.46772766,0.85385746,0.2166504,0.008496094,90.0
418,-2.0819159,1.361269,-0.49700928,0.85385746,0.2166504,0.008496094,90.0
419,-2.0819159,1.361269,-0.49700928,0.5341919,0.24532472,0.0010620117,90.0
420,-1.7361383,1.2186298,-0.6166382,0.5341919,0.24532472,0.0010620117,90.0
421,-1.7361383,1.2186298,-0.6166382,0.25594482,0.3058594,-0.07327881,90.0
422,-1.8119211,1.002748,-0.53126526,0.25594482,0.3058594,-0.07327881,90.0
423,-1.8119211,1.002748,-0.53126526,0.038232423,0.3058594,-0.21346436,90.0
424,-1.9880748,0.7546277,-0.2518158,0.038232423,0.3058594,-0.21346436,90.0
425,-1.9880748,0.7546277,-0.2518158,-0.09451904,0.24213867,-0.31010744,90.0
426,-2.0679257,0.37230587,0.12246704,-0.09451904,0.24213867,-0.31010744,90.0
427,-2.0679257,0.37230587,0.12246704,-0.13699952,0.08920898,-0.37382814,90.0
428,-2.0284739,-0.059967995,0.4808197,-0.13699952,0.08920898,-0.37382814,90.0
429,-2.0284739,-0.059967995,0.4808197,-0.04141846,-0.14230958,-0.4258667,90.0
430,-1.8156013,-0.35186863,0.62379456,-0.04141846,-0.14230958,-0.4258667,90.0
431,-1.8156013,-0.35186863,0.62379456,0.09664307,-0.37595215,-0.44179687,90.0
432,-1.4722688,-0.41197586,0.5219269,0.09664307,-0.37595215,-0.44179687,90.0
433,-1.4722688,-0.41197586,0.5219269,0.1901001,-0.4885254,-0.41312256,90.0
434,-1.0932205,-0.33055687,0.38972473,0.1901001,-0.4885254,-0.41312256,90.0
435,-1.0932205,-0.33055687,0.38972473,0.29630128,-0.5235718,-0.36745605,90.0
436,-0.704386,-0.21592236,0.32757568,0.29630128,-0.5235718,-0.36745605,90.0
437,-0.704386,-0.21592236,0.32757568,0.32816163,-0.5012695,-0.3058594,90.0
438,-0.29196334,-0.06377792,0.3226471,0.32816163,-0.5012695,-0.3058594,90.0
439,-0.29196334,-0.06377792,0.3226471,0.29630128,-0.42905274,-0.23789063,90.0
440,0.19365096,0.089627266,0.30470276,0.29630128,-0.42905274,-0.23789063,90.0
441,0.19365096,0.089627266,0.30470276,0.18797608,-0.3536499,-0.2177124,90.0
442,0.9185927,0.048130035,0.23963928,0.18797608,-0.3536499,-0.2177124,90.0
443,0.9185927,0.048130035,0.23963928,0.20072022,-0.3069214,-0.26975098,90.0
444,1.9256945,-0.20973825,0.13594055,0.20072022,-0.3069214,-0.26975098,90.0
445,1.9256945,-0.20973825,0.13594055,0.20921631,-0.24213867,-0.36427003,90.0
446,2.9055948,-0.41392136,-0.065719604,0.20921631,-0.24213867,-0.36427003,90.0
447,2.9055948,-0.41392136,-0.065719604,0.025488282,-0.1178833,-0.41737062,90.0
448,3.4332647,-0.42552185,-0.34355164,0.025488282,-0.1178833,-0.41737062,90.0
449,3.4332647,-0.42552185,-0.34355164,-0.32816163,0.010620117,-0.39613038,90.0
450,3.2415705,-0.30441856,-0.5227814,-0.32816163,0.010620117,-0.39613038,90.0
451,3.2415705,-0.30441856,-0.5227814,-0.8230591,0.08920898,-0.26337892,90.0
452,2.7509713,-0.23917675,-0.55207825,-0.8230591,0.08920898,-0.26337892,90.0
453,2.7509713,-0.23917675,-0.55207825,-1.2956543,0.07752686,-0.16461182,90.0
454,2.5896811,-0.3588829,-0.41773987,-1.2956543,0.07752686,-0.16461182,90.0
455,2.5896811,-0.3588829,-0.41773987,-1.7374512,-0.0637207,-0.093457036,90.0
456,2.4991617,-0.65522146,-0.076553345,-1.7374512,-0.0637207,-0.093457036,90.0
457,2.4991617,-0.65522146,-0.076553345,-2.3162477,-0.3058594,-0.038232423,90.0
458,1.9495492,-1.341743,0.34872437,-2.3162477,-0.3058594,-0.038232423,90.0
459,1.9495492,-1.341743,0.34872437,-2.2291627,-0.5363159,-0.08071289,90.0
460,0.7935262,-2.2564874,0.6702423,-2.2291627,-0.5363159,-0.08071289,90.0
461,0.7935262,-2.2564874,0.6702423,-1.4369019,-0.6287109,-0.11469727,90.0
462,-0.4277401,-2.675539,0.7830963,-1.4369019,-0.6287109,-0.11469727,90.0
463,-0.4277401,-2.675539,0.7830963,-0.3971924,-0.5936646,0.09770508,90.0
464,-0.99210644,-2.13589,0.7041321,-0.3971924,-0.5936646,0.09770508,90.0
465,-0.99210644,-2.13589,0.7041321,0.5522461,-0.2516968,0.5363159,90.0
466,-1.0311117,-0.52437353,0.5064392,0.5522461,-0.2516968,0.5363159,90.0
467,-1.0311117,-0.52437353,0.5064392,0.9674927,0.3334717,0.9366943,90.0
468,-0.9032583,1.3160114,0.26087952,0.9674927,0.3334717,0.9366943,90.0
469,-0.9032583,1.3160114,0.26087952,1.5059327,0.6680054,1.0705079,90.0
470,-0.85801935,2.4634905,-0.0043029785,1.5059327,0.6680054,1.0705079,90.0
471,-0.85801935,2.4634905,-0.0043029785,1.4878784,0.7975708,1.1172364,90.0
472,-1.1835098,2.7790928,-0.27783203,1.4878784,0.7975708,1.1172364,90.0
473,-1.1835098,2.7790928,-0.27783203,0.92076415,0.80819094,1.0641358,90.0
474,-1.8634586,2.415596,-0.42375183,0.92076415,0.80819094,1.0641358,90.0
475,-1.8634586,2.415596,-0.42375183,0.32497558,0.7062378,1.0078491,90.0
476,-2.5974073,1.8441834,-0.36927795,0.32497558,0.7062378,1.0078491,90.0
477,-2.5974073,1.8441834,-0.36927795,0.14230958,0.5957886,0.8963379,90.0
478,-3.1244955,1.3953786,-0.21798706,0.14230958,0.5957886,0.8963379,90.0
479,-3.1244955,1.3953786,-0.21798706,0.16673584,0.49277344,0.814563,90.0
480,-3.3214104,1.1280584,-0.13237,0.16673584,0.49277344,0.814563,90.0
481,-3.3214104,1.1280584,-0.13237,0.24213867,0.41418457,0.7519043,90.0
482,-3.1747432,1.010479,-0.15376282,0.24213867,0.41418457,0.7519043,90.0
483,-3.1747432,1.010479,-0.15376282,0.32709962,0.34727785,0.6510132,90.0
484,-2.786682,1.0436249,-0.27061462,0.32709962,0.34727785,0.6510132,90.0
485,-2.786682,1.0436249,-0.27061462,0.32072756,0.3430298,0.53525394,90.0
486,-2.2309203,1.0981207,-0.4138031,0.32072756,0.3430298,0.53525394,90.0
487,-2.2309203,1.0981207,-0.4138031,0.2516968,0.33878174,0.3525879,90.0
488,-1.5806713,0.9899101,-0.56489563,0.2516968,0.33878174,0.3525879,90.0
489,-1.5806713,0.9899101,-0.56489563,0.2516968,0.33878174,0.3525879,92.0
490,-1.5806713,0.9899101,-0.56489563,0.12956543,0.3058594,0.12000733,92.0
491,-0.91262054,0.6746063,-0.7347717,0.12956543,0.3058594,0.12000733,92.0
492,-0.91262054,0.6746063,-0.7347717,-0.0053100586,0.2538208,-0.13275146,92.0
493,-0.28555298,0.20844746,-0.84947205,-0.0053100586,0.2538208,-0.13275146,92.0
494,-0.28555298,0.20844746,-0.84947205,-0.053100586,0.14655761,-0.4088745,92.0
495,0.2968384,-0.2751608,-0.8402405,-0.053100586,0.14655761,-0.4088745,92.0
496,0.2968384,-0.2751608,-0.8402405,-0.04991455,-0.07646485,-0.6903076,92.0
497,0.8916333,-0.6598501,-0.5877228,-0.04991455,-0.07646485,-0.6903076,92.0
498,0.8916333,-0.6598501,-0.5877228,0.010620117,-0.42161867,-0.9239502,92.0
499,1.685023,-0.957592,0.03387451,0.010620117,-0.42161867,-0.9239502,92.0
500,1.685023,-0.957592,0.03387451,-0.26125488,-0.8687256,-1.0503296,92.0
501,2.8612998,-1.260458,1.278183,-0.26125488,-0.8687256,-1.0503296,92.0
502,2.8612998,-1.260458,1.278183,-0.8963379,-1.5048707,-0.9218262,92.0
503,4.2851458,-1.3242722,2.9935303,-0.8963379,-1.5048707,-0.9218262,92.0
504,4.2851458,-1.3242722,2.9935303,-2.430945,-1.8680786,-0.6860596,92.0
505,5.741276,-1.1836367,3.4400635,-2.430945,-1.8680786,-0.6860596,92.0
506,5.741276,-1.1836367,3.4400635,-3.0437257,-1.5590333,-0.91864014,92.0
507,6.356729,-2.1252298,1.5499725,-3.0437257,-1.5590333,-0.91864014,92.0
508,6.356729,-2.1252298,1.5499725,-1.9190552,-1.2170655,-0.75721437,92.0
509,5.371992,-4.154798,-1.1736908,-1.9190552,-1.2170655,-0.75721437,92.0
510,5.371992,-4.154798,-1.1736908,0.28568116,-0.65419924,-1.0959961,92.0
511,3.4194689,-4.4802475,-2.4778137,0.28568116,-0.65419924,-1.0959961,92.0
512,3.4194689,-4.4802475,-2.4778137,0.62552494,0.25700685,-0.83474123,92.0
513,1.3691931,-2.376947,-1.421814,0.62552494,0.25700685,-0.83474123,92.0
514,1.3691931,-2.376947,-1.421814,0.725354,0.6775635,-0.15930176,92.0
515,-0.79425716,-0.19794416,3.0517578E-4,0.725354,0.6775635,-0.15930176,92.0
516,-0.79425716,-0.19794416,3.0517578E-4,1.8425903,0.9239502,-0.058410645,92.0
517,-2.5385427,0.67197895,0.005218506,1.8425903,0.9239502,-0.058410645,92.0
518,-2.5385427,0.67197895,0.005218506,2.3820922,1.0620117,0.19116211,92.0
519,-3.1268425,1.0096292,-0.49269104,2.3820922,1.0620117,0.19116211,92.0
520,-3.1268425,1.0096292,-0.49269104,2.3332398,1.3083985,0.4056885,92.0
521,-2.9486785,1.4633551,-0.37094116,2.3332398,1.3083985,0.4056885,92.0
522,-2.9486785,1.4633551,-0.37094116,1.901001,1.2043213,0.5543701,92.0
523,-2.3483596,1.5329885,0.063323975,1.901001,1.2043213,0.5543701,92.0
524,-2.3483596,1.5329885,0.063323975,1.4687623,1.1894531,0.44498292,92.0
525,-1.9703379,1.2793818,0.27919006,1.4687623,1.1894531,0.44498292,92.0
526,-1.9703379,1.2793818,0.27919006,1.0609497,1.0949341,0.18903808,92.0
527,-2.0565438,1.0239935,0.21157837,1.0609497,1.0949341,0.18903808,92.0
528,-2.0565438,1.0239935,0.21157837,0.68924564,0.89208984,0.3345337,92.0
529,-2.231185,0.7643242,-0.13664246,0.68924564,0.89208984,0.3345337,92.0
530,-2.231185,0.7643242,-0.13664246,0.49383545,0.79119873,0.36533204,92.0
531,-2.4465446,0.68472576,-0.43188477,0.49383545,0.79119873,0.36533204,92.0
532,-2.4465446,0.68472576,-0.43188477,0.40144044,0.7062378,0.45454103,92.0
533,-2.5035615,0.7288842,-0.50512695,0.40144044,0.7062378,0.45454103,92.0
534,-2.5035615,0.7288842,-0.50512695,0.40250245,0.5957886,0.58410645,92.0
535,-2.3515553,0.7078266,-0.34970093,0.40250245,0.5957886,0.58410645,92.0
536,-2.3515553,0.7078266,-0.34970093,0.6138428,0.44179687,0.6924316,92.0
537,-2.035639,0.64798737,-0.07014465,0.6138428,0.44179687,0.6924316,92.0
538,-2.035639,0.64798737,-0.07014465,0.8602295,0.2347046,0.73703617,92.0
539,-1.6278521,0.62299156,0.21984863,0.8602295,0.2347046,0.73703617,92.0
540,-1.6278521,0.62299156,0.21984863,1.1639649,0.0361084,0.72960204,92.0
541,-1.1873158,0.6995287,0.44799805,1.1639649,0.0361084,0.72960204,92.0
542,-1.1873158,0.6995287,0.44799805,1.3922974,-0.12850343,0.68712157,92.0
543,-0.7320547,0.91018486,0.6118164,1.3922974,-0.12850343,0.68712157,92.0
544,-0.7320547,0.91018486,0.6118164,1.449646,-0.22302246,0.63933104,92.0
545,-0.20672536,1.1279888,0.76057434,1.449646,-0.22302246,0.63933104,92.0
546,-0.20672536,1.1279888,0.76057434,1.3338867,-0.26868898,0.55968016,92.0
547,0.46843326,1.2210312,0.8704529,1.3338867,-0.26868898,0.55968016,92.0
548,0.46843326,1.2210312,0.8704529,1.173523,-0.28355715,0.45135498,92.0
549,1.2367096,1.1786556,0.9229126,1.173523,-0.28355715,0.45135498,92.0
550,1.2367096,1.1786556,0.9229126,1.0981201,-0.26975098,0.2814331,92.0
551,1.9013429,1.1045704,0.8301544,1.0981201,-0.26975098,0.2814331,92.0
552,1.9013429,1.1045704,0.8301544,0.8527954,-0.19647217,0.07115479,92.0
553,2.3513966,1.0393572,0.62294006,0.8527954,-0.19647217,0.07115479,92.0
554,2.3513966,1.0393572,0.62294006,0.30373535,-0.1274414,-0.13806152,92.0
555,2.53788,0.9409466,0.5273895,0.30373535,-0.1274414,-0.13806152,92.0
556,2.53788,0.9409466,0.5273895,-0.43861085,-0.12213135,-0.32922363,92.0
557,2.672357,0.650877,0.50035095,-0.43861085,-0.12213135,-0.32922363,92.0
558,2.672357,0.650877,0.50035095,-1.4156617,-0.22939454,-0.5649902,92.0
559,2.9109693,0.06888294,0.32914734,-1.4156617,-0.22939454,-0.5649902,92.0
560,2.9109693,0.06888294,0.32914734,-2.156946,-0.3536499,-0.8071289,92.0
561,2.7339025,-0.6835041,0.18395996,-2.156946,-0.3536499,-0.8071289,92.0
562,2.7339025,-0.6835041,0.18395996,-2.5711305,-0.6159668,-1.0662597,92.0
563,1.8741093,-1.5472183,0.63853455,-2.5711305,-0.6159668,-1.0662597,92.0
564,1.8741093,-1.5472183,0.63853455,-2.5137818,-1.1119263,-1.3763672,92.0
565,0.91857433,-2.6104803,1.9051819,-2.5137818,-1.1119263,-1.3763672,92.0
566,0.91857433,-2.6104803,1.9051819,-1.6578003,-1.8574585,-1.7459472,92.0
567,0.43617773,-3.519927,3.101532,-1.6578003,-1.8574585,-1.7459472,92.0
568,0.43617773,-3.519927,3.101532,-0.16567384,-2.4171388,-1.9158691,92.0
569,0.33586836,-3.55205,3.1982117,-0.16567384,-2.4171388,-1.9158691,92.0
570,0.33586836,-3.55205,3.1982117,1.1650269,-2.630603,-1.7756836,92.0
571,0.59710026,-2.413332,1.8419495,1.1650269,-2.630603,-1.7756836,92.0
572,0.59710026,-2.413332,1.8419495,2.0380006,-2.342798,-1.4592041,92.0
573,0.9352732,-0.49734068,-0.11390686,2.0380006,-2.342798,-1.4592041,92.0
574,0.9352732,-0.49734068,-0.11390686,2.0029542,-1.2266235,-0.79013675,92.0
575,0.94875526,1.2890167,-1.2522888,2.0029542,-1.2266235,-0.79013675,92.0
576,0.94875526,1.2890167,-1.2522888,1.5261109,-0.4364868,-0.2527588,92.0
577,0.42295694,2.2536745,-1.3463287,1.5261109,-0.4364868,-0.2527588,92.0
578,0.42295694,2.2536745,-1.3463287,0.8028809,0.72641605,0.4067505,92.0
579,-0.6328869,2.106431,-0.7366028,0.8028809,0.72641605,0.4067505,92.0
580,-0.6328869,2.106431,-0.7366028,0.24532472,1.2351197,0.7869507,92.0
581,-1.8566027,1.2999034,-0.013305664,0.24532472,1.2351197,0.7869507,92.0
582,-1.8566027,1.2999034,-0.013305664,-0.121069334,1.5675293,1.0227174,92.0
583,-2.7672648,0.59048414,0.3500061,-0.121069334,1.5675293,1.0227174,92.0
584,-2.7672648,0.59048414,0.3500061,-0.47684327,1.5919555,1.0609497,92.0
585,-3.20794,0.13133526,0.30334473,-0.47684327,1.5919555,1.0609497,92.0
586,-3.20794,0.13133526,0.30334473,-0.63826907,1.4560181,0.9866089,92.0
587,-3.1483712,-0.12532711,-0.030044556,-0.63826907,1.4560181,0.9866089,92.0
588,-3.1483712,-0.12532711,-0.030044556,-0.53525394,1.2096313,0.83049315,92.0
589,-2.7449665,-0.1532526,-0.56111145,-0.53525394,1.2096313,0.83049315,92.0
590,-2.7449665,-0.1532526,-0.56111145,-0.270813,1.0174073,0.6680054,92.0
591,-2.0753922,0.23245144,-1.3686218,-0.270813,1.0174073,0.6680054,92.0
592,-2.0753922,0.23245144,-1.3686218,-0.23682861,1.622754,0.48640138,92.0
593,-2.0753922,0.23245144,-1.3686218,-0.23682861,1.622754,0.48640138,95.0
594,-1.8789296,0.35495567,-1.5957947,-0.23682861,1.622754,0.48640138,95.0
595,-1.8789296,0.35495567,-1.5957947,0.19434814,0.71367186,0.46409914,95.0
596,-1.7847843,0.25424004,-1.2913513,0.19434814,0.71367186,0.46409914,95.0
597,-1.7847843,0.25424004,-1.2913513,0.32922363,0.8219971,0.20284425,95.0
598,-1.0412552,0.41401196,-1.1511383,0.32922363,0.8219971,0.20284425,95.0
599,-1.0412552,0.41401196,-1.1511383,0.34833986,0.80181885,0.093457036,95.0
600,-0.36999154,0.28645897,-0.5687866,0.34833986,0.80181885,0.093457036,95.0
601,-0.36999154,0.28645897,-0.5687866,0.630835,0.0,0.009558106,95.0
602,0.41035438,-0.0059890747,0.20751953,0.630835,0.0,0.009558106,95.0
603,0.41035438,-0.0059890747,0.20751953,0.998291,-0.4598511,-0.26975098,95.0
604,1.5179076,-0.15234947,0.74069214,0.998291,-0.4598511,-0.26975098,95.0
605,1.5179076,-0.15234947,0.74069214,1.3264526,-1.0694458,-0.4333008,95.0
606,2.4313793,-0.05405712,1.2787018,1.3264526,-1.0694458,-0.4333008,95.0
607,2.4313793,-0.05405712,1.2787018,1.2871583,-1.536731,-0.4343628,95.0
608,2.7483873,0.5703039,2.0827637,1.2871583,-1.536731,-0.4343628,95.0
609,2.7483873,0.5703039,2.0827637,-0.12000733,-2.0295045,-0.06265869,95.0
610,3.1314125,1.1553764,2.4285583,-0.12000733,-2.0295045,-0.06265869,95.0
611,3.1314125,1.1553764,2.4285583,-1.0545777,-1.9211792,-0.3802002,95.0
612,4.1585484,0.39642048,1.7410431,-1.0545777,-1.9211792,-0.3802002,95.0
613,4.1585484,0.39642048,1.7410431,-1.1182984,-1.7650635,-0.55968016,95.0
614,5.237996,-1.3564358,0.856369,-1.1182984,-1.7650635,-0.55968016,95.0
615,5.237996,-1.3564358,0.856369,-0.36851808,-1.7809937,-0.77102053,95.0
616,5.111759,-2.5068645,0.5531616,-0.36851808,-1.7809937,-0.77102053,95.0
617,5.111759,-2.5068645,0.5531616,-0.2782471,-1.2807862,-0.66269535,95.0
618,3.4942532,-2.1101303,0.8147888,-0.2782471,-1.2807862,-0.66269535,95.0
619,3.4942532,-2.1101303,0.8147888,-0.57242435,-0.6839356,-0.15505372,95.0
620,1.0914116,-1.1496401,0.5534668,-0.57242435,-0.6839356,-0.15505372,95.0
621,1.0914116,-1.1496401,0.5534668,1.1374146,0.38975832,-0.36851808,95.0
622,-1.0624666,-0.5675025,-0.4087677,1.1374146,0.38975832,-0.36851808,95.0
623,-1.0624666,-0.5675025,-0.4087677,1.9657837,0.57561034,-0.013806152,95.0
624,-1.9176493,0.14847612,-1.2527313,1.9657837,0.57561034,-0.013806152,95.0
625,-1.9176493,0.14847612,-1.2527313,2.2546508,1.0991821,0.21983643,95.0
626,-1.6567879,0.96959877,-1.4564056,2.2546508,1.0991821,0.21983643,95.0
627,-1.6567879,0.96959877,-1.4564056,2.0974731,1.4369019,0.4258667,95.0
628,-1.4071927,1.5003495,-0.9712219,2.0974731,1.4369019,0.4258667,95.0
629,-1.4071927,1.5003495,-0.9712219,1.629126,1.8818848,0.44816896,95.0
630,-1.7349701,1.5560293,-0.38121033,1.629126,1.8818848,0.44816896,95.0
631,-1.7349701,1.5560293,-0.38121033,1.0142212,1.9307374,0.25913087,95.0
632,-2.565527,1.3078976,-0.067474365,1.0142212,1.9307374,0.25913087,95.0
633,-2.565527,1.3078976,-0.067474365,0.6000366,1.4740723,0.5671143,95.0
634,-3.6825733,0.89979744,0.2911377,0.6000366,1.4740723,0.5671143,95.0
635,-3.6825733,0.89979744,0.2911377,0.4088745,1.083252,0.6042847,95.0
636,-4.1705093,0.6142225,0.5194855,0.4088745,1.083252,0.6042847,95.0
637,-4.1705093,0.6142225,0.5194855,0.53100586,0.5150757,0.63933104,95.0
638,-3.7850525,0.6526699,0.3627472,0.53100586,0.5150757,0.63933104,95.0
639,-3.7850525,0.6526699,0.3627472,0.724292,0.060534667,0.72641605,95.0
640,-3.1175196,0.7701216,0.14041138,0.724292,0.060534667,0.72641605,95.0
641,-3.1175196,0.7701216,0.14041138,0.9345703,-0.18585205,0.73809814,95.0
642,-2.4192233,0.8835907,0.044662476,0.9345703,-0.18585205,0.73809814,95.0
643,-2.4192233,0.8835907,0.044662476,1.1575928,-0.3058594,0.721106,95.0
644,-1.7874662,0.99832726,0.10725403,1.1575928,-0.3058594,0.721106,95.0
645,-1.7874662,0.99832726,0.10725403,1.3753052,-0.3355957,0.6605713,95.0
646,-1.2106127,1.1290817,0.23342896,1.3753052,-0.3355957,0.6605713,95.0
647,-1.2106127,1.1290817,0.23342896,1.4953126,-0.31966552,0.56605226,95.0
648,-0.6326504,1.2322454,0.35395813,1.4953126,-0.31966552,0.56605226,95.0
649,-0.6326504,1.2322454,0.35395813,1.4825684,-0.2888672,0.44816896,95.0
650,0.033845544,1.2305231,0.4489746,1.4825684,-0.2888672,0.44816896,95.0
651,0.033845544,1.2305231,0.4489746,1.3880494,-0.2793091,0.28355715,95.0
652,0.8590833,1.0913153,0.5250702,1.3880494,-0.2793091,0.28355715,95.0
653,0.8590833,1.0913153,0.5250702,1.2776002,-0.29205322,0.08071289,95.0
654,1.7193468,0.84879684,0.5434723,1.2776002,-0.29205322,0.08071289,95.0
655,1.7193468,0.84879684,0.5434723,1.1087402,-0.30161133,-0.1178833,95.0
656,2.3912978,0.6195402,0.42660522,1.1087402,-0.30161133,-0.1178833,95.0
657,2.3912978,0.6195402,0.42660522,0.7858887,-0.25594482,-0.22514649,95.0
658,2.776649,0.51611614,0.21640015,0.7858887,-0.25594482,-0.22514649,95.0
659,2.776649,0.51611614,0.21640015,0.28461915,-0.21027832,-0.2262085,95.0
660,3.1509824,0.4734764,-0.002822876,0.28461915,-0.21027832,-0.2262085,95.0
661,3.1509824,0.4734764,-0.002822876,-0.3419678,-0.19434814,-0.22408448,95.0
662,3.6440525,0.35099792,-0.13096619,-0.3419678,-0.19434814,-0.22408448,95.0
663,3.6440525,0.35099792,-0.13096619,-0.9611206,-0.2262085,-0.21558838,95.0
664,3.600203,0.09689903,-0.018218994,-0.9611206,-0.2262085,-0.21558838,95.0
665,3.600203,0.09689903,-0.018218994,-1.5813354,-0.43967286,-0.19647217,95.0
666,2.5052724,-0.37586212,0.39279175,-1.5813354,-0.43967286,-0.19647217,95.0
667,2.5052724,-0.37586212,0.39279175,-2.1049073,-0.79969484,-0.2623169,95.0
668,1.5749822,-0.7611027,0.6086273,-2.1049073,-0.79969484,-0.2623169,95.0
669,1.5749822,-0.7611027,0.6086273,-2.156946,-1.0343994,-0.3154175,95.0
670,-0.42763662,-1.9740553,1.9062042,-2.156946,-1.0343994,-0.3154175,95.0
671,-0.42763662,-1.9740553,1.9062042,-1.2276856,-1.8245362,-0.5851685,95.0
672,-0.5601754,-2.1361294,2.0946503,-1.2276856,-1.8245362,-0.5851685,95.0
673,-0.5601754,-2.1361294,2.0946503,-0.5809204,-2.0464966,-0.6531372,95.0
674,-0.6142292,-2.343852,2.4209442,-0.5809204,-2.0464966,-0.6531372,95.0
675,-0.6142292,-2.343852,2.4209442,1.2627319,-2.2886353,-0.5979126,95.0
676,-0.13976002,-1.620431,2.1440125,1.2627319,-2.2886353,-0.5979126,95.0
677,-0.13976002,-1.620431,2.1440125,1.5335449,-2.34917,-0.4322388,95.0
678,0.87878036,0.9777765,1.0585785,1.5335449,-2.34917,-0.4322388,95.0
679,0.87878036,0.9777765,1.0585785,-0.271875,-0.542688,0.21240234,95.0
680,1.079526,1.5697336,0.7263489,-0.271875,-0.542688,0.21240234,95.0
681,1.079526,1.5697336,0.7263489,-0.4991455,0.038232423,0.24107666,95.0
682,0.2741313,1.1301403,0.4893036,-0.4991455,0.038232423,0.24107666,95.0
683,0.2741313,1.1301403,0.4893036,-0.10301514,0.74871826,0.6690674,95.0
684,-0.37431097,0.45065784,0.27053833,-0.10301514,0.74871826,0.6690674,95.0
685,-0.37431097,0.45065784,0.27053833,-0.004248047,0.9589966,0.75721437,95.0
686,-1.9116316,-0.5919647,-0.26358032,-0.004248047,0.9589966,0.75721437,95.0
687,-1.9116316,-0.5919647,-0.26358032,0.56817627,1.2935303,0.48746338,95.0
688,-2.2212243,-0.4019289,-0.5036926,0.56817627,1.2935303,0.48746338,95.0
689,-2.2212243,-0.4019289,-0.5036926,0.69136965,1.2574219,0.4056885,95.0
690,-3.167983,0.38028812,-0.98013306,0.69136965,1.2574219,0.4056885,95.0
691,-3.167983,0.38028812,-0.98013306,0.7327881,0.9834229,0.2888672,95.0
692,-2.8568716,0.6613102,-0.9137268,0.7327881,0.9834229,0.2888672,95.0
693,-2.8568716,0.6613102,-0.9137268,0.63720703,0.86553955,0.26444092,95.0
694,-2.4478874,1.2548418,-0.9540863,0.63720703,0.86553955,0.26444092,95.0
695,-2.4478874,1.2548418,-0.9540863,0.45878908,0.66269535,0.2899292,95.0
696,-1.9412322,1.2004919,-0.9384155,0.45878908,0.66269535,0.2899292,95.0
697,-1.9412322,1.2004919,-0.9384155,0.42055663,0.6786255,0.26019287,95.0
698,-1.6172557,1.0448542,-0.9733734,0.42055663,0.6786255,0.26019287,95.0
699,-1.6172557,1.0448542,-0.9733734,0.37595215,0.6042847,0.17523193,95.0
700,-1.5190365,0.667511,-0.82380676,0.37595215,0.6042847,0.17523193,95.0
701,-1.5190365,0.667511,-0.82380676,0.45029297,0.23682861,0.17416993,95.0
702,-1.261909,0.33290958,-0.6979065,0.45029297,0.23682861,0.17416993,95.0
703,-1.261909,0.33290958,-0.6979065,0.5278198,0.06265869,0.06796875,95.0
704,-0.7979305,0.21155453,-0.5323639,0.5278198,0.06265869,0.06796875,95.0
705,-0.7979305,0.21155453,-0.5323639,0.7168579,-0.20603028,-0.053100586,95.0
706,0.21204638,0.15480232,-0.16508484,0.7168579,-0.20603028,-0.053100586,95.0
707,0.21204638,0.15480232,-0.16508484,1.0269654,-0.7072998,-0.30161133,95.0
708,0.74821377,0.15411472,0.13366699,1.0269654,-0.7072998,-0.30161133,95.0
709,0.74821377,0.15411472,0.13366699,1.0269654,-0.904834,-0.3993164,95.0
710,1.9809198,0.013562202,0.6114807,1.0269654,-0.904834,-0.3993164,95.0
711,1.9809198,0.013562202,0.6114807,0.86978763,-1.2414917,-0.52888185,95.0
712,2.963581,-0.09598541,1.0995178,0.86978763,-1.2414917,-0.52888185,95.0
713,2.963581,-0.09598541,1.0995178,0.5522461,-1.4560181,-0.5256958,95.0
714,3.2081208,0.032305717,1.503479,0.5522461,-1.4560181,-0.5256958,95.0
715,3.2081208,0.032305717,1.503479,-0.32709962,-1.5813354,-0.5150757,95.0
716,3.6355152,0.121816635,1.6614838,-0.32709962,-1.5813354,-0.5150757,95.0
717,3.6355152,0.121816635,1.6614838,-1.4984986,-1.5335449,-0.5628662,95.0
718,5.154665,-0.5921345,1.53479,-1.4984986,-1.5335449,-0.5628662,95.0
719,5.154665,-0.5921345,1.53479,-1.806482,-1.5292969,-0.56605226,95.0
720,6.196742,-2.3132458,1.1645813,-1.806482,-1.5292969,-0.56605226,95.0
721,6.196742,-2.3132458,1.1645813,-0.70092773,-1.7278931,-0.69136965,95.0
722,6.196742,-2.3132458,1.1645813,-0.70092773,-1.7278931,-0.69136965,96.0
723,4.769161,-3.3861437,0.7755127,-0.70092773,-1.7278931,-0.69136965,96.0
724,4.769161,-3.3861437,0.7755127,-0.32072756,-0.8931519,-0.15505372,96.0
725,3.0488377,-2.3264074,0.5818939,-0.32072756,-0.8931519,-0.15505372,96.0
726,3.0488377,-2.3264074,0.5818939,0.42374268,-0.15080567,-0.0722168,96.0
727,0.02570343,-0.40215397,0.028442383,0.42374268,-0.15080567,-0.0722168,96.0
728,0.02570343,-0.40215397,0.028442383,1.8001099,0.4333008,-0.12213135,96.0
729,-2.5626764,0.8070984,-0.9003296,1.8001099,0.4333008,-0.12213135,96.0
730,-2.5626764,0.8070984,-0.9003296,2.5105958,0.65207523,0.20284425,96.0
731,-3.179658,1.2172489,-1.5289459,2.5105958,0.65207523,0.20284425,96.0
732,-3.179658,1.2172489,-1.5289459,3.0331056,0.9802368,0.1529297,96.0
733,-2.3005505,1.5579176,-1.4137726,3.0331056,0.9802368,0.1529297,96.0
734,-2.3005505,1.5579176,-1.4137726,2.8780518,1.5133667,0.058410645,96.0
735,-1.5520005,2.1234217,-0.5346222,2.8780518,1.5133667,0.058410645,96.0
736,-1.5520005,2.1234217,-0.5346222,2.3013794,1.2829102,0.19222413,96.0
737,-1.4783802,2.1241398,-0.036727905,2.3013794,1.2829102,0.19222413,96.0
738,-1.4783802,2.1241398,-0.036727905,1.4963745,1.627002,-0.26019287,96.0
739,-2.501503,1.8003616,0.1492157,1.4963745,1.627002,-0.26019287,96.0
740,-2.501503,1.8003616,0.1492157,0.7848267,1.0407715,0.24957275,96.0
741,-3.6875181,1.4445858,0.2156372,0.7848267,1.0407715,0.24957275,96.0
742,-3.6875181,1.4445858,0.2156372,0.32816163,0.8092529,0.29099122,96.0
743,-3.7674584,1.073906,-0.13835144,0.32816163,0.8092529,0.29099122,96.0
744,-3.7674584,1.073906,-0.13835144,0.33665773,0.48109132,0.45772704,96.0
745,-3.3615131,0.80527973,-0.3143158,0.33665773,0.48109132,0.45772704,96.0
746,-3.3615131,0.80527973,-0.3143158,0.6690674,0.16992188,0.5713623,96.0
747,-2.7105973,0.6491804,-0.2579193,0.6690674,0.16992188,0.5713623,96.0
748,-2.7105973,0.6491804,-0.2579193,1.1692749,-0.093457036,0.6244629,96.0
749,-1.979037,0.7437334,-0.12719727,1.1692749,-0.093457036,0.6244629,96.0
750,-1.979037,0.7437334,-0.12719727,1.6609863,-0.26125488,0.6223389,96.0
751,-1.1922019,1.096488,-0.016311646,1.6609863,-0.26125488,0.6223389,96.0
752,-1.1922019,1.096488,-0.016311646,1.9126831,-0.3451538,0.5787964,96.0
753,-0.3309586,1.4857349,0.050231934,1.9126831,-0.3451538,0.5787964,96.0
754,-0.3309586,1.4857349,0.050231934,1.99552,-0.36745605,0.5076416,96.0
755,0.6218419,1.6754894,0.10954285,1.99552,-0.36745605,0.5076416,96.0
756,0.6218419,1.6754894,0.10954285,1.9179932,-0.3536499,0.42161867,96.0
757,1.6910284,1.6136703,0.18617249,1.9179932,-0.3536499,0.42161867,96.0
758,1.6910284,1.6136703,0.18617249,1.7640015,-0.3355957,0.32603762,96.0
759,2.659378,1.4655943,0.19184875,1.7640015,-0.3355957,0.32603762,96.0
760,2.659378,1.4655943,0.19184875,1.5558472,-0.2623169,0.26444092,96.0
761,3.170508,1.4409208,0.008087158,1.5558472,-0.2623169,0.26444092,96.0
762,3.170508,1.4409208,0.008087158,1.0790039,-0.08814698,0.25913087,96.0
763,3.1473074,1.5132465,-0.32424927,1.0790039,-0.08814698,0.25913087,96.0
764,3.1473074,1.5132465,-0.32424927,0.49277344,0.16142578,0.32603762,96.0
765,2.8618646,1.5151625,-0.5335083,0.49277344,0.16142578,0.32603762,96.0
766,2.8618646,1.5151625,-0.5335083,-0.05522461,0.30161133,0.35577393,96.0
767,2.6659322,1.3126059,-0.45129395,-0.05522461,0.30161133,0.35577393,96.0
768,2.6659322,1.3126059,-0.45129395,-0.68924564,0.3164795,0.3154175,96.0
769,2.3518496,0.8986931,-0.07536316,-0.68924564,0.3164795,0.3154175,96.0
770,2.3518496,0.8986931,-0.07536316,-1.6694825,0.09133301,0.24001466,96.0
771,1.4890113,0.18124771,0.4443817,-1.6694825,0.09133301,0.24001466,96.0
772,1.4890113,0.18124771,0.4443817,-2.2790773,-0.2442627,0.10089111,96.0
773,0.30700493,-0.78897476,0.9247589,-2.2790773,-0.2442627,0.10089111,96.0
774,0.30700493,-0.78897476,0.9247589,-2.2397828,-0.67331547,-0.13275146,96.0
775,-0.6902728,-1.5836334,1.3470459,-2.2397828,-0.67331547,-0.13275146,96.0
776,-0.6902728,-1.5836334,1.3470459,-1.5781494,-1.1363525,-0.35789797,96.0
777,-1.2326508,-1.9676266,1.6921539,-1.5781494,-1.1363525,-0.35789797,96.0
778,-1.2326508,-1.9676266,1.6921539,-0.52675784,-1.5218629,-0.49489745,96.0
779,-1.1903076,-1.8610401,1.811142,-0.52675784,-1.5218629,-0.49489745,96.0
780,-1.1903076,-1.8610401,1.811142,0.60216063,-1.807544,-0.5076416,96.0
781,-0.69713116,-1.1952534,1.5744629,0.60216063,-1.807544,-0.5076416,96.0
782,-0.69713116,-1.1952534,1.5744629,1.3190186,-1.7618774,-0.40462646,96.0
783,-0.20433617,-0.12556267,1.1178589,1.3190186,-1.7618774,-0.40462646,96.0
784,-0.20433617,-0.12556267,1.1178589,1.4284058,-1.5930176,-0.16461182,96.0
785,0.18770266,0.8484144,0.67736816,1.4284058,-1.5930176,-0.16461182,96.0
786,0.18770266,0.8484144,0.67736816,1.0375855,-1.2595459,-0.0021240234,96.0
787,0.7924838,1.4117517,0.5399933,1.0375855,-1.2595459,-0.0021240234,96.0
788,0.7924838,1.4117517,0.5399933,0.1263794,-0.8315552,0.25700685,96.0
789,1.1278591,1.3791447,0.8786011,0.1263794,-0.8315552,0.25700685,96.0
790,1.1278591,1.3791447,0.8786011,-0.7423462,-0.081774905,0.49383545,96.0
791,0.727324,0.6408882,1.2724304,-0.7423462,-0.081774905,0.49383545,96.0
792,0.727324,0.6408882,1.2724304,-0.8442993,0.31116945,0.632959,96.0
793,-0.20597076,-0.23116207,1.2320099,-0.8442993,0.31116945,0.632959,96.0
794,-0.20597076,-0.23116207,1.2320099,-0.62764895,0.49171144,0.68499756,96.0
795,-1.2898498,-0.5145683,0.7436981,-0.62764895,0.49171144,0.68499756,96.0
796,-1.2898498,-0.5145683,0.7436981,0.02442627,0.60959476,0.6680054,96.0
797,-2.088777,-0.065719604,0.18362427,0.02442627,0.60959476,0.6680054,96.0
798,-2.088777,-0.065719604,0.18362427,0.35895997,0.66269535,0.63826907,96.0
799,-2.3163342,0.6498289,-0.19544983,0.35895997,0.66269535,0.63826907,96.0
800,-2.3163342,0.6498289,-0.19544983,0.5235718,0.6775635,0.58623046,96.0
801,-2.1385655,1.0348415,-0.5049286,0.5235718,0.6775635,0.58623046,96.0
802,-2.1385655,1.0348415,-0.5049286,0.7168579,0.6605713,0.4980835,96.0
803,-1.9422736,1.0178871,-0.875473,0.7168579,0.6605713,0.4980835,96.0
804,-1.9422736,1.0178871,-0.875473,0.72323,0.6064087,0.40462646,96.0
805,-1.791502,0.7720375,-1.2120361,0.72323,0.6064087,0.40462646,96.0
806,-1.791502,0.7720375,-1.2120361,0.57454836,0.5586182,0.39082032,96.0
807,-1.4372544,0.5839634,-1.4505157,0.57454836,0.5586182,0.39082032,96.0
808,-1.4372544,0.5839634,-1.4505157,0.5214478,0.631897,0.3164795,96.0
809,-1.142992,0.490839,-1.3600464,0.5214478,0.631897,0.3164795,96.0
810,-1.142992,0.490839,-1.3600464,0.5533081,0.6531372,0.11151123,96.0
811,-0.75969386,0.3451004,-0.93922424,0.5533081,0.6531372,0.11151123,96.0
812,-0.75969386,0.3451004,-0.93922424,0.6701294,0.17523193,-0.039294433,96.0
813,0.11785531,0.10377884,-0.6952667,0.6701294,0.17523193,-0.039294433,96.0
814,0.11785531,0.10377884,-0.6952667,0.74447024,-0.06796875,-0.32816163,96.0
815,1.2353978,-0.16503525,-0.6572113,0.74447024,-0.06796875,-0.32816163,96.0
816,1.2353978,-0.16503525,-0.6572113,0.9696167,-0.4056885,-0.6180908,96.0
817,2.1989017,-0.31599998,-0.6318512,0.9696167,-0.4056885,-0.6180908,96.0
818,2.1989017,-0.31599998,-0.6318512,1.0938721,-0.79013675,-0.817749,96.0
819,3.179397,-0.2219162,-0.44252014,1.0938721,-0.79013675,-0.817749,96.0
820,3.179397,-0.2219162,-0.44252014,0.7604004,-1.173523,-0.90802,96.0
821,4.4903927,-0.21026039,0.36408997,0.7604004,-1.173523,-0.90802,96.0
822,4.4903927,-0.21026039,0.36408997,-0.13806152,-1.6885986,-0.86553955,96.0
823,5.573308,-0.33224678,1.9303589,-0.13806152,-1.6885986,-0.86553955,96.0
824,5.573308,-0.33224678,1.9303589,-1.2935303,-2.3279297,-0.72004396,96.0
825,5.4873695,-0.92718697,2.4546661,-1.2935303,-2.3279297,-0.72004396,96.0
826,5.4873695,-0.92718697,2.4546661,-1.1809571,-2.18031,-0.80394286,96.0
827,4.5591335,-1.5147104,2.0038757,-1.1809571,-2.18031,-0.80394286,96.0
828,4.5591335,-1.5147104,2.0038757,-1.4581422,-2.0879152,-0.1083252,96.0
829,3.2313404,-1.0253057,1.6221771,-1.4581422,-2.0879152,-0.1083252,96.0
830,3.2313404,-1.0253057,1.6221771,-1.263794,-0.4343628,0.0637207,96.0
831,0.93128777,-0.62659264,0.51239014,-1.263794,-0.4343628,0.0637207,96.0
832,0.93128777,-0.62659264,0.51239014,0.47471926,0.17947999,0.32497558,96.0
833,-1.5216818,-0.76594734,-1.1152191,0.47471926,0.17947999,0.32497558,96.0
834,-1.5216818,-0.76594734,-1.1152191,1.5717773,0.6053467,0.27399904,96.0
835,-2.7319937,-0.276577,-2.187561,1.5717773,0.6053467,0.27399904,96.0
836,-2.7319937,-0.276577,-2.187561,2.0571167,1.0567017,0.4439209,96.0
837,-2.6593504,0.6351719,-2.1311798,2.0571167,1.0567017,0.4439209,96.0
838,-2.6593504,0.6351719,-2.1311798,2.1208375,1.6939087,0.25700685,96.0
839,-2.0767603,1.5070143,-1.4397583,2.1208375,1.6939087,0.25700685,96.0
840,-2.0767603,1.5070143,-1.4397583,1.814978,2.0082643,-0.04141846,96.0
841,-1.952241,2.06993,-0.74450684,1.814978,2.0082643,-0.04141846,96.0
842,-1.952241,2.06993,-0.74450684,1.175647,1.8224121,0.16673584,96.0
843,-2.733851,1.8782215,-0.12974548,1.175647,1.8224121,0.16673584,96.0
844,-2.733851,1.8782215,-0.12974548,0.38763428,1.5675293,0.17523193,96.0
845,-3.4506183,1.2084007,0.13400269,0.38763428,1.5675293,0.17523193,96.0
846,-3.4506183,1.2084007,0.13400269,-0.052038576,0.9505005,0.2538208,96.0
847,-3.491232,0.6648903,-0.16932678,-0.052038576,0.9505005,0.2538208,96.0
848,-3.491232,0.6648903,-0.16932678,-0.23682861,0.5278198,0.3812622,96.0
849,-3.2128344,0.3964138,-0.5382538,-0.23682861,0.5278198,0.3812622,96.0
850,-3.2128344,0.3964138,-0.5382538,0.008496094,0.15823975,0.49171144,96.0
851,-2.7377849,0.33063126,-0.74594116,0.008496094,0.15823975,0.49171144,96.0
852,-2.7377849,0.33063126,-0.74594116,0.40462646,-0.087084964,0.56817627,96.0
853,-2.1576838,0.43634415,-0.74417114,0.40462646,-0.087084964,0.56817627,96.0
854,-2.1576838,0.43634415,-0.74417114,0.84748536,-0.2516968,0.6064087,96.0
855,-1.4902949,0.7078266,-0.55903625,0.84748536,-0.2516968,0.6064087,96.0
856,-1.4902949,0.7078266,-0.55903625,1.1575928,-0.3791382,0.5713623,96.0
857,-0.74780226,1.0305443,-0.29397583,1.1575928,-0.3791382,0.5713623,96.0
858,-0.74780226,1.0305443,-0.29397583,1.2935303,-0.47896728,0.48640138,96.0
859,-0.74780226,1.0305443,-0.29397583,1.2935303,-0.47896728,0.48640138,97.0
860,-0.07425499,1.2418175,-0.07147217,1.2935303,-0.47896728,0.48640138,97.0
861,-0.07425499,1.2418175,-0.07147217,1.2531738,-0.540564,0.3812622,97.0
862,-0.07425499,1.2418175,-0.07147217,1.0906861,-0.56817627,0.24744873,97.0
863,0.5285721,1.295639,0.060073853,1.0906861,-0.56817627,0.24744873,97.0
864,3.7471256,1.3171883,0.080581665,1.0906861,-0.56817627,0.24744873,97.0
865,3.7471256,1.3171883,0.080581665,0.90695804,-0.58198243,0.09239502,97.0
866,3.7471256,1.3171883,0.080581665,0.73597413,-0.56392825,-0.081774905,97.0
867,3.7471256,1.3171883,0.080581665,0.3993164,-0.4800293,-0.23045655,97.0
868,4.22126,1.0848675,-0.122802734,0.3993164,-0.4800293,-0.23045655,97.0
869,4.22126,1.0848675,-0.122802734,-0.12850343,-0.3069214,-0.32285157,97.0
870,4.359027,0.82449913,-0.21562195,-0.12850343,-0.3069214,-0.32285157,97.0
871,4.359027,0.82449913,-0.21562195,-0.7625244,-0.19541016,-0.4248047,97.0
872,4.10917,0.44031143,-0.0635376,-0.7625244,-0.19541016,-0.4248047,97.0
873,4.10917,0.44031143,-0.0635376,-1.5654052,-0.1731079,-0.4725952,97.0
874,3.2688913,-0.20479393,0.3109131,-1.5654052,-0.1731079,-0.4725952,97.0
875,3.2688913,-0.20479393,0.3109131,-2.1941164,-0.29948732,-0.5522461,97.0
876,2.040968,-1.102129,0.79304504,-2.1941164,-0.29948732,-0.5522461,97.0
877,2.040968,-1.102129,0.79304504,-2.262085,-0.5894165,-0.66481936,97.0
878,0.9448471,-2.0574589,1.3581238,-2.262085,-0.5894165,-0.66481936,97.0
879,0.9448471,-2.0574589,1.3581238,-1.7045288,-1.0046631,-0.82836914,97.0
880,0.13067055,-2.7267418,1.9128113,-1.7045288,-1.0046631,-0.82836914,97.0
881,0.13067055,-2.7267418,1.9128113,-0.64995116,-1.4188477,-0.90270996,97.0
882,-0.39376736,-2.6705284,2.0957794,-0.64995116,-1.4188477,-0.90270996,97.0
883,-0.39376736,-2.6705284,2.0957794,0.50870365,-1.6546143,-0.7742066,97.0
884,-0.648901,-1.6559296,1.5870972,0.50870365,-1.6546143,-0.7742066,97.0
885,-0.648901,-1.6559296,1.5870972,1.0779419,-1.4910644,-0.40993652,97.0
886,-0.6396656,-0.055517197,0.5251312,1.0779419,-1.4910644,-0.40993652,97.0
887,-0.6396656,-0.055517197,0.5251312,1.0991821,-1.2446778,-0.043542482,97.0
888,-0.38067722,1.5417309,-0.41055298,1.0991821,-1.2446778,-0.043542482,97.0
889,-0.38067722,1.5417309,-0.41055298,0.26125488,-0.25594482,0.46516114,97.0
890,-0.19023514,2.1953716,-0.51730347,0.26125488,-0.25594482,0.46516114,97.0
891,-0.19023514,2.1953716,-0.51730347,-0.4439209,0.33134767,0.7763306,97.0
892,-0.43231487,1.4963741,-0.05142212,-0.4439209,0.33134767,0.7763306,97.0
893,-0.43231487,1.4963741,-0.05142212,-0.8793457,0.79119873,0.8400513,97.0
894,-0.98969936,0.36647224,0.3100586,-0.8793457,0.79119873,0.8400513,97.0
895,-0.98969936,0.36647224,0.3100586,-0.9430664,1.0428956,0.8878418,97.0
896,-1.7166615,-0.3977394,0.26750183,-0.9430664,1.0428956,0.8878418,97.0
897,-1.7166615,-0.3977394,0.26750183,-0.5278198,1.1023682,0.7349121,97.0
898,-2.3980365,-0.44295883,-0.072250366,-0.5278198,1.1023682,0.7349121,97.0
899,-2.3980365,-0.44295883,-0.072250366,-0.09451904,1.0545777,0.6053467,97.0
900,-2.741098,0.05715561,-0.38052368,-0.09451904,1.0545777,0.6053467,97.0
901,-2.741098,0.05715561,-0.38052368,0.016992187,1.0014771,0.4991455,97.0
902,-2.6943312,0.6625347,-0.50520325,0.016992187,1.0014771,0.4991455,97.0
903,-2.6943312,0.6625347,-0.50520325,0.06159668,1.0078491,0.44604492,97.0
904,-2.402792,1.0424919,-0.4200592,0.06159668,1.0078491,0.44604492,97.0
905,-2.402792,1.0424919,-0.4200592,-0.0053100586,0.77951664,0.38444826,97.0
906,-1.9807296,1.0600185,-0.34403992,-0.0053100586,0.77951664,0.38444826,97.0
907,-1.9807296,1.0600185,-0.34403992,-0.15611573,0.6244629,0.2899292,97.0
908,-1.4584241,0.6822071,-0.484787,-0.15611573,0.6244629,0.2899292,97.0
909,-1.4584241,0.6822071,-0.484787,-0.41524658,0.47790527,0.19116211,97.0
910,-0.8778596,0.09062576,-0.7991333,-0.41524658,0.47790527,0.19116211,97.0
911,-0.8778596,0.09062576,-0.7991333,-0.5097656,0.49277344,0.035046387,97.0
912,-0.4139819,-0.56128883,-0.8718109,-0.5097656,0.49277344,0.035046387,97.0
913,-0.4139819,-0.56128883,-0.8718109,-0.28355715,0.18585205,-0.16142578,97.0
914,0.18606281,-0.91324043,-0.6975708,-0.28355715,0.18585205,-0.16142578,97.0
915,0.18606281,-0.91324043,-0.6975708,0.028674318,-0.09664307,-0.41418457,97.0
916,1.1469946,-0.86579704,-0.4008789,0.028674318,-0.09664307,-0.41418457,97.0
917,1.1469946,-0.86579704,-0.4008789,0.20603028,-0.54906005,-0.630835,97.0
918,2.2786307,-0.8634014,0.24179077,0.20603028,-0.54906005,-0.630835,97.0
919,2.2786307,-0.8634014,0.24179077,-0.019116212,-1.0577637,-0.817749,97.0
920,3.3476849,-0.91495323,1.2109985,-0.019116212,-1.0577637,-0.817749,97.0
921,3.3476849,-0.91495323,1.2109985,-0.44073486,-1.5622193,-0.811377,97.0
922,4.1827745,-0.76838875,2.2570953,-0.44073486,-1.5622193,-0.811377,97.0
923,4.1827745,-0.76838875,2.2570953,-1.5186768,-1.8585205,-0.9409424,97.0
924,5.2612467,-0.6887703,2.7574615,-1.5186768,-1.8585205,-0.9409424,97.0
925,5.2612467,-0.6887703,2.7574615,-2.5785644,-1.5855836,-0.8262451,97.0
926,6.002943,-1.7973175,1.8127136,-2.5785644,-1.5855836,-0.8262451,97.0
927,6.002943,-1.7973175,1.8127136,-1.4772583,-1.449646,-0.8963379,97.0
928,5.2091045,-3.7394047,-0.023345947,-1.4772583,-1.449646,-0.8963379,97.0
929,5.2091045,-3.7394047,-0.023345947,0.46622315,-1.0577637,-0.8963379,97.0
930,3.3251324,-3.7195387,-0.83117676,0.46622315,-1.0577637,-0.8963379,97.0
931,3.3251324,-3.7195387,-0.83117676,0.26656494,-0.3175415,-0.4980835,97.0
932,0.9564314,-1.2054157,-0.40274048,0.26656494,-0.3175415,-0.4980835,97.0
933,0.9564314,-1.2054157,-0.40274048,0.83474123,0.6159668,0.03079834,97.0
934,-1.4400911,0.8937969,-0.31155396,0.83474123,0.6159668,0.03079834,97.0
935,-1.4400911,0.8937969,-0.31155396,1.5749635,0.9218262,0.035046387,97.0
936,-2.877781,1.2760601,-1.0427551,1.5749635,0.9218262,0.035046387,97.0
937,-2.877781,1.2760601,-1.0427551,2.0380006,1.2011353,0.24107666,97.0
938,-2.991006,1.207262,-1.5383453,2.0380006,1.2011353,0.24107666,97.0
939,-2.991006,1.207262,-1.5383453,1.9201173,1.5664673,0.37701416,97.0
940,-2.5909367,1.4056053,-1.2211304,1.9201173,1.5664673,0.37701416,97.0
941,-2.5909367,1.4056053,-1.2211304,1.4273437,1.6057618,0.42374268,97.0
942,-2.221077,1.6574669,-0.77212524,1.4273437,1.6057618,0.42374268,97.0
943,-2.221077,1.6574669,-0.77212524,0.8814697,1.635498,0.3971924,97.0
944,-1.9812441,1.6079311,-0.8208008,0.8814697,1.635498,0.3971924,97.0
945,-1.9812441,1.6079311,-0.8208008,0.2527588,1.6386842,0.4895874,97.0
946,-2.4639988,1.1251755,-0.9025116,0.2527588,1.6386842,0.4895874,97.0
947,-2.4639988,1.1251755,-0.9025116,-0.19541016,1.4400879,0.48746338,97.0
948,-3.115633,0.6345272,-0.8698425,-0.19541016,1.4400879,0.48746338,97.0
949,-3.115633,0.6345272,-0.8698425,-0.3419678,1.177771,0.59047854,97.0
950,-3.2598405,0.43945694,-0.9530029,-0.3419678,1.177771,0.59047854,97.0
951,-3.2598405,0.43945694,-0.9530029,-0.3058594,0.97067875,0.7338501,97.0
952,-3.1794786,0.44182396,-0.89430237,-0.3058594,0.97067875,0.7338501,97.0
953,-3.1794786,0.44182396,-0.89430237,-0.045666505,0.72323,0.8687256,97.0
954,-2.8820229,0.58893204,-0.5841675,-0.045666505,0.72323,0.8687256,97.0
955,-2.8820229,0.58893204,-0.5841675,0.2782471,0.42905274,0.98448485,97.0
956,-2.3839264,0.8068886,-0.18659973,0.2782471,0.42905274,0.98448485,97.0
957,-2.3839264,0.8068886,-0.18659973,0.51932377,0.17416993,1.0131592,97.0
958,-1.7717164,1.030838,0.10731506,0.51932377,0.17416993,1.0131592,97.0
959,-1.7717164,1.030838,0.10731506,0.6977417,0.012744141,0.9759888,97.0
960,-1.1417141,1.2385616,0.2843628,0.6977417,0.012744141,0.9759888,97.0
961,-1.1417141,1.2385616,0.2843628,0.7869507,-0.078588866,0.8846558,97.0
962,-0.54750204,1.3685722,0.34518433,0.7869507,-0.078588866,0.8846558,97.0
963,-0.54750204,1.3685722,0.34518433,0.75296634,-0.078588866,0.72960204,97.0
964,0.052415848,1.3781719,0.29629517,0.75296634,-0.078588866,0.72960204,97.0
965,0.052415848,1.3781719,0.29629517,0.6966797,-0.035046387,0.5150757,97.0
966,0.74796295,1.2881947,0.1273346,0.6966797,-0.035046387,0.5150757,97.0
967,0.74796295,1.2881947,0.1273346,0.5649902,0.043542482,0.25700685,97.0
968,1.530817,1.1493683,-0.07536316,0.5649902,0.043542482,0.25700685,97.0
969,1.530817,1.1493683,-0.07536316,0.3695801,0.08283692,-0.007434082,97.0
970,2.2201614,0.96668625,-0.17286682,0.3695801,0.08283692,-0.007434082,97.0
971,2.2201614,0.96668625,-0.17286682,0.0053100586,0.083898924,-0.271875,97.0
972,2.7024841,0.7161236,-0.094451904,0.0053100586,0.083898924,-0.271875,97.0
973,2.7024841,0.7161236,-0.094451904,-0.5150757,-0.027612304,-0.5097656,97.0
974,3.176746,0.35479546,0.0448761,-0.5150757,-0.027612304,-0.5097656,97.0
975,3.176746,0.35479546,0.0448761,-1.2425537,-0.21134034,-0.7880127,97.0
976,3.7057524,-0.18045807,0.1665039,-1.2425537,-0.21134034,-0.7880127,97.0
977,3.7057524,-0.18045807,0.1665039,-1.9647217,-0.43754885,-1.0195312,97.0
978,3.589077,-0.8872013,0.48114014,-1.9647217,-0.43754885,-1.0195312,97.0
979,3.589077,-0.8872013,0.48114014,-2.7760987,-0.7306641,-1.2298096,97.0
980,2.4999123,-1.785078,1.1324768,-2.7760987,-0.7306641,-1.2298096,97.0
981,2.4999123,-1.785078,1.1324768,-3.1053224,-1.1087402,-1.4889405,97.0
982,1.1994658,-2.9060402,2.0214996,-3.1053224,-1.1087402,-1.4889405,97.0
983,1.1994658,-2.9060402,2.0214996,-2.6614015,-1.5600952,-1.7990478,97.0
984,0.3059349,-3.9094276,2.6245422,-2.6614015,-1.5600952,-1.7990478,97.0
985,0.3059349,-3.9094276,2.6245422,-1.3083985,-1.8574585,-1.9126831,97.0
986,-0.10016155,-4.13826,2.2671814,-1.3083985,-1.8574585,-1.9126831,97.0
987,-0.10016155,-4.13826,2.2671814,-1.3083985,-1.8574585,-1.9126831,96.0
988,-0.10016155,-4.13826,2.2671814,0.12000733,-1.812854,-1.8043579,96.0
989,-0.02726078,-3.174902,0.8844147,0.12000733,-1.812854,-1.8043579,96.0
990,-0.02726078,-3.174902,0.8844147,1.2935303,-1.6716064,-1.3434448,96.0
991,0.22220993,-1.1379557,-0.72610474,1.2935303,-1.6716064,-1.3434448,96.0
992,0.22220993,-1.1379557,-0.72610474,1.1512207,-0.55543214,-0.78376466,96.0
993,0.24937439,0.77563477,-1.4505157,1.1512207,-0.55543214,-0.78376466,96.0
994,0.24937439,0.77563477,-1.4505157,0.4322388,0.124255374,-0.19434814,96.0
995,-0.060412407,1.5067015,-1.1522827,0.4322388,0.124255374,-0.19434814,96.0
996,-0.060412407,1.5067015,-1.1522827,-0.47578126,0.7763306,0.35683593,96.0
997,-0.7390528,1.0618801,-0.49240112,-0.47578126,0.7763306,0.35683593,96.0
998,-0.7390528,1.0618801,-0.49240112,-1.0152832,1.1682129,0.64782715,96.0
999,-1.7314768,0.06249237,-0.031463623,-1.0152832,1.1682129,0.64782715,96.0
1000,-1.7314768,0.06249237,-0.031463623,-1.3296387,1.2754761,0.8814697,96.0
1001,-2.650941,-0.6395321,0.025680542,-1.3296387,1.2754761,0.8814697,96.0
1002,-2.650941,-0.6395321,0.025680542,-1.4666382,1.3030884,0.95368654,96.0
1003,-3.2894053,-0.9748211,-0.050354004,-1.4666382,1.3030884,0.95368654,96.0
1004,-3.2894053,-0.9748211,-0.050354004,-1.3073364,1.1852051,0.8973999,96.0
1005,-3.3582702,-0.95104885,-0.2244873,-1.3073364,1.1852051,0.8973999,96.0
1006,-3.3582702,-0.95104885,-0.2244873,-0.90058595,0.97386473,0.7657105,96.0
1007,-3.1835523,-0.6550293,-0.43797302,-0.90058595,0.97386473,0.7657105,96.0
1008,-3.1835523,-0.6550293,-0.43797302,-0.4619751,0.80394286,0.6053467,96.0
1009,-2.8535433,-0.21306133,-0.5435028,-0.4619751,0.80394286,0.6053467,96.0
1010,-2.8535433,-0.21306133,-0.5435028,0.06690674,0.5076416,0.60322267,96.0
1011,-2.2628393,0.28946304,-0.673645,0.06690674,0.5076416,0.60322267,96.0
1012,-2.2628393,0.28946304,-0.673645,0.27399904,0.41524658,0.5214478,96.0
1013,-1.712542,0.7082186,-0.6638336,0.27399904,0.41524658,0.5214478,96.0
1014,-1.712542,0.7082186,-0.6638336,0.33240968,0.29630128,0.40462646,96.0
1015,-1.2136006,0.9513283,-0.504776,0.33240968,0.29630128,0.40462646,96.0
1016,-1.2136006,0.9513283,-0.504776,0.36533204,0.14549561,0.2357666,96.0
1017,-0.5224798,1.084671,-0.17059326,0.36533204,0.14549561,0.2357666,96.0
1018,-0.5224798,1.084671,-0.17059326,0.60216063,-0.078588866,-0.13168946,96.0
1019,0.52277565,1.2422123,0.20239258,0.60216063,-0.078588866,-0.13168946,96.0
1020,0.52277565,1.2422123,0.20239258,0.727478,-0.45029297,-0.50870365,96.0
1021,1.7688551,0.9310875,0.3421173,0.727478,-0.45029297,-0.50870365,96.0
1022,1.7688551,0.9310875,0.3421173,0.008496094,-0.7720825,-0.7827026,96.0
1023,3.0735312,-0.21391869,0.4367981,0.008496094,-0.7720825,-0.7827026,96.0
1024,3.0735312,-0.21391869,0.4367981,-0.65844727,-1.0513916,-1.1023682,96.0
1025,4.0761223,-1.4893475,0.74009705,-0.65844727,-1.0513916,-1.1023682,96.0
1026,4.0761223,-1.4893475,0.74009705,-0.8602295,-1.3168945,-1.3784913,96.0
1027,4.7477508,-2.0949326,1.1309662,-0.8602295,-1.3168945,-1.3784913,96.0
1028,4.7477508,-2.0949326,1.1309662,-0.91120607,-1.6535523,-1.4613281,96.0
1029,5.540535,-2.3336115,1.7680817,-0.91120607,-1.6535523,-1.4613281,96.0
1030,5.540535,-2.3336115,1.7680817,-0.901648,-1.9668458,-1.2860962,96.0
1031,6.1757383,-2.7023506,2.5332947,-0.901648,-1.9668458,-1.2860962,96.0
1032,6.1757383,-2.7023506,2.5332947,-0.42161867,-2.7251222,-1.088562,96.0
1033,5.7774563,-2.673831,1.8638763,-0.42161867,-2.7251222,-1.088562,96.0
1034,5.7774563,-2.673831,1.8638763,0.3334717,-1.9700317,-0.75509036,96.0
1035,3.8979053,-1.9349146,0.19709778,0.3334717,-1.9700317,-0.75509036,96.0
1036,3.8979053,-1.9349146,0.19709778,0.7688965,-0.8867798,-0.047790527,96.0
1037,0.9679451,0.09071541,-0.87353516,0.7688965,-0.8867798,-0.047790527,96.0
1038,0.9679451,0.09071541,-0.87353516,2.0464966,0.23045655,-0.22408448,96.0
1039,-1.6448574,2.5291634,-1.4247742,2.0464966,0.23045655,-0.22408448,96.0
1040,-1.6448574,2.5291634,-1.4247742,1.6450561,1.1098022,0.32816163,96.0
1041,-3.0557299,2.8248444,-1.4637909,1.6450561,1.1098022,0.32816163,96.0
1042,-3.0557299,2.8248444,-1.4637909,1.5749635,1.5101807,0.65419924,96.0
1043,-3.1642494,1.5561647,-1.1545258,1.5749635,1.5101807,0.65419924,96.0
1044,-3.1642494,1.5561647,-1.1545258,1.7087768,1.7618774,0.5883545,96.0
1045,-2.5218534,0.9428444,-0.8699951,1.7087768,1.7618774,0.5883545,96.0
1046,-2.5218534,0.9428444,-0.8699951,1.5154908,2.0932252,0.5787964,96.0
1047,-2.013198,1.0416908,-0.697052,1.5154908,2.0932252,0.5787964,96.0
1048,-2.013198,1.0416908,-0.697052,1.1639649,2.0326905,0.49383545,96.0
1049,-1.9624748,1.156168,-1.0089111,1.1639649,2.0326905,0.49383545,96.0
1050,-1.9624748,1.156168,-1.0089111,0.6425171,1.8733886,0.49171144,96.0
1051,-2.6022062,1.0227604,-1.3161621,0.6425171,1.8733886,0.49171144,96.0
1052,-2.6022062,1.0227604,-1.3161621,-0.23789063,2.3980224,0.26550293,96.0
1053,-3.6170921,0.66632843,-0.87802124,-0.23789063,2.3980224,0.26550293,96.0
1054,-3.6170921,0.66632843,-0.87802124,-0.2177124,1.2383057,0.5649902,96.0
1055,-3.9157195,0.34874916,-0.5975647,-0.2177124,1.2383057,0.5649902,96.0
1056,-3.9157195,0.34874916,-0.5975647,-0.13168946,0.991919,0.63614506,96.0
1057,-3.3236036,0.37501907,-0.73498535,-0.13168946,0.991919,0.63614506,96.0
1058,-3.3236036,0.37501907,-0.73498535,0.21134034,0.6042847,0.7476563,96.0
1059,-2.6820154,0.42131615,-0.73394775,0.21134034,0.6042847,0.7476563,96.0
1060,-2.6820154,0.42131615,-0.73394775,0.67650145,0.28355715,0.7869507,96.0
1061,-2.1082344,0.5145912,-0.59013367,0.67650145,0.28355715,0.7869507,96.0
1062,-2.1082344,0.5145912,-0.59013367,1.1416626,0.053100586,0.7965088,96.0
1063,-1.5710235,0.85395813,-0.39259338,1.1416626,0.053100586,0.7965088,96.0
1064,-1.5710235,0.85395813,-0.39259338,1.44115,-0.09239502,0.7593384,96.0
1065,-1.0104566,1.2973137,-0.2349701,1.44115,-0.09239502,0.7593384,96.0
1066,-1.0104566,1.2973137,-0.2349701,1.5547851,-0.14974366,0.725354,96.0
1067,-0.4060583,1.5911236,-0.14097595,1.5547851,-0.14974366,0.725354,96.0
1068,-0.4060583,1.5911236,-0.14097595,1.4634522,-0.14549561,0.67331547,96.0
1069,-0.4060583,1.5911236,-0.14097595,1.3168945,-0.11469727,0.60216063,96.0
1070,0.28438187,1.6864243,-0.0713501,1.3168945,-0.11469727,0.60216063,96.0
1071,3.068985,1.9862862,-0.57351685,1.3168945,-0.11469727,0.60216063,96.0
1072,3.068985,1.9862862,-0.57351685,1.1087402,-0.059472658,0.4991455,96.0
1073,3.068985,1.9862862,-0.57351685,0.80394286,0.039294433,0.39294434,96.0
1074,3.068985,1.9862862,-0.57351685,0.33240968,0.1539917,0.25913087,96.0
1075,3.3490477,1.6925945,-0.7584839,0.33240968,0.1539917,0.25913087,96.0
1076,3.3490477,1.6925945,-0.7584839,-0.14868164,0.18903808,0.083898924,96.0
1077,3.6202173,1.3421745,-0.6631775,-0.14868164,0.18903808,0.083898924,96.0
1078,3.6202173,1.3421745,-0.6631775,-0.6467652,0.08071289,-0.15930176,96.0
1079,3.6029487,0.9171238,-0.23268127,-0.6467652,0.08071289,-0.15930176,96.0
1080,3.6029487,0.9171238,-0.23268127,-1.6546143,-0.15823975,-0.41206056,96.0
1081,2.7415266,0.2692089,0.44082642,-1.6546143,-0.15823975,-0.41206056,96.0
1082,2.7415266,0.2692089,0.44082642,-2.7198122,-0.47471926,-0.6573853,96.0
1083,1.3883142,-0.7760277,1.180481,-2.7198122,-0.47471926,-0.6573853,96.0
1084,1.3883142,-0.7760277,1.180481,-3.1191285,-0.88040775,-0.92076415,96.0
1085,0.25991917,-1.9414158,1.847992,-3.1191285,-0.88040775,-0.92076415,96.0
1086,0.25991917,-1.9414158,1.847992,-2.6380372,-1.3423828,-1.174585,96.0
1087,-0.37971115,-2.8071365,2.3989868,-2.6380372,-1.3423828,-1.174585,96.0
1088,-0.37971115,-2.8071365,2.3989868,-1.5208008,-1.7958618,-1.3126465,96.0
1089,-0.36571932,-3.082367,2.658493,-1.5208008,-1.7958618,-1.3126465,96.0
1090,-0.36571932,-3.082367,2.658493,-0.081774905,-2.1452637,-1.3073364,96.0
1091,0.025442123,-2.5578003,2.4219055,-0.081774905,-2.1452637,-1.3073364,96.0
1092,0.025442123,-2.5578003,2.4219055,0.8219971,-2.2376587,-1.1108643,96.0
1093,0.56609344,-1.2464352,1.4166718,0.8219971,-2.2376587,-1.1108643,96.0
1094,0.56609344,-1.2464352,1.4166718,1.1926392,-1.9562256,-0.7423462,96.0
1095,0.8649721,0.34539413,0.048934937,1.1926392,-1.9562256,-0.7423462,96.0
1096,0.8649721,0.34539413,0.048934937,0.7805786,-1.0641358,-0.32922363,96.0
1097,0.73080826,1.3038311,-0.6741028,0.7805786,-1.0641358,-0.32922363,96.0
1098,0.73080826,1.3038311,-0.6741028,0.33665773,-0.26868898,0.022302246,96.0
1099,0.17225647,1.2825794,-0.566864,0.33665773,-0.26868898,0.022302246,96.0
1100,0.17225647,1.2825794,-0.566864,-0.22089843,0.24957275,0.24638672,96.0
1101,0.17225647,1.2825794,-0.566864,-0.22089843,0.24957275,0.24638672,103.0
1102,-0.78741455,0.7006359,-0.11190796,-0.22089843,0.24957275,0.24638672,103.0
1103,-0.78741455,0.7006359,-0.11190796,-0.4885254,0.60959476,0.41206056,103.0
1104,-1.8289671,0.1288681,0.19491577,-0.4885254,0.60959476,0.41206056,103.0
1105,-1.8289671,0.1288681,0.19491577,-0.7688965,0.7678345,0.45135498,103.0
1106,-2.5472436,-0.18618774,0.23182678,-0.7688965,0.7678345,0.45135498,103.0
1107,-2.5472436,-0.18618774,0.23182678,-1.0014771,0.8963379,0.4694092,103.0
1108,-2.8098283,-0.4156494,0.13470459,-1.0014771,0.8963379,0.4694092,103.0
1109,-2.8098283,-0.4156494,0.13470459,-0.85385746,0.70942384,0.4959595,103.0
1110,-2.6612902,-0.42720985,-0.06614685,-0.85385746,0.70942384,0.4959595,103.0
1111,-2.6612902,-0.42720985,-0.06614685,-0.40356445,0.6945557,0.3727661,103.0
1112,-2.1840248,-0.060274124,-0.40324402,-0.40356445,0.6945557,0.3727661,103.0
1113,-2.1840248,-0.060274124,-0.40324402,-0.011682129,0.60109866,0.1731079,103.0
1114,-1.7318635,0.27437592,-0.7291107,-0.011682129,0.60109866,0.1731079,103.0
1115,-1.7318635,0.27437592,-0.7291107,-0.019116212,0.6085327,0.029736329,103.0
1116,-1.4113088,0.23151207,-0.8525543,-0.019116212,0.6085327,0.029736329,103.0
1117,-1.4113088,0.23151207,-0.8525543,0.08920898,0.39294434,-0.124255374,103.0
1118,-0.9294133,0.05674362,-0.8835602,0.08920898,0.39294434,-0.124255374,103.0
1119,-0.9294133,0.05674362,-0.8835602,0.11044922,0.3791382,-0.36320803,103.0
1120,-0.27793026,-0.17713928,-0.71629333,0.11044922,0.3791382,-0.36320803,103.0
1121,-0.27793026,-0.17713928,-0.71629333,0.16567384,0.124255374,-0.50020754,103.0
1122,0.5772896,-0.5247555,-0.20549011,0.16567384,0.124255374,-0.50020754,103.0
1123,0.5772896,-0.5247555,-0.20549011,0.5140137,-0.48215333,-0.6488892,103.0
1124,1.7641268,-0.7622967,0.26696777,0.5140137,-0.48215333,-0.6488892,103.0
1125,1.7641268,-0.7622967,0.26696777,0.57561034,-0.91120607,-0.8612915,103.0
1126,2.9936748,-0.9020252,0.4563141,0.57561034,-0.91120607,-0.8612915,103.0
1127,2.9936748,-0.9020252,0.4563141,0.60216063,-1.2499878,-0.9685547,103.0
1128,4.0481873,-0.9557762,0.40579224,0.60216063,-1.2499878,-0.9685547,103.0
1129,4.0481873,-0.9557762,0.40579224,0.44710693,-1.4092896,-1.0290893,103.0
1130,5.056946,-0.85458755,0.32739258,0.44710693,-1.4092896,-1.0290893,103.0
1131,5.056946,-0.85458755,0.32739258,-0.07540283,-1.5091187,-0.95793456,103.0
1132,6.0467777,-1.0549221,0.62257385,-0.07540283,-1.5091187,-0.95793456,103.0
1133,6.0467777,-1.0549221,0.62257385,-0.45135498,-1.7427613,-0.78164065,103.0
1134,6.1818438,-1.4541187,0.97080994,-0.45135498,-1.7427613,-0.78164065,103.0
1135,6.1818438,-1.4541187,0.97080994,-0.10407715,-1.4730103,-0.48746338,103.0
1136,4.5973186,-1.2183609,1.1934204,-0.10407715,-1.4730103,-0.48746338,103.0
1137,4.5973186,-1.2183609,1.1934204,-0.1178833,-1.3806152,0.1709839,103.0
1138,2.1265116,0.19197369,1.6074677,-0.1178833,-1.3806152,0.1709839,103.0
1139,2.1265116,0.19197369,1.6074677,0.32816163,-0.4609131,0.6064087,103.0
1140,0.15483475,2.5501003,1.0829163,0.32816163,-0.4609131,0.6064087,103.0
1141,0.15483475,2.5501003,1.0829163,1.268042,0.4704712,0.34940186,103.0
1142,-1.2588348,3.1596737,-0.53359985,1.268042,0.4704712,0.34940186,103.0
1143,-1.2588348,3.1596737,-0.53359985,1.2892822,1.1597168,0.51826173,103.0
1144,-2.2516108,1.5746384,-1.7417908,1.2892822,1.1597168,0.51826173,103.0
1145,-2.2516108,1.5746384,-1.7417908,1.4560181,1.5006226,0.6552612,103.0
1146,-2.6027174,0.20027542,-2.0461884,1.4560181,1.5006226,0.6552612,103.0
1147,-2.6027174,0.20027542,-2.0461884,1.3052124,1.8765748,0.50020754,103.0
1148,-2.3561115,0.0037517548,-1.8243256,1.3052124,1.8765748,0.50020754,103.0
1149,-2.3561115,0.0037517548,-1.8243256,1.0875,2.1176515,0.26550293,103.0
1150,-2.334486,0.56921196,-1.4768677,1.0875,2.1176515,0.26550293,103.0
1151,-2.334486,0.56921196,-1.4768677,0.53100586,2.8387573,0.1178833,103.0
1152,-2.9761095,0.87978363,-0.9264984,0.53100586,2.8387573,0.1178833,103.0
1153,-2.9761095,0.87978363,-0.9264984,0.18691407,2.1197755,0.30054933,103.0
1154,-3.816496,0.54424477,-0.40623474,0.18691407,2.1197755,0.30054933,103.0
1155,-3.816496,0.54424477,-0.40623474,-0.10301514,1.3413209,0.5320679,103.0
1156,-4.044969,0.16709709,-0.34770203,-0.10301514,1.3413209,0.5320679,103.0
1157,-4.044969,0.16709709,-0.34770203,-0.06478272,0.9483765,0.6149048,103.0
1158,-3.719911,0.11362076,-0.5448303,-0.06478272,0.9483765,0.6149048,103.0
1159,-3.719911,0.11362076,-0.5448303,0.26125488,0.45666504,0.77739257,103.0
1160,-3.2033095,0.28349876,-0.66944885,0.26125488,0.45666504,0.77739257,103.0
1161,-3.2033095,0.28349876,-0.66944885,0.6945557,0.08602295,0.8687256,103.0
1162,-2.603273,0.5776653,-0.66178894,0.6945557,0.08602295,0.8687256,103.0
1163,-2.603273,0.5776653,-0.66178894,0.996167,-0.1178833,0.92501223,103.0
1164,-1.9859018,0.89409065,-0.5154419,0.996167,-0.1178833,0.92501223,103.0
1165,-1.9859018,0.89409065,-0.5154419,1.2308716,-0.23045655,0.92926025,103.0
1166,-1.3646126,1.1823139,-0.34584045,1.2308716,-0.23045655,0.92926025,103.0
1167,-1.3646126,1.1823139,-0.34584045,1.3678712,-0.2623169,0.89208984,103.0
1168,-0.69667053,1.4039192,-0.24168396,1.3678712,-0.2623169,0.89208984,103.0
1169,-0.69667053,1.4039192,-0.24168396,1.3413209,-0.24001466,0.81987303,103.0
1170,0.16749287,1.4833889,-0.19856262,1.3413209,-0.24001466,0.81987303,103.0
1171,0.16749287,1.4833889,-0.19856262,1.2914063,-0.18054199,0.68924564,103.0
1172,0.16749287,1.4833889,-0.19856262,1.2563599,-0.13912354,0.60109866,103.0
1173,0.6836891,1.4191456,-0.21185303,1.2563599,-0.13912354,0.60109866,103.0
1174,4.306314,1.7062874,-0.86746216,1.2563599,-0.13912354,0.60109866,103.0
1175,4.306314,1.7062874,-0.86746216,0.8666016,0.06903076,0.32072756,103.0
1176,4.306314,1.7062874,-0.86746216,0.64570314,0.1720459,0.2527588,103.0
1177,4.306314,1.7062874,-0.86746216,-0.40993652,0.4694092,0.10513916,103.0
1178,3.7504592,1.3757477,-0.776062,-0.40993652,0.4694092,0.10513916,103.0
1179,3.7504592,1.3757477,-0.776062,-0.8092529,0.52250975,0.047790527,103.0
1180,4.152833,0.93605995,-0.70303345,-0.8092529,0.52250975,0.047790527,103.0
1181,4.152833,0.93605995,-0.70303345,-1.8946289,0.44710693,-0.18372802,103.0
1182,3.4961681,0.39007187,-0.36842346,-1.8946289,0.44710693,-0.18372802,103.0
1183,3.4961681,0.39007187,-0.36842346,-2.3226197,0.3154175,-0.2888672,103.0
1184,2.0689201,-0.6453285,0.7565918,-2.3226197,0.3154175,-0.2888672,103.0
1185,2.0689201,-0.6453285,0.7565918,-3.3240967,-0.45666504,-0.74871826,103.0
1186,1.1401701,-1.4036789,1.3525085,-3.3240967,-0.45666504,-0.74871826,103.0
1187,1.1401701,-1.4036789,1.3525085,-3.3665771,-0.8092529,-0.93350834,103.0
1188,-0.46926022,-3.165924,3.0724487,-3.3665771,-0.8092529,-0.93350834,103.0
1189,-0.46926022,-3.165924,3.0724487,-1.8011719,-1.8903809,-1.449646,103.0
1190,-0.42533493,-3.2550907,3.1265411,-1.8011719,-1.8903809,-1.449646,103.0
1191,-0.42533493,-3.2550907,3.1265411,-0.96218264,-2.1781862,-1.5229248,103.0
1192,-0.16596317,-2.8492393,2.8506012,-0.96218264,-2.1781862,-1.5229248,103.0
1193,-0.16596317,-2.8492393,2.8506012,0.73703617,-2.355542,-1.3158325,103.0
1194,0.197649,-1.8756065,1.9789276,0.73703617,-2.355542,-1.3158325,103.0
1195,0.197649,-1.8756065,1.9789276,1.0067872,-2.4213867,-1.1129884,103.0
1196,0.7177019,0.44112778,-0.5621033,1.0067872,-2.4213867,-1.1129884,103.0
1197,0.7177019,0.44112778,-0.5621033,0.6180908,-1.0163453,-0.48640138,103.0
1198,0.72330666,0.9988251,-0.9856262,0.6180908,-1.0163453,-0.48640138,103.0
1199,0.72330666,0.9988251,-0.9856262,0.21134034,-0.5543701,-0.29205322,103.0
1200,0.19754219,1.0466309,-0.8374939,0.21134034,-0.5543701,-0.29205322,103.0
1201,0.19754219,1.0466309,-0.8374939,-0.5012695,0.33878174,0.1274414,103.0
1202,-0.2460432,0.45020676,-0.38078308,-0.5012695,0.33878174,0.1274414,103.0
1203,-0.2460432,0.45020676,-0.38078308,-0.66481936,0.53525394,0.18903808,103.0
1204,-1.2405233,-0.3335476,0.1770935,-0.66481936,0.53525394,0.18903808,103.0
1205,-1.2405233,-0.3335476,0.1770935,-0.8846558,0.8506714,0.31010744,103.0
1206,-2.195129,-0.70238495,0.43148804,-0.8846558,0.8506714,0.31010744,103.0
1207,-2.195129,-0.70238495,0.43148804,-0.9759888,0.8442993,0.4609131,103.0
1208,-3.0899653,-0.6088066,0.31417847,-0.9759888,0.8442993,0.4609131,103.0
1209,-3.0899653,-0.6088066,0.31417847,-0.4248047,0.72004396,0.46516114,103.0
1210,-2.7516356,-0.37994003,0.09375,-0.4248047,0.72004396,0.46516114,103.0
1211,-2.7516356,-0.37994003,0.09375,-0.2548828,0.67437744,0.42161867,103.0
1212,-2.418435,0.33053207,-0.3123169,-0.2548828,0.67437744,0.42161867,103.0
1213,-2.418435,0.33053207,-0.3123169,0.027612304,0.58304447,0.2177124,103.0
1214,-1.9424019,0.48788834,-0.34147644,0.027612304,0.58304447,0.2177124,103.0
1215,-1.9424019,0.48788834,-0.34147644,0.046728518,0.48533937,0.15611573,103.0
1216,-1.4348416,0.5979881,-0.45599365,0.046728518,0.48533937,0.15611573,103.0
1217,-1.4348416,0.5979881,-0.45599365,-0.039294433,0.41099855,0.0053100586,103.0
1218,-0.8999119,0.33955956,-0.6500397,-0.039294433,0.41099855,0.0053100586,103.0
1219,-0.8999119,0.33955956,-0.6500397,-0.11044922,0.38657227,-0.18903808,103.0
1220,-0.8999119,0.33955956,-0.6500397,-0.11044922,0.38657227,-0.18903808,102.0
1221,-0.17931652,-0.3024845,-0.6433716,-0.11044922,0.38657227,-0.18903808,102.0
1222,-0.17931652,-0.3024845,-0.6433716,-0.025488282,-0.083898924,-0.35152587,102.0
1223,0.15636349,-0.46591377,-0.3977661,-0.025488282,-0.083898924,-0.35152587,102.0
1224,0.15636349,-0.46591377,-0.3977661,0.08496094,-0.24320069,-0.44179687,102.0
1225,1.1833062,-0.7020893,-0.012939453,0.08496094,-0.24320069,-0.44179687,102.0
1226,1.1833062,-0.7020893,-0.012939453,0.24638672,-0.6945557,-0.5968506,102.0
1227,2.4093647,-0.8204231,0.54473877,0.24638672,-0.6945557,-0.5968506,102.0
1228,2.4093647,-0.8204231,0.54473877,0.09664307,-1.1236085,-0.6595093,102.0
1229,3.378017,-1.0063744,0.86346436,0.09664307,-1.1236085,-0.6595093,102.0
1230,3.378017,-1.0063744,0.86346436,0.21240234,-1.3264526,-0.80819094,102.0
1231,3.9607506,-1.096384,0.71417236,0.21240234,-1.3264526,-0.80819094,102.0
1232,3.9607506,-1.096384,0.71417236,0.16248779,-1.351941,-0.7614624,102.0
1233,4.593051,-0.8287678,0.89286804,0.16248779,-1.351941,-0.7614624,102.0
1234,4.593051,-0.8287678,0.89286804,-0.62977296,-1.44115,-0.6085327,102.0
1235,5.472561,-0.74853706,1.3231812,-0.62977296,-1.44115,-0.6085327,102.0
1236,5.472561,-0.74853706,1.3231812,-0.99935305,-1.6153198,-0.3802002,102.0
1237,5.468796,-1.4517956,0.66285706,-0.99935305,-1.6153198,-0.3802002,102.0
1238,5.468796,-1.4517956,0.66285706,-0.1083252,-0.62127686,-0.3058594,102.0
1239,3.6919308,-1.8416252,-0.067276,-0.1083252,-0.62127686,-0.3058594,102.0
1240,3.6919308,-1.8416252,-0.067276,0.30267334,-0.40037844,0.118945315,102.0
1241,0.6536064,0.2740631,0.0940094,0.30267334,-0.40037844,0.118945315,102.0
1242,0.6536064,0.2740631,0.0940094,1.6747925,0.4598511,0.3069214,102.0
1243,-0.21199036,1.315918,-0.13665771,1.6747925,0.4598511,0.3069214,102.0
1244,-0.21199036,1.315918,-0.13665771,1.6960328,0.80181885,0.28355715,102.0
1245,-1.3019772,2.109253,-0.8356018,1.6960328,0.80181885,0.28355715,102.0
1246,-1.3019772,2.109253,-0.8356018,1.538855,1.1044922,0.56180423,102.0
1247,-1.7723799,1.5058098,-1.3307953,1.538855,1.1044922,0.56180423,102.0
1248,-1.7723799,1.5058098,-1.3307953,1.4199097,1.5611572,0.5256958,102.0
1249,-1.8618984,1.0424767,-1.590622,1.4199097,1.5611572,0.5256958,102.0
1250,-1.8618984,1.0424767,-1.590622,1.0142212,2.1420777,0.35789797,102.0
1251,-2.1546679,1.0910244,-1.4210205,1.0142212,2.1420777,0.35789797,102.0
1252,-2.1546679,1.0910244,-1.4210205,0.61702883,1.8850708,0.55543214,102.0
1253,-2.556779,1.1010666,-1.2732086,0.61702883,1.8850708,0.55543214,102.0
1254,-2.556779,1.1010666,-1.2732086,0.16779785,2.167566,0.68074954,102.0
1255,-3.2643814,0.84246254,-1.0816498,0.16779785,2.167566,0.68074954,102.0
1256,-3.2643814,0.84246254,-1.0816498,-0.14018555,1.9615357,0.66481936,102.0
1257,-4.050763,0.5615063,-0.62361145,-0.14018555,1.9615357,0.66481936,102.0
1258,-4.050763,0.5615063,-0.62361145,-0.13381349,1.3721192,0.901648,102.0
1259,-4.152195,0.444664,-0.46800232,-0.13381349,1.3721192,0.901648,102.0
1260,-4.152195,0.444664,-0.46800232,-0.007434082,1.0078491,1.0184692,102.0
1261,-3.8313265,0.51958656,-0.45295715,-0.007434082,1.0078491,1.0184692,102.0
1262,-3.8313265,0.51958656,-0.45295715,0.270813,0.63826907,1.1151123,102.0
1263,-3.2641215,0.71250725,-0.42581177,0.270813,0.63826907,1.1151123,102.0
1264,-3.2641215,0.71250725,-0.42581177,0.5734863,0.36639404,1.1522827,102.0
1265,-2.624835,0.939476,-0.3560028,0.5734863,0.36639404,1.1522827,102.0
1266,-2.624835,0.939476,-0.3560028,0.8209351,0.20072022,1.1448487,102.0
1267,-1.9460106,1.1745911,-0.2864685,0.8209351,0.20072022,1.1448487,102.0
1268,-1.9460106,1.1745911,-0.2864685,1.0014771,0.118945315,1.080066,102.0
1269,-1.1826997,1.3470211,-0.27804565,1.0014771,0.118945315,1.080066,102.0
1270,-1.1826997,1.3470211,-0.27804565,1.1363525,0.10513916,0.9165161,102.0
1271,-0.37731218,1.4159107,-0.32666016,1.1363525,0.10513916,0.9165161,102.0
1272,-0.37731218,1.4159107,-0.32666016,1.1607789,0.12531738,0.7083618,102.0
1273,0.4076717,1.3893814,-0.38775635,1.1607789,0.12531738,0.7083618,102.0
1274,0.4076717,1.3893814,-0.38775635,1.0407715,0.15611573,0.4619751,102.0
1275,0.4076717,1.3893814,-0.38775635,0.7763306,0.18054199,0.20921631,102.0
1276,1.1021137,1.2969418,-0.44154358,0.7763306,0.18054199,0.20921631,102.0
1277,2.7383685,1.2252254,-0.62068176,0.7763306,0.18054199,0.20921631,102.0
1278,2.7383685,1.2252254,-0.62068176,0.3536499,0.18903808,-0.010620117,102.0
1279,2.7383685,1.2252254,-0.62068176,-0.24532472,0.1709839,-0.18797608,102.0
1280,2.7383685,1.2252254,-0.62068176,-0.90802,0.09451904,-0.3334717,102.0
1281,2.6420498,0.80994034,-0.37016296,-0.90802,0.09451904,-0.3334717,102.0
1282,2.6420498,0.80994034,-0.37016296,-1.5165528,-0.08602295,-0.5564942,102.0
1283,2.7685595,0.2554474,-0.10447693,-1.5165528,-0.08602295,-0.5564942,102.0
1284,2.7685595,0.2554474,-0.10447693,-1.9817139,-0.34090576,-0.89421386,102.0
1285,2.9094644,-0.44428635,0.23776245,-1.9817139,-0.34090576,-0.89421386,102.0
1286,2.9094644,-0.44428635,0.23776245,-2.443689,-0.7083618,-1.3285767,102.0
1287,2.719552,-1.2827854,0.88230896,-2.443689,-0.7083618,-1.3285767,102.0
1288,2.719552,-1.2827854,0.88230896,-2.9269044,-1.1820191,-1.814978,102.0
1289,2.3145084,-2.3951263,1.979187,-2.9269044,-1.1820191,-1.814978,102.0
1290,2.3145084,-2.3951263,1.979187,-2.996997,-1.8394043,-2.2981935,102.0
1291,2.023653,-3.8058834,3.1308594,-2.996997,-1.8394043,-2.2981935,102.0
1292,2.023653,-3.8058834,3.1308594,-2.4256349,-2.434131,-2.7314942,102.0
1293,1.7760391,-4.8391647,3.572052,-2.4256349,-2.434131,-2.7314942,102.0
1294,1.7760391,-4.8391647,3.572052,-0.49064943,-2.537146,-2.721936,102.0
1295,1.5248718,-4.3978214,2.8884583,-0.49064943,-2.537146,-2.721936,102.0
1296,1.5248718,-4.3978214,2.8884583,1.1267945,-2.9226563,-2.3194337,102.0
1297,1.4076414,-2.3628616,1.1222839,1.1267945,-2.9226563,-2.3194337,102.0
1298,1.4076414,-2.3628616,1.1222839,1.539917,-1.7353271,-1.6206299,102.0
1299,1.1270161,-0.018817902,-0.60765076,1.539917,-1.7353271,-1.6206299,102.0
1300,1.1270161,-0.018817902,-0.60765076,0.99085695,-1.0779419,-0.8878418,102.0
1301,0.59255505,1.8157806,-1.4555817,0.99085695,-1.0779419,-0.8878418,102.0
1302,0.59255505,1.8157806,-1.4555817,-0.008496094,0.21558838,-0.0021240234,102.0
1303,-0.24796486,2.3672009,-1.4230957,-0.008496094,0.21558838,-0.0021240234,102.0
1304,-0.24796486,2.3672009,-1.4230957,-0.94412845,1.2202514,0.8092529,102.0
1305,-1.5608597,1.4161606,-0.7664032,-0.94412845,1.2202514,0.8092529,102.0
1306,-1.5608597,1.4161606,-0.7664032,-1.3848633,1.6992188,1.3179566,102.0
1307,-2.7346745,0.17367554,-0.22427368,-1.3848633,1.6992188,1.3179566,102.0
1308,-2.7346745,0.17367554,-0.22427368,-1.8362182,1.9349854,1.5282348,102.0
1309,-3.576973,-0.68582726,0.037475586,-1.8362182,1.9349854,1.5282348,102.0
1310,-3.576973,-0.68582726,0.037475586,-1.9264892,2.0507448,1.536731,102.0
1311,-4.0194764,-1.1285439,0.12591553,-1.9264892,2.0507448,1.536731,102.0
1312,-4.0194764,-1.1285439,0.12591553,-1.6620483,1.7873658,1.3476928,102.0
1313,-3.6753225,-0.90239525,-0.35690308,-1.6620483,1.7873658,1.3476928,102.0
1314,-3.6753225,-0.90239525,-0.35690308,-1.4666382,2.0624268,1.2181275,102.0
1315,-3.6731563,-0.85363007,-0.5226135,-1.4666382,2.0624268,1.2181275,102.0
1316,-3.6731563,-0.85363007,-0.5226135,-1.0057251,1.3275146,0.73809814,102.0
1317,-3.6810055,-0.7608948,-0.37071228,-1.0057251,1.3275146,0.73809814,102.0
1318,-3.6810055,-0.7608948,-0.37071228,-0.34727785,1.0386475,0.4895874,102.0
1319,-2.822258,-0.06480789,-0.79629517,-0.34727785,1.0386475,0.4895874,102.0
1320,-2.822258,-0.06480789,-0.79629517,-0.16354981,1.0439576,0.21983643,102.0
1321,-2.1039977,0.23359108,-1.0002136,-0.16354981,1.0439576,0.21983643,102.0
1322,-2.1039977,0.23359108,-1.0002136,0.09239502,0.630835,-0.043542482,102.0
1323,-1.288496,0.21181107,-0.8806305,0.09239502,0.630835,-0.043542482,102.0
1324,-1.288496,0.21181107,-0.8806305,0.27399904,0.35683593,-0.4258667,102.0
1325,0.009815931,0.14669609,-0.6958618,0.27399904,0.35683593,-0.4258667,102.0
1326,0.009815931,0.14669609,-0.6958618,0.3164795,-0.027612304,-0.7455322,102.0
1327,1.442533,-0.08233833,-0.2965393,0.3164795,-0.027612304,-0.7455322,102.0
1328,1.442533,-0.08233833,-0.2965393,0.29736328,-0.55968016,-1.0450195,102.0
1329,2.5123272,-0.59641266,0.22125244,0.29736328,-0.55968016,-1.0450195,102.0
1330,2.5123272,-0.59641266,0.22125244,0.0021240234,-1.0471436,-1.3869873,102.0
1331,3.0265608,-1.4575253,0.6062927,0.0021240234,-1.0471436,-1.3869873,102.0
1332,3.0265608,-1.4575253,0.6062927,0.0021240234,-1.0471436,-1.3869873,95.0
1333,3.0265608,-1.4575253,0.6062927,0.10195313,-1.4677002,-1.6365601,95.0
1334,3.4258876,-1.9911785,0.8097534,0.10195313,-1.4677002,-1.6365601,95.0
1335,3.4258876,-1.9911785,0.8097534,0.36427003,-1.8489624,-1.63125,95.0
1336,4.3039427,-1.6732407,1.1387787,0.36427003,-1.8489624,-1.63125,95.0
1337,4.3039427,-1.6732407,1.1387787,0.22302246,-2.2748291,-1.3614991,95.0
1338,5.5321064,-1.2302799,1.9312897,0.22302246,-2.2748291,-1.3614991,95.0
1339,5.5321064,-1.2302799,1.9312897,-0.10089111,-2.4819214,-1.0195312,95.0
1340,6.302223,-1.2280598,2.366867,-0.10089111,-2.4819214,-1.0195312,95.0
1341,6.302223,-1.2280598,2.366867,-0.1539917,-2.7633545,-0.632959,95.0
1342,5.483795,-1.3180923,1.4221344,-0.1539917,-2.7633545,-0.632959,95.0
1343,5.483795,-1.3180923,1.4221344,-0.1083252,-1.4878784,-0.22302246,95.0
1344,2.926733,-1.0609808,0.5032196,-0.1083252,-1.4878784,-0.22302246,95.0
1345,2.926733,-1.0609808,0.5032196,0.27399904,-0.9228882,0.44073486,95.0
1346,0.46136856,0.29994583,0.60821533,0.27399904,-0.9228882,0.44073486,95.0
1347,0.46136856,0.29994583,0.60821533,1.6758546,-0.61915284,0.8931519,95.0
1348,-0.47277546,3.1175814,-0.1277008,1.6758546,-0.61915284,0.8931519,95.0
1349,-0.47277546,3.1175814,-0.1277008,1.9445435,0.5798584,0.3717041,95.0
1350,-1.001524,3.2823343,-1.3842163,1.9445435,0.5798584,0.3717041,95.0
1351,-1.001524,3.2823343,-1.3842163,1.4252198,1.4868164,0.8729736,95.0
1352,-1.537816,0.7834606,-1.7641754,1.4252198,1.4868164,0.8729736,95.0
1353,-1.537816,0.7834606,-1.7641754,2.005078,1.6949707,0.42374268,95.0
1354,-1.6785564,-0.035316467,-1.692627,2.005078,1.6949707,0.42374268,95.0
1355,-1.6785564,-0.035316467,-1.692627,1.9721558,2.0964112,0.16461182,95.0
1356,-1.913414,0.84225464,-1.4544067,1.9721558,2.0964112,0.16461182,95.0
1357,-1.913414,0.84225464,-1.4544067,1.6046997,2.2227905,0.21558838,95.0
1358,-2.425849,1.8933105,-1.4479065,1.6046997,2.2227905,0.21558838,95.0
1359,-2.425849,1.8933105,-1.4479065,0.83474123,2.4022706,0.22196046,95.0
1360,-3.6566582,2.0585938,-0.83032227,0.83474123,2.4022706,0.22196046,95.0
1361,-3.6566582,2.0585938,-0.83032227,0.13062744,1.9530395,0.6074707,95.0
1362,-4.501401,1.5933952,-0.013931274,0.13062744,1.9530395,0.6074707,95.0
1363,-4.501401,1.5933952,-0.013931274,-0.07540283,1.2425537,0.89846194,95.0
1364,-4.354124,0.9540005,-0.0018005371,-0.07540283,1.2425537,0.89846194,95.0
1365,-4.354124,0.9540005,-0.0018005371,-0.23258057,0.8750977,1.089624,95.0
1366,-3.79558,0.41365242,-0.23426819,-0.23258057,0.8750977,1.089624,95.0
1367,-3.79558,0.41365242,-0.23426819,0.2347046,0.44604492,1.1544068,95.0
1368,-2.9484272,0.2899685,-0.5243988,0.2347046,0.44604492,1.1544068,95.0
1369,-2.9484272,0.2899685,-0.5243988,0.7349121,0.2347046,1.1490967,95.0
1370,-2.191493,0.5235882,-0.67485046,0.7349121,0.2347046,1.1490967,95.0
1371,-2.191493,0.5235882,-0.67485046,1.26698,0.12956543,1.0428956,95.0
1372,-1.5247278,0.96866226,-0.6831207,1.26698,0.12956543,1.0428956,95.0
1373,-1.5247278,0.96866226,-0.6831207,1.5165528,0.11682129,0.9388184,95.0
1374,-0.80827093,1.4064484,-0.6285248,1.5165528,0.11682129,0.9388184,95.0
1375,-0.80827093,1.4064484,-0.6285248,1.5951416,0.13381349,0.7975708,95.0
1376,0.043629646,1.6577034,-0.49241638,1.5951416,0.13381349,0.7975708,95.0
1377,0.043629646,1.6577034,-0.49241638,1.5473511,0.13062744,0.5883545,95.0
1378,0.043629646,1.6577034,-0.49241638,1.364685,0.13487549,0.33240968,95.0
1379,0.9522133,1.7135658,-0.3493805,1.364685,0.13487549,0.33240968,95.0
1380,3.029593,1.5976601,-0.87835693,1.364685,0.13487549,0.33240968,95.0
1381,3.029593,1.5976601,-0.87835693,0.9409424,0.20178223,0.08071289,95.0
1382,3.029593,1.5976601,-0.87835693,0.30267334,0.29948732,-0.10938721,95.0
1383,3.029593,1.5976601,-0.87835693,-0.3090454,0.28355715,-0.2516968,95.0
1384,2.9189992,1.1295319,-0.6050415,-0.3090454,0.28355715,-0.2516968,95.0
1385,2.9189992,1.1295319,-0.6050415,-0.8251831,0.14124756,-0.38975832,95.0
1386,3.08747,0.6677246,-0.15267944,-0.8251831,0.14124756,-0.38975832,95.0
1387,3.08747,0.6677246,-0.15267944,-1.3147706,-0.11044922,-0.56817627,95.0
1388,3.0935354,0.22465706,0.28808594,-1.3147706,-0.11044922,-0.56817627,95.0
1389,3.0935354,0.22465706,0.28808594,-1.9657837,-0.40144044,-0.76358646,95.0
1390,2.5023184,-0.39902115,0.7107239,-1.9657837,-0.40144044,-0.76358646,95.0
1391,2.5023184,-0.39902115,0.7107239,-2.4574952,-0.7306641,-0.9770508,95.0
1392,1.5883536,-1.277565,1.2161102,-2.4574952,-0.7306641,-0.9770508,95.0
1393,1.5883536,-1.277565,1.2161102,-2.543518,-1.1214844,-1.2234375,95.0
1394,0.7130289,-2.148615,1.9126129,-2.543518,-1.1214844,-1.2234375,95.0
1395,0.7130289,-2.148615,1.9126129,-1.9169312,-1.5515991,-1.4347779,95.0
1396,0.10091591,-2.673481,2.521698,-1.9169312,-1.5515991,-1.4347779,95.0
1397,0.10091591,-2.673481,2.521698,-0.77314454,-1.8925049,-1.5292969,95.0
1398,-0.07808113,-2.5503445,2.5341644,-0.77314454,-1.8925049,-1.5292969,95.0
1399,-0.07808113,-2.5503445,2.5341644,0.16673584,-2.1505737,-1.4092896,95.0
1400,0.33920765,-1.8023968,1.6772919,0.16673584,-2.1505737,-1.4092896,95.0
1401,0.33920765,-1.8023968,1.6772919,0.6403931,-2.1229615,-1.2181275,95.0
1402,0.95250607,-0.805809,0.44595337,0.6403931,-2.1229615,-1.2181275,95.0
1403,0.95250607,-0.805809,0.44595337,0.58198243,-1.3083985,-0.8602295,95.0
1404,1.1720142,0.048603058,-0.28381348,0.58198243,-1.3083985,-0.8602295,95.0
1405,1.1720142,0.048603058,-0.28381348,0.31860352,-0.80606693,-0.40037844,95.0
1406,0.772048,0.44049454,-0.39794922,0.31860352,-0.80606693,-0.40037844,95.0
1407,0.772048,0.44049454,-0.39794922,-0.1263794,-0.1444336,-0.010620117,95.0
1408,-0.16521072,0.3085003,-0.20478821,-0.1263794,-0.1444336,-0.010620117,95.0
1409,-0.16521072,0.3085003,-0.20478821,-0.3069214,0.24744873,0.3536499,95.0
1410,-1.2742462,-0.004835129,0.020004272,-0.3069214,0.24744873,0.3536499,95.0
1411,-1.2742462,-0.004835129,0.020004272,-0.6042847,0.47684327,0.544812,95.0
1412,-2.1523561,-0.19262505,0.19203186,-0.6042847,0.47684327,0.544812,95.0
1413,-2.1523561,-0.19262505,0.19203186,-0.6488892,0.5915405,0.70942384,95.0
1414,-2.644968,-0.22112846,0.35864258,-0.6488892,0.5915405,0.70942384,95.0
1415,-2.644968,-0.22112846,0.35864258,-0.6149048,0.5703003,0.7827026,95.0
1416,-2.676033,-0.03759575,0.4333954,-0.6149048,0.5703003,0.7827026,95.0
1417,-2.676033,-0.03759575,0.4333954,-0.20496826,0.49489745,0.727478,95.0
1418,-2.3536806,0.30119705,0.22125244,-0.20496826,0.49489745,0.727478,95.0
1419,-2.3536806,0.30119705,0.22125244,0.02442627,0.5140137,0.62127686,95.0
1420,-1.9043798,0.59012794,-0.2202301,0.02442627,0.5140137,0.62127686,95.0
1421,-1.9043798,0.59012794,-0.2202301,0.05628662,0.53737795,0.5671143,95.0
1422,-1.4159966,0.6365185,-0.53471375,0.05628662,0.53737795,0.5671143,95.0
1423,-1.4159966,0.6365185,-0.53471375,0.115759276,0.5479981,0.452417,95.0
1424,-0.78907156,0.53743744,-0.52001953,0.115759276,0.5479981,0.452417,95.0
1425,-0.78907156,0.53743744,-0.52001953,0.17735596,0.5065796,0.2814331,95.0
1426,-0.14710188,0.35412025,-0.3502655,0.17735596,0.5065796,0.2814331,95.0
1427,-0.14710188,0.35412025,-0.3502655,0.12531738,0.4078125,0.13062744,95.0
1428,0.25040913,0.110040665,-0.24908447,0.12531738,0.4078125,0.13062744,95.0
1429,0.25040913,0.110040665,-0.24908447,0.13168946,0.2782471,0.04141846,95.0
1430,0.5025611,-0.02684784,-0.2506714,0.13168946,0.2782471,0.04141846,95.0
1431,0.5025611,-0.02684784,-0.2506714,0.12531738,0.078588866,-0.04141846,95.0
1432,0.8352399,-0.0710392,-0.19076538,0.12531738,0.078588866,-0.04141846,95.0
1433,0.8352399,-0.0710392,-0.19076538,0.21877442,-0.19328614,-0.095581055,95.0
1434,1.3973303,-0.14629745,-0.043563843,0.21877442,-0.19328614,-0.095581055,95.0
1435,1.3973303,-0.14629745,-0.043563843,0.29311523,-0.43754885,-0.20178223,95.0
1436,2.1721249,-0.28072166,0.055603027,0.29311523,-0.43754885,-0.20178223,95.0
1437,2.1721249,-0.28072166,0.055603027,0.29736328,-0.58304447,-0.33771974,95.0
1438,3.0315351,-0.37485886,-0.002029419,0.29736328,-0.58304447,-0.33771974,95.0
1439,3.0315351,-0.37485886,-0.002029419,0.08814698,-0.62552494,-0.43011475,95.0
1440,4.0546474,-0.4458351,-0.113220215,0.08814698,-0.62552494,-0.43011475,95.0
1441,4.0546474,-0.4458351,-0.113220215,-0.44604492,-0.6637573,-0.4885254,95.0
1442,5.071452,-0.71440697,0.13983154,-0.44604492,-0.6637573,-0.4885254,95.0
1443,5.071452,-0.71440697,0.13983154,-1.0184692,-0.7625244,-0.52675784,95.0
1444,5.009774,-1.3819752,0.7563782,-1.0184692,-0.7625244,-0.52675784,95.0
1445,5.009774,-1.3819752,0.7563782,-0.99085695,-0.817749,-0.4991455,95.0
1446,2.8983107,-1.9362316,0.8673706,-0.99085695,-0.817749,-0.4991455,95.0
1447,2.8983107,-1.9362316,0.8673706,-0.2081543,-0.58304447,-0.4428589,95.0
1448,-0.3226118,-1.6404762,0.6240692,-0.2081543,-0.58304447,-0.4428589,95.0
1449,-0.3226118,-1.6404762,0.6240692,0.2623169,-0.32285157,0.019116212,95.0
1450,-2.4790983,-0.08121681,0.49900818,0.2623169,-0.32285157,0.019116212,95.0
1451,-2.4790983,-0.08121681,0.49900818,0.7189819,-0.050976563,0.35895997,95.0
1452,-2.7889433,1.5147514,-0.019943237,0.7189819,-0.050976563,0.35895997,95.0
1453,-2.7889433,1.5147514,-0.019943237,0.634021,0.37701416,0.62127686,95.0
1454,-2.0927153,1.5758152,-0.69555664,0.634021,0.37701416,0.62127686,95.0
1455,-2.0927153,1.5758152,-0.69555664,0.6860596,0.6754395,0.75296634,95.0
1456,-1.5228777,0.82294464,-0.98501587,0.6860596,0.6754395,0.75296634,95.0
1457,-1.5228777,0.82294464,-0.98501587,0.7678345,1.0386475,0.56392825,95.0
1458,-1.5228777,0.82294464,-0.98501587,0.7678345,1.0386475,0.56392825,89.0
1459,-1.3703041,0.37942505,-0.9465637,0.7678345,1.0386475,0.56392825,89.0
1460,-1.3703041,0.37942505,-0.9465637,0.6988037,1.09281,0.44710693,89.0
1461,-1.5424833,0.33666992,-0.9214325,0.6988037,1.09281,0.44710693,89.0
1462,-1.5424833,0.33666992,-0.9214325,0.6467652,1.1671509,0.31966552,89.0
1463,-2.0367455,0.4589119,-0.9381256,0.6467652,1.1671509,0.31966552,89.0
1464,-2.0367455,0.4589119,-0.9381256,0.5671143,1.1246704,0.19647217,89.0
1465,-2.5619893,0.62395287,-0.93141174,0.5671143,1.1246704,0.19647217,89.0
1466,-2.5619893,0.62395287,-0.93141174,0.4980835,0.9239502,0.16885987,89.0
1467,-2.9525213,0.7203407,-0.79862976,0.4980835,0.9239502,0.16885987,89.0
1468,-2.9525213,0.7203407,-0.79862976,0.41206056,0.73809814,0.18585205,89.0
1469,-2.959978,0.6800194,-0.53941345,0.41206056,0.73809814,0.18585205,89.0
1470,-2.959978,0.6800194,-0.53941345,0.59260255,0.32072756,0.2814331,89.0
1471,-2.3780413,0.60806656,-0.4081421,0.59260255,0.32072756,0.2814331,89.0
1472,-2.3780413,0.60806656,-0.4081421,0.7540283,0.09770508,0.26656494,89.0
1473,-1.4854774,0.6108799,-0.34179688,0.7540283,0.09770508,0.26656494,89.0
1474,-1.4854774,0.6108799,-0.34179688,0.94731444,-0.0722168,0.2166504,89.0
1475,-0.59652424,0.66342354,-0.29458618,0.94731444,-0.0722168,0.2166504,89.0
1476,-0.59652424,0.66342354,-0.29458618,1.088562,-0.15930176,0.14230958,89.0
1477,0.071974754,0.7710705,-0.2672119,1.088562,-0.15930176,0.14230958,89.0
1478,0.071974754,0.7710705,-0.2672119,1.1246704,-0.14549561,0.12531738,89.0
1479,0.5082269,0.94437027,-0.25408936,1.1246704,-0.14549561,0.12531738,89.0
1480,0.5082269,0.94437027,-0.25408936,0.99510497,-0.07752686,0.13487549,89.0
1481,0.5082269,0.94437027,-0.25408936,0.811377,0.03079834,0.18479005,89.0
1482,0.9088888,1.1196442,-0.26741028,0.811377,0.03079834,0.18479005,89.0
1483,2.7430778,1.4509029,-0.6868744,0.811377,0.03079834,0.18479005,89.0
1484,2.7430778,1.4509029,-0.6868744,0.5161377,0.16354981,0.21877442,89.0
1485,2.7430778,1.4509029,-0.6868744,0.11682129,0.29311523,0.24532472,89.0
1486,2.7430778,1.4509029,-0.6868744,-0.4343628,0.39188233,0.23682861,89.0
1487,2.5013957,1.1358452,-0.6817169,-0.4343628,0.39188233,0.23682861,89.0
1488,2.5013957,1.1358452,-0.6817169,-0.9228882,0.38975832,0.14124756,89.0
1489,2.0573664,0.7693329,-0.38542175,-0.9228882,0.38975832,0.14124756,89.0
1490,2.0573664,0.7693329,-0.38542175,-1.2021973,0.22727051,-0.08496094,89.0
1491,1.8722968,0.3612423,0.10858154,-1.2021973,0.22727051,-0.08496094,89.0
1492,1.8722968,0.3612423,0.10858154,-1.6153198,-0.043542482,-0.45347902,89.0
1493,1.7793074,-0.22746086,0.54852295,-1.6153198,-0.043542482,-0.45347902,89.0
1494,1.7793074,-0.22746086,0.54852295,-2.1229615,-0.32497558,-0.88996583,89.0
1495,1.247469,-1.040514,0.8942108,-2.1229615,-0.32497558,-0.88996583,89.0
1496,1.247469,-1.040514,0.8942108,-2.350232,-0.5968506,-1.2786621,89.0
1497,0.4759779,-1.8590965,1.3471985,-2.350232,-0.5968506,-1.2786621,89.0
1498,0.4759779,-1.8590965,1.3471985,-2.1505737,-0.92501223,-1.6121339,89.0
1499,0.078645706,-2.5616798,1.8968353,-2.1505737,-0.92501223,-1.6121339,89.0
1500,0.078645706,-2.5616798,1.8968353,-1.4878784,-1.270166,-1.7969239,89.0
1501,0.27837086,-2.974575,2.1783295,-1.4878784,-1.270166,-1.7969239,89.0
1502,0.27837086,-2.974575,2.1783295,-0.51932377,-1.4910644,-1.7926759,89.0
1503,0.8534336,-2.8226414,1.9678497,-0.51932377,-1.4910644,-1.7926759,89.0
1504,0.8534336,-2.8226414,1.9678497,0.2538208,-1.6524903,-1.5069946,89.0
1505,1.5680742,-1.9579906,1.1082458,0.2538208,-1.6524903,-1.5069946,89.0
1506,1.5680742,-1.9579906,1.1082458,0.63720703,-1.3997315,-0.9674927,89.0
1507,1.6996374,-0.5951519,0.17175293,0.63720703,-1.3997315,-0.9674927,89.0
1508,1.6996374,-0.5951519,0.17175293,0.32709962,-0.6690674,-0.3164795,89.0
1509,0.9602833,0.6557274,-0.27578735,0.32709962,-0.6690674,-0.3164795,89.0
1510,0.9602833,0.6557274,-0.27578735,-0.29523927,0.025488282,0.34940186,89.0
1511,-0.38082123,1.0784016,-0.4534607,-0.29523927,0.025488282,0.34940186,89.0
1512,-0.38082123,1.0784016,-0.4534607,-0.8857178,0.66269535,0.80181885,89.0
1513,-1.9085264,0.6662483,-0.42929077,-0.8857178,0.66269535,0.80181885,89.0
1514,-1.9085264,0.6662483,-0.42929077,-1.177771,1.0205933,1.1310425,89.0
1515,-3.05303,0.080703735,-0.30158997,-1.177771,1.0205933,1.1310425,89.0
1516,-3.05303,0.080703735,-0.30158997,-1.3880494,1.1947632,1.2478638,89.0
1517,-3.5916672,-0.32748985,-0.18013,-1.3880494,1.1947632,1.2478638,89.0
1518,-3.5916672,-0.32748985,-0.18013,-1.4390259,1.3891114,1.2552979,89.0
1519,-3.67774,-0.60699844,-0.07601929,-1.4390259,1.3891114,1.2552979,89.0
1520,-3.67774,-0.60699844,-0.07601929,-1.1416626,1.1512207,1.1586548,89.0
1521,-3.4357839,-0.68115425,-0.14588928,-1.1416626,1.1512207,1.1586548,89.0
1522,-3.4357839,-0.68115425,-0.14588928,-0.7657105,1.1331666,0.9802368,89.0
1523,-3.0090642,-0.4944229,-0.3722229,-0.7657105,1.1331666,0.9802368,89.0
1524,-3.0090642,-0.4944229,-0.3722229,-0.36745605,1.0237793,0.7338501,89.0
1525,-2.527515,-0.15200806,-0.6077118,-0.36745605,1.0237793,0.7338501,89.0
1526,-2.527515,-0.15200806,-0.6077118,0.038232423,0.83686525,0.5214478,89.0
1527,-2.527515,-0.15200806,-0.6077118,0.18266602,0.8750977,0.23045655,89.0
1528,-1.7866237,0.23023796,-0.9078369,0.18266602,0.8750977,0.23045655,89.0
1529,0.5824075,0.08384895,-0.5357971,0.18266602,0.8750977,0.23045655,89.0
1530,0.5824075,0.08384895,-0.5357971,0.27506104,0.6265869,-0.0361084,89.0
1531,0.5824075,0.08384895,-0.5357971,0.5320679,0.23789063,-0.29099122,89.0
1532,0.5824075,0.08384895,-0.5357971,0.75615233,-0.16885987,-0.57561034,89.0
1533,1.5656085,-0.007238388,-0.29826355,0.75615233,-0.16885987,-0.57561034,89.0
1534,1.5656085,-0.007238388,-0.29826355,0.903772,-0.6669434,-0.78164065,89.0
1535,2.4616299,-0.066581726,0.07295227,0.903772,-0.6669434,-0.78164065,89.0
1536,2.4616299,-0.066581726,0.07295227,0.9366943,-1.1905152,-0.92926025,89.0
1537,3.224626,-0.09418297,0.55322266,0.9366943,-1.1905152,-0.92926025,89.0
1538,3.224626,-0.09418297,0.55322266,0.6573853,-1.5664673,-0.9696167,89.0
1539,3.934657,0.015314102,0.84313965,0.6573853,-1.5664673,-0.9696167,89.0
1540,3.934657,0.015314102,0.84313965,0.07115479,-1.722583,-0.9366943,89.0
1541,4.8032556,0.10848045,1.0810852,0.07115479,-1.722583,-0.9366943,89.0
1542,4.8032556,0.10848045,1.0810852,-0.721106,-1.7629395,-0.88359374,89.0
1543,5.436013,-0.3510933,1.5787201,-0.721106,-1.7629395,-0.88359374,89.0
1544,5.436013,-0.3510933,1.5787201,-1.3880494,-1.9307374,-0.7848267,89.0
1545,5.2029247,-1.312809,1.2812195,-1.3880494,-1.9307374,-0.7848267,89.0
1546,5.2029247,-1.312809,1.2812195,-1.2510499,-1.4124756,-0.6711914,89.0
1547,3.3532944,-2.2203522,0.31669617,-1.2510499,-1.4124756,-0.6711914,89.0
1548,3.3532944,-2.2203522,0.31669617,-0.9154541,-0.5734863,-0.4364868,89.0
1549,0.6897154,-2.2246342,0.22097778,-0.9154541,-0.5734863,-0.4364868,89.0
1550,0.6897154,-2.2246342,0.22097778,-0.35046387,-0.3154175,0.0541626,89.0
1551,-1.0317001,-1.0873852,0.48120117,-0.35046387,-0.3154175,0.0541626,89.0
1552,-1.0317001,-1.0873852,0.48120117,0.47578126,-0.0021240234,0.47684327,89.0
1553,-1.6197205,0.28995514,-0.12075806,0.47578126,-0.0021240234,0.47684327,89.0
1554,-1.6197205,0.28995514,-0.12075806,1.3243287,0.71579593,0.47578126,89.0
1555,-1.7152586,0.82930374,-1.1700287,1.3243287,0.71579593,0.47578126,89.0
1556,-1.7152586,0.82930374,-1.1700287,1.4188477,1.2414917,0.632959,89.0
1557,-1.6940937,0.76469994,-1.7223969,1.4188477,1.2414917,0.632959,89.0
1558,-1.6940937,0.76469994,-1.7223969,1.4900025,1.6153198,0.5235718,89.0
1559,-1.6940937,0.76469994,-1.7223969,1.4900025,1.6153198,0.5235718,85.0
1560,-1.8409195,0.8473797,-1.5961456,1.4900025,1.6153198,0.5235718,85.0
1561,-1.8409195,0.8473797,-1.5961456,1.3445069,1.7300171,0.48427734,85.0
1562,-2.2341003,1.0894146,-1.2419739,1.3445069,1.7300171,0.48427734,85.0
1563,-2.2341003,1.0894146,-1.2419739,1.0099732,2.0008302,0.47471926,85.0
1564,-3.0707521,1.2506332,-0.7424927,1.0099732,2.0008302,0.47471926,85.0
1565,-3.0707521,1.2506332,-0.7424927,0.55543214,1.6100098,0.43011475,85.0
1566,-3.826023,1.2117615,-0.2316742,0.55543214,1.6100098,0.43011475,85.0
1567,-3.826023,1.2117615,-0.2316742,0.39506838,1.0014771,0.71154785,85.0
1568,-3.8752227,1.0480461,-0.23876953,0.39506838,1.0014771,0.71154785,85.0
1569,-3.8752227,1.0480461,-0.23876953,0.32497558,0.6414551,0.8092529,85.0
1570,-3.4563308,0.95469666,-0.5092926,0.32497558,0.6414551,0.8092529,85.0
1571,-3.4563308,0.95469666,-0.5092926,0.41312256,0.36851808,0.8995239,85.0
1572,-2.8045545,0.917017,-0.7103882,0.41312256,0.36851808,0.8995239,85.0
1573,-2.8045545,0.917017,-0.7103882,0.634021,0.21558838,0.93775636,85.0
1574,-2.0720005,0.9368725,-0.76434326,0.634021,0.21558838,0.93775636,85.0
1575,-2.0720005,0.9368725,-0.76434326,0.8952759,0.16354981,0.8889038,85.0
1576,-1.3735182,1.0427971,-0.7129059,0.8952759,0.16354981,0.8889038,85.0
1577,-1.3735182,1.0427971,-0.7129059,1.081128,0.16036378,0.80181885,85.0
1578,-0.8134997,1.218771,-0.5733948,1.081128,0.16036378,0.80181885,85.0
1579,-0.8134997,1.218771,-0.5733948,1.2160034,0.16461182,0.6945557,85.0
1580,-0.31897593,1.3801689,-0.40922546,1.2160034,0.16461182,0.6945557,85.0
1581,-0.31897593,1.3801689,-0.40922546,1.1990112,0.14655761,0.540564,85.0
1582,-0.31897593,1.3801689,-0.40922546,1.088562,0.10938721,0.34940186,85.0
1583,0.34424543,1.4417324,-0.2979126,1.088562,0.10938721,0.34940186,85.0
1584,2.2762141,1.456255,-0.36524963,1.088562,0.10938721,0.34940186,85.0
1585,2.2762141,1.456255,-0.36524963,0.90695804,0.08920898,0.14230958,85.0
1586,2.2762141,1.456255,-0.36524963,0.55968016,0.08814698,-0.06265869,85.0
1587,2.78822,1.1722298,-0.51364136,0.55968016,0.08814698,-0.06265869,85.0
1588,2.78822,1.1722298,-0.51364136,0.08814698,0.10407715,-0.23258057,85.0
1589,2.8645482,0.9218178,-0.54551697,0.08814698,0.10407715,-0.23258057,85.0
1590,2.8645482,0.9218178,-0.54551697,-0.4694092,0.07434082,-0.36108398,85.0
1591,2.74552,0.70851135,-0.2956848,-0.4694092,0.07434082,-0.36108398,85.0
1592,2.74552,0.70851135,-0.2956848,-1.0078491,-0.050976563,-0.5256958,85.0
1593,2.756011,0.42674446,0.11036682,-1.0078491,-0.050976563,-0.5256958,85.0
1594,2.756011,0.42674446,0.11036682,-1.62594,-0.23258057,-0.75296634,85.0
1595,2.516955,-0.07800293,0.50987244,-1.62594,-0.23258057,-0.75296634,85.0
