,accx,accy,accz,gyrox,gyroy,gyroz,heart rate
0,walk,walk,walk,walk,walk,walk,walk
1,1.770166,-53.984425,35.464672,0.0,0.0,0.0,0.0
2,1.770166,-53.984425,35.464672,-0.14974366,-0.03079834,-0.08496094,0.0
3,1.460774,-43.21974,28.431652,-0.14974366,-0.03079834,-0.08496094,0.0
4,1.460774,-43.21974,28.431652,-0.13806152,-0.06265869,-0.07965088,0.0
5,1.3749058,-34.51918,23.016487,-0.13806152,-0.06265869,-0.07965088,0.0
6,1.3749058,-34.51918,23.016487,0.040356446,0.009558106,-0.13275146,0.0
7,1.1535258,-27.535545,18.452667,0.040356446,0.009558106,-0.13275146,0.0
8,1.1535258,-27.535545,18.452667,0.06903076,0.040356446,-0.15186767,0.0
9,0.9445492,-21.69046,14.744534,0.06903076,0.040356446,-0.15186767,0.0
10,0.9445492,-21.69046,14.744534,-0.09770508,0.04991455,-0.087084964,0.0
11,0.743994,-17.277061,11.777035,-0.09770508,0.04991455,-0.087084964,0.0
12,0.743994,-17.277061,11.777035,-0.14974366,0.035046387,-0.04885254,0.0
13,0.51511717,-14.03289,9.33049,-0.14974366,0.035046387,-0.04885254,0.0
14,0.51511717,-14.03289,9.33049,-0.10620117,0.0021240234,-0.014868164,0.0
15,0.392941,-11.356453,7.4201317,-0.10620117,0.0021240234,-0.014868164,0.0
16,0.392941,-11.356453,7.4201317,-0.0722168,0.0010620117,-0.013806152,0.0
17,0.392941,-11.356453,7.4201317,-0.0722168,0.0010620117,-0.013806152,93.0
18,0.29183078,-9.201164,5.8897095,-0.0722168,0.0010620117,-0.013806152,93.0
19,0.29183078,-9.201164,5.8897095,-0.022302246,-0.0053100586,-0.025488282,93.0
20,0.23208523,-7.240364,4.7256966,-0.022302246,-0.0053100586,-0.025488282,93.0
21,0.23208523,-7.240364,4.7256966,0.009558106,0.009558106,-0.060534667,93.0
22,0.19861984,-5.600033,3.8329773,0.009558106,0.009558106,-0.060534667,93.0
23,0.19861984,-5.600033,3.8329773,-0.045666505,0.0010620117,-0.05522461,93.0
24,0.17806077,-4.440132,3.124794,-0.045666505,0.0010620117,-0.05522461,93.0
25,0.17806077,-4.440132,3.124794,-0.095581055,-0.010620117,-0.019116212,93.0
26,0.13967752,-3.7141914,2.5409126,-0.095581055,-0.010620117,-0.019116212,93.0
27,0.13967752,-3.7141914,2.5409126,-0.04141846,-0.012744141,-0.043542482,93.0
28,0.08979368,-3.1475906,2.0598412,-0.04141846,-0.012744141,-0.043542482,93.0
29,0.08979368,-3.1475906,2.0598412,0.053100586,-0.015930176,-0.06690674,93.0
30,0.053524256,-2.48423,1.6424294,0.053100586,-0.015930176,-0.06690674,93.0
31,0.053524256,-2.48423,1.6424294,0.057348635,-0.0031860352,-0.03717041,93.0
32,0.03234577,-1.8318939,1.2805557,0.057348635,-0.0031860352,-0.03717041,93.0
33,0.03234577,-1.8318939,1.2805557,0.023364259,0.0053100586,-0.04248047,93.0
34,0.028867245,-1.3503876,0.99633026,0.023364259,0.0053100586,-0.04248047,93.0
35,0.028867245,-1.3503876,0.99633026,-0.04141846,0.015930176,-0.059472658,93.0
36,0.021494627,-1.0911102,0.8053398,-0.04141846,0.015930176,-0.059472658,93.0
37,0.021494627,-1.0911102,0.8053398,-0.04991455,0.010620117,-0.053100586,93.0
38,0.0028767586,-0.97071075,0.651268,-0.04991455,0.010620117,-0.053100586,93.0
39,0.0028767586,-0.97071075,0.651268,-0.023364259,0.0053100586,-0.039294433,93.0
40,-0.017510653,-0.9000168,0.51997375,-0.023364259,0.0053100586,-0.039294433,93.0
41,-0.017510653,-0.9000168,0.51997375,0.004248047,-0.013806152,-0.014868164,93.0
42,-0.005658865,-0.76516724,0.4132805,0.004248047,-0.013806152,-0.014868164,93.0
43,-0.005658865,-0.76516724,0.4132805,0.028674318,0.0053100586,-0.04141846,93.0
44,-0.005658865,-0.76516724,0.4132805,0.011682129,0.029736329,-0.028674318,93.0
45,0.04406905,-0.51148987,0.31296158,0.011682129,0.029736329,-0.028674318,93.0
46,0.06325817,-0.24913025,0.21515274,0.011682129,0.029736329,-0.028674318,93.0
47,0.06325817,-0.24913025,0.21515274,-0.035046387,0.016992187,0.011682129,93.0
48,0.02688837,-0.15392303,0.16129303,-0.035046387,0.016992187,0.011682129,93.0
49,0.02688837,-0.15392303,0.16129303,-0.039294433,0.008496094,0.032922365,93.0
50,-0.012986422,-0.18938446,0.14107132,-0.039294433,0.008496094,0.032922365,93.0
51,-0.012986422,-0.18938446,0.14107132,-0.015930176,0.0053100586,-0.0063720704,93.0
52,-0.021875858,-0.23788452,0.13110733,-0.015930176,0.0053100586,-0.0063720704,93.0
53,-0.021875858,-0.23788452,0.13110733,-0.03717041,0.0031860352,-0.013806152,93.0
54,-0.010225296,-0.26776123,0.110134125,-0.03717041,0.0031860352,-0.013806152,93.0
55,-0.010225296,-0.26776123,0.110134125,-0.09133301,0.0,0.0,93.0
56,-0.003944397,-0.28183746,0.11896515,-0.09133301,0.0,0.0,93.0
57,-0.003944397,-0.28183746,0.11896515,-0.07115479,0.012744141,0.0063720704,93.0
58,0.01675415,-0.1953888,0.14696503,-0.07115479,0.012744141,0.0063720704,93.0
59,0.01675415,-0.1953888,0.14696503,-0.039294433,0.019116212,0.007434082,93.0
60,0.03327632,-0.01977539,0.12755585,-0.039294433,0.019116212,0.007434082,93.0
61,0.03327632,-0.01977539,0.12755585,-0.032922365,0.019116212,0.008496094,93.0
62,0.028854847,0.06121826,0.037872314,-0.032922365,0.019116212,0.008496094,93.0
63,0.028854847,0.06121826,0.037872314,-0.007434082,0.03717041,-0.019116212,93.0
64,-0.016332626,-0.0069122314,-0.044815063,-0.007434082,0.03717041,-0.019116212,93.0
65,-0.016332626,-0.0069122314,-0.044815063,0.0053100586,0.028674318,-0.029736329,93.0
66,-0.06008768,-0.15478516,-0.0728035,0.0053100586,0.028674318,-0.029736329,93.0
67,-0.06008768,-0.15478516,-0.0728035,-0.010620117,-0.038232423,0.0010620117,93.0
68,-0.032933474,-0.25486755,-0.05133438,-0.010620117,-0.038232423,0.0010620117,93.0
69,-0.032933474,-0.25486755,-0.05133438,0.057348635,-0.04141846,0.028674318,93.0
70,-0.032933474,-0.25486755,-0.05133438,0.15717773,-0.043542482,-0.032922365,93.0
71,0.032869577,-0.19985199,-0.06863022,0.15717773,-0.043542482,-0.032922365,93.0
72,0.057716608,-0.15571594,-0.15545654,0.15717773,-0.043542482,-0.032922365,93.0
73,0.057716608,-0.15571594,-0.15545654,0.15505372,-0.059472658,0.004248047,93.0
74,0.12295556,-0.035575867,-0.1301651,0.15505372,-0.059472658,0.004248047,93.0
75,0.12295556,-0.035575867,-0.1301651,-0.2793091,-0.31329346,0.29099122,93.0
76,0.18271494,-0.12767029,0.0057678223,-0.2793091,-0.31329346,0.29099122,93.0
77,0.18271494,-0.12767029,0.0057678223,0.20178223,0.05628662,0.25913087,93.0
78,0.030168533,-0.122802734,0.012866974,0.20178223,0.05628662,0.25913087,93.0
79,0.030168533,-0.122802734,0.012866974,0.026550293,0.0053100586,-0.007434082,93.0
80,-0.0018417835,0.14836884,0.07531738,0.026550293,0.0053100586,-0.007434082,93.0
81,-0.0018417835,0.14836884,0.07531738,0.16779785,0.038232423,0.033984374,93.0
82,0.13771129,0.29210663,0.25068665,0.16779785,0.038232423,0.033984374,93.0
83,0.13771129,0.29210663,0.25068665,0.77102053,0.20921631,0.14549561,93.0
84,0.043714046,0.5236511,0.29852295,0.77102053,0.20921631,0.14549561,93.0
85,0.043714046,0.5236511,0.29852295,0.3058594,0.0722168,-0.4800293,93.0
86,-0.021706104,0.6832504,0.16303635,0.3058594,0.0722168,-0.4800293,93.0
87,-0.021706104,0.6832504,0.16303635,0.1178833,0.06159668,-0.14761963,93.0
88,-0.021706104,0.6832504,0.16303635,-0.3154175,0.078588866,-0.16567384,93.0
89,0.015362263,0.59477234,0.009578705,-0.3154175,0.078588866,-0.16567384,93.0
90,-0.045974255,0.24100494,-0.048561096,-0.3154175,0.078588866,-0.16567384,93.0
91,-0.045974255,0.24100494,-0.048561096,-0.3419678,-0.035046387,-0.08814698,93.0
92,-0.039306164,-0.28853607,-0.06387329,-0.3419678,-0.035046387,-0.08814698,93.0
93,-0.039306164,-0.28853607,-0.06387329,0.06903076,-0.0031860352,-0.0637207,93.0
94,-0.039049864,-0.5059128,-0.10500336,0.06903076,-0.0031860352,-0.0637207,93.0
95,-0.039049864,-0.5059128,-0.10500336,0.1083252,-0.05522461,-0.08496094,93.0
96,-0.11841035,-0.20531464,-0.23110962,0.1083252,-0.05522461,-0.08496094,93.0
97,-0.11841035,-0.20531464,-0.23110962,-0.03186035,-0.1083252,-0.09664307,93.0
98,-0.11826348,0.15909576,-0.35310364,-0.03186035,-0.1083252,-0.09664307,93.0
99,-0.11826348,0.15909576,-0.35310364,-0.04460449,-0.09451904,-0.04991455,93.0
100,-0.08303857,0.27770233,-0.37815094,-0.04460449,-0.09451904,-0.04991455,93.0
101,-0.08303857,0.27770233,-0.37815094,-0.14974366,-0.08814698,-0.06690674,93.0
102,-0.12606215,0.25242615,-0.38669968,-0.14974366,-0.08814698,-0.06690674,93.0
103,-0.12606215,0.25242615,-0.38669968,-0.3058594,-0.11151123,-0.16248779,93.0
104,-0.18269777,0.16357422,-0.42026138,-0.3058594,-0.11151123,-0.16248779,93.0
105,-0.18269777,0.16357422,-0.42026138,-0.24001466,-0.13699952,-0.2347046,93.0
106,-0.17032814,0.107299805,-0.42635727,-0.24001466,-0.13699952,-0.2347046,93.0
107,-0.17032814,0.107299805,-0.42635727,-0.1731079,-0.14868164,-0.26656494,93.0
108,-0.14322042,0.22933197,-0.4295044,-0.1731079,-0.14868164,-0.26656494,93.0
109,-0.14322042,0.22933197,-0.4295044,-0.33240968,-0.20921631,-0.32603762,93.0
110,-0.09339714,0.4235382,-0.51522064,-0.33240968,-0.20921631,-0.32603762,93.0
111,-0.09339714,0.4235382,-0.51522064,-0.5501221,-0.2623169,-0.39188233,93.0
112,0.009632826,0.46720123,-0.68816376,-0.5501221,-0.2623169,-0.39188233,93.0
113,0.009632826,0.46720123,-0.68816376,-0.6605713,-0.30373535,-0.45560303,93.0
114,0.12667584,0.40540314,-0.85175323,-0.6605713,-0.30373535,-0.45560303,93.0
115,0.12667584,0.40540314,-0.85175323,-0.7742066,-0.37595215,-0.53525394,93.0
116,0.17188501,0.38100433,-0.94639206,-0.7742066,-0.37595215,-0.53525394,93.0
117,0.17188501,0.38100433,-0.94639206,-0.8687256,-0.47790527,-0.6287109,93.0
118,0.17180967,0.41854858,-1.0069313,-0.8687256,-0.47790527,-0.6287109,93.0
119,0.17180967,0.41854858,-1.0069313,-0.93775636,-0.60109866,-0.72004396,93.0
120,0.21050692,0.49655914,-1.0826721,-0.93775636,-0.60109866,-0.72004396,93.0
121,0.21050692,0.49655914,-1.0826721,-1.1034302,-0.727478,-0.8262451,93.0
122,0.31644034,0.5656967,-1.2323227,-1.1034302,-0.727478,-0.8262451,93.0
123,0.31644034,0.5656967,-1.2323227,-1.3710572,-0.8591675,-0.9876709,93.0
124,0.3718655,0.46510315,-1.3871536,-1.3710572,-0.8591675,-0.9876709,93.0
125,0.3718655,0.46510315,-1.3871536,-1.4177856,-0.9632446,-1.1597168,93.0
126,0.28991175,0.13731384,-1.2408867,-1.4177856,-0.9632446,-1.1597168,93.0
127,0.28991175,0.13731384,-1.2408867,-1.2393677,-1.2372437,-1.363623,93.0
128,0.37710762,-0.25736237,-0.79639435,-1.2393677,-1.2372437,-1.363623,93.0
129,0.37710762,-0.25736237,-0.79639435,-1.0174073,-1.4156617,-1.539917,93.0
130,0.6300919,-0.23114777,-0.5281067,-1.0174073,-1.4156617,-1.539917,93.0
131,0.6300919,-0.23114777,-0.5281067,-1.0046631,-1.4581422,-1.5834595,93.0
132,0.6805017,0.2941208,-0.61325836,-1.0046631,-1.4581422,-1.5834595,93.0
133,0.6805017,0.2941208,-0.61325836,-1.4007934,-1.540979,-1.6418701,93.0
134,0.63632035,0.82273865,-0.8330536,-1.4007934,-1.540979,-1.6418701,93.0
135,0.63632035,0.82273865,-0.8330536,-1.8362182,-1.5813354,-1.6928467,93.0
136,0.6628649,1.0986404,-0.9151726,-1.8362182,-1.5813354,-1.6928467,93.0
137,0.6628649,1.0986404,-0.9151726,-2.2259767,-1.6386842,-1.7470093,93.0
138,0.6628649,1.0986404,-0.9151726,-2.2259767,-1.6386842,-1.7470093,93.0
139,0.61137104,0.87096405,-0.67775726,-2.2259767,-1.6386842,-1.7470093,93.0
140,0.61137104,0.87096405,-0.67775726,-2.0741088,-1.8914429,-1.7863038,93.0
141,0.5831888,0.23777771,-0.18888474,-2.0741088,-1.8914429,-1.7863038,93.0
142,0.5831888,0.23777771,-0.18888474,-1.7055908,-2.066675,-1.81604,93.0
143,0.49594545,-0.19566345,0.14702606,-1.7055908,-2.066675,-1.81604,93.0
144,0.49594545,-0.19566345,0.14702606,-1.4326538,-2.2047365,-1.910559,93.0
145,0.20126057,-0.05406952,0.43112183,-1.4326538,-2.2047365,-1.910559,93.0
146,0.20126057,-0.05406952,0.43112183,-1.0142212,-2.3682861,-1.9094971,93.0
147,0.07651138,0.4448166,1.1080551,-1.0142212,-2.3682861,-1.9094971,93.0
148,0.07651138,0.4448166,1.1080551,-0.634021,-2.5488281,-1.7066529,93.0
149,0.26468825,0.7730026,1.7524338,-0.634021,-2.5488281,-1.7066529,93.0
150,0.26468825,0.7730026,1.7524338,-0.35577393,-2.3003175,-1.3360108,93.0
151,0.1645093,0.87831116,1.8763733,-0.35577393,-2.3003175,-1.3360108,93.0
152,0.1645093,0.87831116,1.8763733,-0.5957886,-1.9190552,-1.0131592,93.0
153,-0.34922743,0.9757309,1.6844978,-0.5957886,-1.9190552,-1.0131592,93.0
154,-0.34922743,0.9757309,1.6844978,-1.0142212,-1.5611572,-0.88040775,93.0
155,-0.77936983,1.0161285,1.4326706,-1.0142212,-1.5611572,-0.88040775,93.0
156,-0.77936983,1.0161285,1.4326706,-1.1820191,-1.1894531,-0.72004396,93.0
157,-1.0195408,0.7816391,1.1080475,-1.1820191,-1.1894531,-0.72004396,93.0
158,-1.0195408,0.7816391,1.1080475,-0.9239502,-0.8772217,-0.61702883,93.0
159,-1.1861525,0.4705124,0.5826416,-0.9239502,-0.8772217,-0.61702883,93.0
160,-1.1861525,0.4705124,0.5826416,-0.62552494,-0.58198243,-0.4959595,93.0
161,-1.3481042,0.51929474,-0.01758957,-0.62552494,-0.58198243,-0.4959595,93.0
162,-1.3481042,0.51929474,-0.01758957,-0.5851685,-0.42799073,-0.37489015,93.0
163,-1.3451216,0.6907921,-0.38454437,-0.5851685,-0.42799073,-0.37489015,93.0
164,-1.3451216,0.6907921,-0.38454437,-0.5851685,-0.29630128,-0.26656494,93.0
165,-1.0967517,0.5298538,-0.52021027,-0.5851685,-0.29630128,-0.26656494,93.0
166,-1.0967517,0.5298538,-0.52021027,-0.37701416,-0.17416993,-0.2177124,93.0
167,-0.72437406,0.23292923,-0.6596031,-0.37701416,-0.17416993,-0.2177124,93.0
168,-0.72437406,0.23292923,-0.6596031,-0.12319336,-0.016992187,-0.12531738,93.0
169,-0.46579075,0.25289917,-0.8177948,-0.12319336,-0.016992187,-0.12531738,93.0
170,-0.46579075,0.25289917,-0.8177948,-0.039294433,0.1274414,0.010620117,93.0
171,-0.407264,0.5024147,-0.8716545,-0.039294433,0.1274414,0.010620117,93.0
172,-0.407264,0.5024147,-0.8716545,-0.08814698,0.23789063,0.1178833,93.0
173,-0.31430006,0.69021606,-0.81095886,-0.08814698,0.23789063,0.1178833,93.0
174,-0.31430006,0.69021606,-0.81095886,-0.1359375,0.3430298,0.16992188,93.0
175,0.04167521,0.7294922,-0.74502945,-0.1359375,0.3430298,0.16992188,93.0
176,0.04167521,0.7294922,-0.74502945,-0.23364258,0.3717041,0.16461182,93.0
177,0.561221,0.5732193,-0.74840546,-0.23364258,0.3717041,0.16461182,93.0
178,0.561221,0.5732193,-0.74840546,-0.29523927,0.38338622,0.11044922,93.0
179,0.8373437,0.3185234,-0.7873955,-0.29523927,0.38338622,0.11044922,93.0
180,0.8373437,0.3185234,-0.7873955,-0.31860352,0.34833986,0.093457036,93.0
181,0.6241598,0.170578,-0.7621689,-0.31860352,0.34833986,0.093457036,93.0
182,0.6241598,0.170578,-0.7621689,-0.29099122,0.24744873,0.1083252,93.0
183,0.15162277,0.17629242,-0.6729698,-0.29099122,0.24744873,0.1083252,93.0
184,0.15162277,0.17629242,-0.6729698,-0.22833252,0.16992188,0.14868164,93.0
185,-0.18778372,0.27147675,-0.6424408,-0.22833252,0.16992188,0.14868164,93.0
186,-0.18778372,0.27147675,-0.6424408,-0.2357666,0.15930176,0.1274414,93.0
187,-0.23251462,0.40198517,-0.6951561,-0.2357666,0.15930176,0.1274414,93.0
188,-0.23251462,0.40198517,-0.6951561,-0.41206056,0.19328614,0.10513916,93.0
189,-0.07265711,0.3607483,-0.79006195,-0.41206056,0.19328614,0.10513916,93.0
190,-0.07265711,0.3607483,-0.79006195,-0.48533937,0.1985962,0.04991455,93.0
191,0.13339043,0.094005585,-0.8143387,-0.48533937,0.1985962,0.04991455,93.0
192,0.13339043,0.094005585,-0.8143387,-0.37595215,0.19116211,-0.019116212,93.0
193,0.25219584,-0.09906006,-0.7397766,-0.37595215,0.19116211,-0.019116212,93.0
194,0.25219584,-0.09906006,-0.7397766,-0.33240968,0.16461182,-0.053100586,93.0
195,0.2029531,-0.11948395,-0.67193604,-0.33240968,0.16461182,-0.053100586,93.0
196,0.2029531,-0.11948395,-0.67193604,-0.35895997,0.124255374,-0.07540283,93.0
197,0.071383476,-0.20883179,-0.5889168,-0.35895997,0.124255374,-0.07540283,93.0
198,0.071383476,-0.20883179,-0.5889168,-0.3334717,0.098767094,-0.078588866,93.0
199,0.032887936,-0.3796997,-0.38687897,-0.3334717,0.098767094,-0.078588866,93.0
200,0.032887936,-0.3796997,-0.38687897,-0.18903808,0.07965088,-0.12213135,93.0
201,0.04576826,-0.36095047,-0.18709183,-0.18903808,0.07965088,-0.12213135,93.0
202,0.04576826,-0.36095047,-0.18709183,-0.14549561,0.08602295,-0.09133301,93.0
203,-0.043915033,-0.20232391,-0.1466713,-0.14549561,0.08602295,-0.09133301,93.0
204,-0.043915033,-0.20232391,-0.1466713,-0.29099122,-0.0063720704,-0.07540283,93.0
205,-0.20911884,-0.14883423,-0.1622734,-0.29099122,-0.0063720704,-0.07540283,93.0
206,-0.20911884,-0.14883423,-0.1622734,-0.43117675,-0.10089111,-0.06265869,93.0
207,-0.35610127,-0.13587952,-0.11672211,-0.43117675,-0.10089111,-0.06265869,93.0
208,-0.35610127,-0.13587952,-0.11672211,-0.4970215,-0.26550293,-0.0722168,93.0
209,-0.3781426,-0.1027832,-0.010307312,-0.4970215,-0.26550293,-0.0722168,93.0
210,-0.3781426,-0.1027832,-0.010307312,-0.50445557,-0.3993164,-0.11469727,93.0
211,-0.33955026,0.004673004,0.077373505,-0.50445557,-0.3993164,-0.11469727,93.0
212,-0.33955026,0.004673004,0.077373505,-0.5787964,-0.45029297,-0.17629395,93.0
213,-0.37277555,0.23583221,0.096443176,-0.5787964,-0.45029297,-0.17629395,93.0
214,-0.37277555,0.23583221,0.096443176,-0.74871826,-0.50445557,-0.16992188,93.0
215,-0.3372463,0.37924194,0.017024994,-0.74871826,-0.50445557,-0.16992188,93.0
216,-0.3372463,0.37924194,0.017024994,-0.8591675,-0.50445557,-0.1539917,93.0
217,-0.17920864,0.25545883,-0.12888336,-0.8591675,-0.50445557,-0.1539917,93.0
218,-0.17920864,0.25545883,-0.12888336,-0.8262451,-0.50445557,-0.18160401,93.0
219,-0.02823019,0.0856781,-0.18383026,-0.8262451,-0.50445557,-0.18160401,93.0
220,-0.02823019,0.0856781,-0.18383026,-0.8506714,-0.54375,-0.2548828,93.0
221,0.020433426,0.1854248,-0.12829971,-0.8506714,-0.54375,-0.2548828,93.0
222,0.020433426,0.1854248,-0.12829971,-1.09281,-0.6149048,-0.2824951,93.0
223,-0.010069251,0.57292175,-0.073574066,-1.09281,-0.6149048,-0.2824951,93.0
224,-0.010069251,0.57292175,-0.073574066,-1.7342652,-0.6690674,-0.26975098,93.0
225,-0.030870438,0.9421387,-0.05423355,-1.7342652,-0.6690674,-0.26975098,93.0
226,-0.030870438,0.9421387,-0.05423355,-2.5902467,-0.6680054,-0.2814331,93.0
227,-0.13596344,0.67089844,-0.010257721,-2.5902467,-0.6680054,-0.2814331,93.0
228,-0.13596344,0.67089844,-0.010257721,-2.7697265,-0.77739257,-0.39400634,93.0
229,-0.13596344,0.67089844,-0.010257721,-2.7697265,-0.77739257,-0.39400634,93.0
230,-0.43270874,-0.6187515,0.026424408,-2.7697265,-0.77739257,-0.39400634,93.0
231,-0.43270874,-0.6187515,0.026424408,-1.445398,-1.0949341,-0.5246338,93.0
232,-0.6644044,-1.8385925,0.12160492,-1.445398,-1.0949341,-0.5246338,93.0
233,-0.6644044,-1.8385925,0.12160492,0.10195313,-1.3200806,-0.9260742,93.0
234,-0.61968267,-1.2761993,0.46237183,0.10195313,-1.3200806,-0.9260742,93.0
235,-0.61968267,-1.2761993,0.46237183,0.57561034,-1.5473511,-1.1512207,93.0
236,-0.40757477,0.71216965,0.87475586,0.57561034,-1.5473511,-1.1512207,93.0
237,-0.40757477,0.71216965,0.87475586,-0.29523927,-1.7448853,-1.0588257,93.0
238,-0.07765889,1.840416,0.8946533,-0.29523927,-1.7448853,-1.0588257,93.0
239,-0.07765889,1.840416,0.8946533,-1.3795532,-1.6928467,-1.0014771,93.0
240,0.3169744,1.2578278,0.66822433,-1.3795532,-1.6928467,-1.0014771,93.0
241,0.3169744,1.2578278,0.66822433,-1.8925049,-1.5675293,-0.9674927,93.0
242,0.5224881,0.1001091,0.70752716,-1.8925049,-1.5675293,-0.9674927,93.0
243,0.5224881,0.1001091,0.70752716,-1.987024,-1.5101807,-0.97280276,93.0
244,0.45358622,-0.76394653,0.9788017,-1.987024,-1.5101807,-0.97280276,93.0
245,0.45358622,-0.76394653,0.9788017,-1.3413209,-1.5112427,-0.98129886,93.0
246,0.3512479,-0.8830452,1.163826,-1.3413209,-1.5112427,-0.98129886,93.0
247,0.3512479,-0.8830452,1.163826,-1.075818,-1.3848633,-0.9303223,93.0
248,0.28844464,-0.13150787,1.0647163,-1.075818,-1.3848633,-0.9303223,93.0
249,0.28844464,-0.13150787,1.0647163,-1.4177856,-1.1990112,-0.83049315,93.0
250,0.30137336,0.7691345,0.8580589,-1.4177856,-1.1990112,-0.83049315,93.0
251,0.30137336,0.7691345,0.8580589,-2.270581,-0.89846194,-0.630835,93.0
252,0.4587989,1.0881348,0.85118103,-2.270581,-0.89846194,-0.630835,93.0
253,0.4587989,1.0881348,0.85118103,-3.2975464,-0.5671143,-0.5363159,93.0
254,0.5602031,0.743824,1.005909,-3.2975464,-0.5671143,-0.5363159,93.0
255,0.5602031,0.743824,1.005909,-4.069629,-0.2527588,-0.48427734,93.0
256,0.42438316,0.03804016,1.1693726,-4.069629,-0.2527588,-0.48427734,93.0
257,0.42438316,0.03804016,1.1693726,-4.370178,-0.03717041,-0.4364868,93.0
258,0.30686498,-0.6847038,1.2584991,-4.370178,-0.03717041,-0.4364868,93.0
259,0.30686498,-0.6847038,1.2584991,-4.218311,0.04885254,-0.37701416,93.0
260,0.61314344,-1.3364716,1.1394882,-4.218311,0.04885254,-0.37701416,93.0
261,0.61314344,-1.3364716,1.1394882,-3.906079,0.087084964,-0.34940186,93.0
262,0.21289015,-1.5231323,1.2024689,-3.906079,0.087084964,-0.34940186,93.0
263,0.21289015,-1.5231323,1.2024689,-3.623584,-0.94731444,-0.30161133,93.0
264,0.7827022,-1.6025009,0.7909813,-3.623584,-0.94731444,-0.30161133,93.0
265,0.7827022,-1.6025009,0.7909813,-3.1361206,0.20284425,0.5363159,93.0
266,1.105825,-1.8020782,0.46845245,-3.1361206,0.20284425,0.5363159,93.0
267,1.105825,-1.8020782,0.46845245,-2.4065187,0.2888672,-0.6616333,93.0
268,-0.6076374,-1.2022476,1.0406799,-2.4065187,0.2888672,-0.6616333,93.0
269,-0.6076374,-1.2022476,1.0406799,-1.7947998,-0.1901001,-0.033984374,93.0
270,-1.2017107,-0.25949097,1.1445694,-1.7947998,-0.1901001,-0.033984374,93.0
271,-1.2017107,-0.25949097,1.1445694,-1.1289185,-0.10301514,-0.0010620117,93.0
272,-0.4852333,0.5006943,0.7540245,-1.1289185,-0.10301514,-0.0010620117,93.0
273,-0.4852333,0.5006943,0.7540245,-1.002539,0.05628662,0.1731079,93.0
274,-0.10447073,1.1816101,0.38674164,-1.002539,0.05628662,0.1731079,93.0
275,-0.10447073,1.1816101,0.38674164,-1.3349488,0.29311523,0.2984253,93.0
276,-0.33706784,1.4381828,0.34776306,-1.3349488,0.29311523,0.2984253,93.0
277,-0.33706784,1.4381828,0.34776306,-1.7470093,0.4885254,0.3462158,93.0
278,-0.8358531,1.0964813,0.79995346,-1.7470093,0.4885254,0.3462158,93.0
279,-0.8358531,1.0964813,0.79995346,-1.9625977,0.5671143,0.29099122,93.0
280,-1.4239315,0.48000336,1.4245338,-1.9625977,0.5671143,0.29099122,93.0
281,-1.4239315,0.48000336,1.4245338,-1.8585205,0.61278075,0.15930176,93.0
282,-2.1750827,0.1115036,1.7375259,-1.8585205,0.61278075,0.15930176,93.0
283,-2.1750827,0.1115036,1.7375259,-1.6843506,0.6085327,0.060534667,93.0
284,-2.8305814,0.05316925,1.6276779,-1.6843506,0.6085327,0.060534667,93.0
285,-2.8305814,0.05316925,1.6276779,-1.5462891,0.5320679,0.022302246,93.0
286,-2.8977537,-0.0043029785,1.3500671,-1.5462891,0.5320679,0.022302246,93.0
287,-2.8977537,-0.0043029785,1.3500671,-1.4114136,0.4609131,0.007434082,93.0
288,-2.2756493,-0.18119049,1.08181,-1.4114136,0.4609131,0.007434082,93.0
289,-2.2756493,-0.18119049,1.08181,-1.26167,0.50020754,-0.02442627,93.0
290,-1.4832636,-0.4086609,0.83999634,-1.26167,0.50020754,-0.02442627,93.0
291,-1.4832636,-0.4086609,0.83999634,-1.2106934,0.6265869,-0.0998291,93.0
292,-0.9611958,-0.6028671,0.679821,-1.2106934,0.6265869,-0.0998291,93.0
293,-0.9611958,-0.6028671,0.679821,-1.268042,0.67650145,-0.23895264,93.0
294,-0.6764518,-0.8573189,0.6344452,-1.268042,0.67650145,-0.23895264,93.0
295,-0.6764518,-0.8573189,0.6344452,-1.3848633,0.68924564,-0.43011475,93.0
296,-0.4124384,-1.2260895,0.7126465,-1.3848633,0.68924564,-0.43011475,93.0
297,-0.4124384,-1.2260895,0.7126465,-1.3328247,0.5798584,-0.5734863,93.0
298,-0.13212359,-1.5829926,0.92004395,-1.3328247,0.5798584,-0.5734863,93.0
299,-0.13212359,-1.5829926,0.92004395,-1.1501588,0.39613038,-0.7104859,93.0
300,0.100343704,-1.7669067,1.2197495,-1.1501588,0.39613038,-0.7104859,93.0
301,0.100343704,-1.7669067,1.2197495,-0.8867798,0.1731079,-0.8251831,93.0
302,0.32447672,-1.7310028,1.4677544,-0.8867798,0.1731079,-0.8251831,93.0
303,0.32447672,-1.7310028,1.4677544,-0.56817627,-0.10620117,-0.8963379,93.0
304,0.66971326,-1.5698471,1.4869232,-0.56817627,-0.10620117,-0.8963379,93.0
305,0.66971326,-1.5698471,1.4869232,-0.3727661,-0.26975098,-0.9515625,93.0
306,1.0086588,-1.3614731,1.1794815,-0.3727661,-0.26975098,-0.9515625,93.0
307,1.0086588,-1.3614731,1.1794815,-0.47365722,-0.22727051,-0.92713624,93.0
308,1.0674495,-1.1107254,0.58994675,-0.47365722,-0.22727051,-0.92713624,93.0
309,1.0674495,-1.1107254,0.58994675,-0.8400513,-0.04141846,-0.7880127,93.0
310,1.1210861,-0.9253845,-0.106349945,-0.8400513,-0.04141846,-0.7880127,93.0
311,1.1210861,-0.9253845,-0.106349945,-1.2499878,-0.025488282,-0.61278075,93.0
312,2.1465392,-1.0977936,-0.61276627,-1.2499878,-0.025488282,-0.61278075,93.0
313,2.1465392,-1.0977936,-0.61276627,-1.442212,0.04460449,-0.5872925,93.0
314,3.7891188,-1.7349625,-0.6542511,-1.442212,0.04460449,-0.5872925,93.0
315,3.7891188,-1.7349625,-0.6542511,-1.3200806,0.26975098,-0.37382814,93.0
316,3.8925133,-2.3904572,-0.13146973,-1.3200806,0.26975098,-0.37382814,93.0
317,3.8925133,-2.3904572,-0.13146973,-1.2106934,0.41312256,-0.4609131,93.0
318,1.6284516,-2.5096817,0.58044434,-1.2106934,0.41312256,-0.4609131,93.0
319,1.6284516,-2.5096817,0.58044434,-0.82730716,0.2081543,-0.39082032,93.0
320,-1.2486547,-1.8675613,1.006031,-0.82730716,0.2081543,-0.39082032,93.0
321,-1.2486547,-1.8675613,1.006031,-0.10089111,-0.11151123,-0.115759276,93.0
322,-2.730772,-0.8220749,1.025734,-0.10089111,-0.11151123,-0.115759276,93.0
323,-2.730772,-0.8220749,1.025734,0.83474123,-0.5012695,0.18797608,93.0
324,-2.6619613,0.11054993,0.74827194,0.83474123,-0.5012695,0.18797608,93.0
325,-2.6619613,0.11054993,0.74827194,1.4124756,-0.5214478,0.43011475,93.0
326,-1.8748693,0.8360138,0.21636581,1.4124756,-0.5214478,0.43011475,93.0
327,-1.8748693,0.8360138,0.21636581,1.807544,-0.58198243,0.724292,93.0
328,-1.1187553,1.452919,-0.54670715,1.807544,-0.58198243,0.724292,93.0
329,-1.1187553,1.452919,-0.54670715,1.5579712,-0.22514649,0.9366943,93.0
330,-0.699997,1.9571838,-1.1914558,1.5579712,-0.22514649,0.9366943,93.0
331,-0.699997,1.9571838,-1.1914558,1.1193603,0.059472658,1.081128,93.0
332,-0.5511475,2.0589828,-1.3426781,1.1193603,0.059472658,1.081128,93.0
333,-0.5511475,2.0589828,-1.3426781,0.7965088,0.3695801,1.1565307,93.0
334,-0.69796145,1.7674866,-1.0331383,0.7965088,0.3695801,1.1565307,93.0
335,-0.69796145,1.7674866,-1.0331383,0.6403931,0.631897,1.1650269,93.0
336,-1.1457837,1.4474335,-0.5856552,0.6403931,0.631897,1.1650269,93.0
337,-1.1457837,1.4474335,-0.5856552,0.6701294,0.70305175,1.2160034,93.0
338,-1.5106332,1.2803192,-0.36413193,0.6701294,0.70305175,1.2160034,93.0
339,-1.5106332,1.2803192,-0.36413193,0.74447024,0.5851685,1.2510499,93.0
340,-1.4234359,1.2156754,-0.46224976,0.74447024,0.5851685,1.2510499,93.0
341,-1.4234359,1.2156754,-0.46224976,0.77102053,0.5065796,1.2149414,93.0
342,-0.9306679,1.1488724,-0.70414734,0.77102053,0.5065796,1.2149414,93.0
343,-0.9306679,1.1488724,-0.70414734,0.77102053,0.5065796,1.2149414,93.0
344,-0.9306679,1.1488724,-0.70414734,0.8007569,0.45666504,1.088562,93.0
345,-0.28863835,1.0002365,-0.8967514,0.8007569,0.45666504,1.088562,93.0
346,-0.28863835,1.0002365,-0.8967514,0.79119873,0.3695801,0.9388184,93.0
347,0.43981695,0.714653,-1.0028267,0.79119873,0.3695801,0.9388184,93.0
348,0.43981695,0.714653,-1.0028267,0.8750977,0.27293703,0.7306641,93.0
349,1.1371319,0.3342209,-1.0174103,0.8750977,0.27293703,0.7306641,93.0
350,1.1371319,0.3342209,-1.0174103,1.0195312,0.23364258,0.49489745,93.0
351,1.5459117,0.06404114,-0.89434814,1.0195312,0.23364258,0.49489745,93.0
352,1.5459117,0.06404114,-0.89434814,1.1883911,0.11363526,0.24001466,93.0
353,1.7502426,0.030700684,-0.73685455,1.1883911,0.11363526,0.24001466,93.0
354,1.7502426,0.030700684,-0.73685455,1.2340577,-0.10195313,-0.007434082,93.0
355,2.1157336,0.09629059,-0.7209549,1.2340577,-0.10195313,-0.007434082,93.0
356,2.1157336,0.09629059,-0.7209549,1.0938721,-0.19222413,-0.19753419,93.0
357,2.4374967,0.17905426,-0.8058777,1.0938721,-0.19222413,-0.19753419,93.0
358,2.4374967,0.17905426,-0.8058777,0.83898926,-0.15930176,-0.32072756,93.0
359,2.281406,0.34810638,-0.728405,0.83898926,-0.15930176,-0.32072756,93.0
360,2.281406,0.34810638,-0.728405,0.52038574,-0.1985962,-0.38551027,93.0
361,1.7606962,0.5261307,-0.38570404,0.52038574,-0.1985962,-0.38551027,93.0
362,1.7606962,0.5261307,-0.38570404,0.2538208,-0.24001466,-0.38444826,93.0
363,1.3615843,0.5763016,-0.13241577,0.2538208,-0.24001466,-0.38444826,93.0
364,1.3615843,0.5763016,-0.13241577,-0.007434082,-0.35046387,-0.38444826,93.0
365,1.6212378,0.43953323,-0.35678864,-0.007434082,-0.35046387,-0.38444826,93.0
366,1.6212378,0.43953323,-0.35678864,-0.39506838,-0.26019287,-0.47578126,93.0
367,1.6671805,0.16843796,-0.52973175,-0.39506838,-0.26019287,-0.47578126,93.0
368,1.6671805,0.16843796,-0.52973175,-0.72004396,-0.0031860352,-0.5671143,93.0
369,0.09215498,0.08489609,0.14015579,-0.72004396,-0.0031860352,-0.5671143,93.0
370,0.09215498,0.08489609,0.14015579,-0.63720703,-0.1263794,-0.56605226,93.0
371,-2.0499454,0.21363068,1.1701698,-0.63720703,-0.1263794,-0.56605226,93.0
372,-2.0499454,0.21363068,1.1701698,-0.16673584,-0.5979126,-0.45347902,93.0
373,-2.5079985,0.2809372,1.5800781,-0.16673584,-0.5979126,-0.45347902,93.0
374,-2.5079985,0.2809372,1.5800781,0.5055176,-0.98873293,-0.19434814,93.0
375,-1.0338401,0.3794136,1.115612,0.5055176,-0.98873293,-0.19434814,93.0
376,-1.0338401,0.3794136,1.115612,0.8517334,-0.9781128,-0.045666505,93.0
377,0.755008,0.7050934,0.07121277,0.8517334,-0.9781128,-0.045666505,93.0
378,0.755008,0.7050934,0.07121277,0.634021,-0.61278075,-0.012744141,93.0
379,1.4348168,1.1153564,-0.93679047,0.634021,-0.61278075,-0.012744141,93.0
380,1.4348168,1.1153564,-0.93679047,-0.13275146,0.027612304,0.016992187,93.0
381,0.7035297,1.3547134,-1.0707092,-0.13275146,0.027612304,0.016992187,93.0
382,0.7035297,1.3547134,-1.0707092,-0.991919,0.59472656,0.08602295,93.0
383,-0.8471128,1.1693192,-0.21606445,-0.991919,0.59472656,0.08602295,93.0
384,-0.8471128,1.1693192,-0.21606445,-1.450708,0.83898926,0.087084964,93.0
385,-2.3116503,0.5966835,0.74025726,-1.450708,0.83898926,0.087084964,93.0
386,-2.3116503,0.5966835,0.74025726,-1.5165528,0.8358032,0.070092775,93.0
387,-3.0463052,0.0135269165,1.0713425,-1.5165528,0.8358032,0.070092775,93.0
388,-3.0463052,0.0135269165,1.0713425,-1.3466309,0.7476563,-0.0031860352,93.0
389,-2.9681964,-0.4090042,0.87442017,-1.3466309,0.7476563,-0.0031860352,93.0
390,-2.9681964,-0.4090042,0.87442017,-1.1629028,0.66481936,-0.11682129,93.0
391,-2.470285,-0.6748848,0.5965576,-1.1629028,0.66481936,-0.11682129,93.0
392,-2.470285,-0.6748848,0.5965576,-0.9855469,0.60109866,-0.22514649,93.0
393,-1.9584544,-0.76960754,0.47440338,-0.9855469,0.60109866,-0.22514649,93.0
394,-1.9584544,-0.76960754,0.47440338,-0.81668705,0.55755615,-0.32178956,93.0
395,-1.5833163,-0.74816895,0.4935379,-0.81668705,0.55755615,-0.32178956,93.0
396,-1.5833163,-0.74816895,0.4935379,-0.6467652,0.45878908,-0.37701416,93.0
397,-1.227078,-0.7254791,0.5251007,-0.6467652,0.45878908,-0.37701416,93.0
398,-1.227078,-0.7254791,0.5251007,-0.5299439,0.35895997,-0.4364868,93.0
399,-0.8311863,-0.80914307,0.47311783,-0.5299439,0.35895997,-0.4364868,93.0
400,-0.8311863,-0.80914307,0.47311783,-0.45347902,0.26125488,-0.48533937,93.0
401,-0.4201858,-0.97278976,0.42774963,-0.45347902,0.26125488,-0.48533937,93.0
402,-0.4201858,-0.97278976,0.42774963,-0.39188233,0.10938721,-0.55968016,93.0
403,0.008651257,-1.1779022,0.5138054,-0.39188233,0.10938721,-0.55968016,93.0
404,0.008651257,-1.1779022,0.5138054,-0.26337892,-0.03079834,-0.64995116,93.0
405,0.35212374,-1.3200836,0.6863022,-0.26337892,-0.03079834,-0.64995116,93.0
406,0.35212374,-1.3200836,0.6863022,-0.070092775,-0.1996582,-0.7168579,93.0
407,0.6975558,-1.3469086,0.73547745,-0.070092775,-0.1996582,-0.7168579,93.0
408,0.6975558,-1.3469086,0.73547745,0.07327881,-0.37807617,-0.7582764,93.0
409,1.1843996,-1.3138199,0.575367,0.07327881,-0.37807617,-0.7582764,93.0
410,1.1843996,-1.3138199,0.575367,0.0541626,-0.38232422,-0.7688965,93.0
411,1.5121315,-1.162178,0.3575096,0.0541626,-0.38232422,-0.7688965,93.0
412,1.5121315,-1.162178,0.3575096,-0.12956543,-0.28461915,-0.6796875,93.0
413,1.466004,-0.8585434,0.1753273,-0.12956543,-0.28461915,-0.6796875,93.0
414,1.466004,-0.8585434,0.1753273,-0.452417,-0.25913087,-0.5384399,93.0
415,1.8839971,-0.7198639,-0.01033783,-0.452417,-0.25913087,-0.5384399,93.0
416,1.8839971,-0.7198639,-0.01033783,-0.7720825,-0.46409914,-0.4598511,93.0
417,3.3346636,-1.1717148,-0.02716446,-0.7720825,-0.46409914,-0.4598511,93.0
418,3.3346636,-1.1717148,-0.02716446,-0.97386473,-0.28568116,-0.4163086,93.0
419,3.8084657,-1.976654,0.2668152,-0.97386473,-0.28568116,-0.4163086,93.0
420,3.8084657,-1.976654,0.2668152,-0.89846194,0.08496094,-0.33771974,93.0
421,1.5982741,-2.210289,0.52308273,-0.89846194,0.08496094,-0.33771974,93.0
422,1.5982741,-2.210289,0.52308273,-0.4258667,-0.0637207,-0.20284425,93.0
423,-1.1455019,-1.5053864,0.50871277,-0.4258667,-0.0637207,-0.20284425,93.0
424,-1.1455019,-1.5053864,0.50871277,0.42055663,-0.57242435,0.17629395,93.0
425,-1.9976515,-0.3499298,0.39978027,0.42055663,-0.57242435,0.17629395,93.0
426,-1.9976515,-0.3499298,0.39978027,1.1873292,-0.7582764,0.37595215,93.0
427,-1.4749522,0.6791611,0.2962761,1.1873292,-0.7582764,0.37595215,93.0
428,-1.4749522,0.6791611,0.2962761,1.5600952,-0.7720825,0.49489745,93.0
429,-0.93206143,1.3286896,0.06066513,1.5600952,-0.7720825,0.49489745,93.0
430,-0.93206143,1.3286896,0.06066513,1.4655762,-0.61915284,0.47471926,93.0
431,-0.8659494,1.6127701,-0.38690567,1.4655762,-0.61915284,0.47471926,93.0
432,-0.8659494,1.6127701,-0.38690567,1.0375855,-0.31966552,0.4609131,93.0
433,-0.8659494,1.6127701,-0.38690567,1.0375855,-0.31966552,0.4609131,93.0
434,-1.2459822,1.6392517,-0.84413147,1.0375855,-0.31966552,0.4609131,93.0
435,-1.2459822,1.6392517,-0.84413147,0.7317261,-0.11469727,0.5479981,93.0
436,-1.6119958,1.4403534,-1.0319939,0.7317261,-0.11469727,0.5479981,93.0
437,-1.6119958,1.4403534,-1.0319939,0.724292,-0.026550293,0.5787964,93.0
438,-1.5546358,1.1035843,-0.9220314,0.724292,-0.026550293,0.5787964,93.0
439,-1.5546358,1.1035843,-0.9220314,0.98236084,-0.014868164,0.6138428,93.0
440,-1.170735,0.86577606,-0.77401733,0.98236084,-0.014868164,0.6138428,93.0
441,-1.170735,0.86577606,-0.77401733,1.3137085,0.0021240234,0.631897,93.0
442,-0.7991369,0.903389,-0.8302269,1.3137085,0.0021240234,0.631897,93.0
443,-0.7991369,0.903389,-0.8302269,1.4029175,0.032922365,0.63933104,93.0
444,-0.5287504,1.0882874,-1.0631447,1.4029175,0.032922365,0.63933104,93.0
445,-0.5287504,1.0882874,-1.0631447,1.263794,0.08071289,0.6531372,93.0
446,-0.18047094,1.154419,-1.2788696,1.263794,0.08071289,0.6531372,93.0
447,-0.18047094,1.154419,-1.2788696,1.080066,0.1274414,0.6435791,93.0
448,0.274361,1.017189,-1.3285637,1.080066,0.1274414,0.6435791,93.0
449,0.274361,1.017189,-1.3285637,0.998291,0.1539917,0.58304447,93.0
450,0.7409121,0.7433243,-1.1941986,0.998291,0.1539917,0.58304447,93.0
451,0.7409121,0.7433243,-1.1941986,0.996167,0.1178833,0.49383545,93.0
452,1.2108572,0.4487152,-1.0082512,0.996167,0.1178833,0.49383545,93.0
453,1.2108572,0.4487152,-1.0082512,1.0418335,0.032922365,0.35152587,93.0
454,1.7917448,0.176857,-0.92655945,1.0418335,0.032922365,0.35152587,93.0
455,1.7917448,0.176857,-0.92655945,1.0386475,-0.013806152,0.18479005,93.0
456,2.3751073,-0.002090454,-0.9751587,1.0386475,-0.013806152,0.18479005,93.0
457,2.3751073,-0.002090454,-0.9751587,0.93350834,0.032922365,0.0010620117,93.0
458,2.6349003,0.008628845,-1.0360222,0.93350834,0.032922365,0.0010620117,93.0
459,2.6349003,0.008628845,-1.0360222,0.6775635,0.11469727,-0.095581055,93.0
460,2.3630474,0.19370651,-0.94664,0.6775635,0.11469727,-0.095581055,93.0
461,2.3630474,0.19370651,-0.94664,0.2516968,0.20284425,-0.090270996,93.0
462,1.7303793,0.4704666,-0.6601181,0.2516968,0.20284425,-0.090270996,93.0
463,1.7303793,0.4704666,-0.6601181,-0.13381349,0.16673584,-0.0063720704,93.0
464,1.6454852,0.5965271,-0.41034698,-0.13381349,0.16673584,-0.0063720704,93.0
465,1.6454852,0.5965271,-0.41034698,-0.51082766,0.007434082,0.0180542,93.0
466,2.0823307,0.24153137,-0.26891327,-0.51082766,0.007434082,0.0180542,93.0
467,2.0823307,0.24153137,-0.26891327,-0.7858887,0.14868164,-0.06903076,93.0
468,1.4278274,-0.23167801,0.1388588,-0.7858887,0.14868164,-0.06903076,93.0
469,1.4278274,-0.23167801,0.1388588,-0.5628662,0.012744141,-0.14761963,93.0
470,-0.24669075,-0.23014069,0.7908821,-0.5628662,0.012744141,-0.14761963,93.0
471,-0.24669075,-0.23014069,0.7908821,-0.046728518,-0.31435546,-0.13487549,93.0
472,-1.0709,0.19216919,1.1454124,-0.046728518,-0.31435546,-0.13487549,93.0
473,-1.0709,0.19216919,1.1454124,0.452417,-0.5703003,0.0722168,93.0
474,-0.5108948,0.7453003,0.89514923,0.452417,-0.5703003,0.0722168,93.0
475,-0.5108948,0.7453003,0.89514923,0.65632325,-0.47578126,0.2814331,93.0
476,0.28453374,1.3221207,0.1452446,0.65632325,-0.47578126,0.2814331,93.0
477,0.28453374,1.3221207,0.1452446,0.25594482,-0.09239502,0.41737062,93.0
478,0.45278573,1.5970039,-0.5765419,0.25594482,-0.09239502,0.41737062,93.0
479,0.45278573,1.5970039,-0.5765419,-0.41949463,0.33665773,0.51932377,93.0
480,0.17449665,1.3062401,-0.565361,-0.41949463,0.33665773,0.51932377,93.0
481,0.17449665,1.3062401,-0.565361,-0.88040775,0.60216063,0.5320679,93.0
482,-0.40829086,0.71536255,0.19332886,-0.88040775,0.60216063,0.5320679,93.0
483,-0.40829086,0.71536255,0.19332886,-1.0864381,0.8485474,0.47471926,93.0
484,-1.479367,0.29810715,0.9180412,-1.0864381,0.8485474,0.47471926,93.0
485,-1.479367,0.29810715,0.9180412,-1.075818,0.86766356,0.4715332,93.0
486,-2.635752,0.28538513,1.0833359,-1.075818,0.86766356,0.4715332,93.0
487,-2.635752,0.28538513,1.0833359,-0.97280276,0.7476563,0.42055663,93.0
488,-3.1380084,0.45593262,0.8917389,-0.97280276,0.7476563,0.42055663,93.0
489,-3.1380084,0.45593262,0.8917389,-0.86978763,0.5936646,0.32709962,93.0
490,-2.8393495,0.40349197,0.72581863,-0.86978763,0.5936646,0.32709962,93.0
491,-2.8393495,0.40349197,0.72581863,-0.73597413,0.48746338,0.1985962,93.0
492,-2.1789382,0.042778015,0.6886978,-0.73597413,0.48746338,0.1985962,93.0
493,-2.1789382,0.042778015,0.6886978,-0.5533081,0.42799073,0.052038576,93.0
494,-1.6346056,-0.3633728,0.6303406,-0.5533081,0.42799073,0.052038576,93.0
495,-1.6346056,-0.3633728,0.6303406,-0.3695801,0.37701416,-0.08283692,93.0
496,-1.3225405,-0.46842194,0.5317993,-0.3695801,0.37701416,-0.08283692,93.0
497,-1.3225405,-0.46842194,0.5317993,-0.2824951,0.33665773,-0.14230958,93.0
498,-0.9765992,-0.6723709,0.50325775,-0.2824951,0.33665773,-0.14230958,93.0
499,-0.9765992,-0.6723709,0.50325775,-0.11044922,0.15717773,-0.31435546,93.0
500,-0.6915822,-0.63134,0.5116501,-0.11044922,0.15717773,-0.31435546,93.0
501,-0.6915822,-0.63134,0.5116501,-0.093457036,0.09664307,-0.3706421,93.0
502,0.12889981,-0.8347473,0.75465393,-0.093457036,0.09664307,-0.3706421,93.0
503,0.12889981,-0.8347473,0.75465393,-0.14655761,-0.03079834,-0.5703003,93.0
504,0.32425022,-0.81497574,0.6647568,-0.14655761,-0.03079834,-0.5703003,93.0
505,0.32425022,-0.81497574,0.6647568,-0.20284425,-0.060534667,-0.63826907,93.0
506,1.0531014,-1.0629196,0.43045044,-0.20284425,-0.060534667,-0.63826907,93.0
507,1.0531014,-1.0629196,0.43045044,-0.51932377,-0.043542482,-0.8251831,93.0
508,0.9920783,-1.0432549,0.3501587,-0.51932377,-0.043542482,-0.8251831,93.0
509,0.9920783,-1.0432549,0.3501587,-0.63933104,-0.039294433,-0.8623535,93.0
510,1.1832012,-1.2797966,0.32523346,-0.63933104,-0.039294433,-0.8623535,93.0
511,1.1832012,-1.2797966,0.32523346,-0.9526245,0.021240234,-0.83686525,93.0
512,0.89443696,-1.2246437,0.39050674,-0.9526245,0.021240234,-0.83686525,93.0
513,0.89443696,-1.2246437,0.39050674,-1.0545777,0.03079834,-0.7986328,93.0
514,1.4213114,-1.414154,0.049980164,-1.0545777,0.03079834,-0.7986328,93.0
515,1.4213114,-1.414154,0.049980164,-1.4050416,-0.22939454,-0.7391602,93.0
516,1.9019417,-1.567276,-0.04120636,-1.4050416,-0.22939454,-0.7391602,93.0
517,1.9019417,-1.567276,-0.04120636,-1.4889405,-0.19541016,-0.7858887,93.0
518,4.0887165,-2.885498,-0.16952515,-1.4889405,-0.19541016,-0.7858887,93.0
519,4.0887165,-2.885498,-0.16952515,-1.4305298,0.2347046,-0.8782837,93.0
520,3.1149795,-2.9229965,0.11138916,-1.4305298,0.2347046,-0.8782837,93.0
521,3.1149795,-2.9229965,0.11138916,-1.2945923,0.25806886,-0.9494385,93.0
522,-0.1041224,-2.6690292,0.6212158,-1.2945923,0.25806886,-0.9494385,93.0
523,-0.1041224,-2.6690292,0.6212158,-0.41206056,-0.4694092,-0.3971924,93.0
524,-0.69219685,-1.8912506,0.64793396,-0.41206056,-0.4694092,-0.3971924,93.0
525,-0.69219685,-1.8912506,0.64793396,0.083898924,-0.6414551,-0.21346436,93.0
526,-0.9225197,-0.786232,0.7277565,0.083898924,-0.6414551,-0.21346436,93.0
527,-0.9225197,-0.786232,0.7277565,0.7805786,-0.81243896,-0.038232423,93.0
528,-0.89187324,0.12071991,0.65066147,0.7805786,-0.81243896,-0.038232423,93.0
529,-0.89187324,0.12071991,0.65066147,1.0673218,-0.98129886,0.12531738,93.0
530,-1.1560158,0.5991516,0.36055756,1.0673218,-0.98129886,0.12531738,93.0
531,-1.1560158,0.5991516,0.36055756,1.0418335,-0.83898926,0.22089843,93.0
532,-1.6066241,0.8255234,-0.028987885,1.0418335,-0.83898926,0.22089843,93.0
533,-1.6066241,0.8255234,-0.028987885,1.0184692,-0.6085327,0.28355715,93.0
534,-1.6066241,0.8255234,-0.028987885,1.0184692,-0.6085327,0.28355715,93.0
535,-2.6709929,1.3832474,-0.37343216,1.0184692,-0.6085327,0.28355715,93.0
536,-2.6709929,1.3832474,-0.37343216,0.9685547,-0.45560303,0.48640138,93.0
537,-2.4303367,1.4427338,-0.4128685,0.9685547,-0.45560303,0.48640138,93.0
538,-2.4303367,1.4427338,-0.4128685,0.9876709,-0.4428589,0.5320679,93.0
539,-2.2855535,1.536766,-0.3554306,0.9876709,-0.4428589,0.5320679,93.0
540,-2.2855535,1.536766,-0.3554306,1.2850342,-0.3536499,0.6117188,93.0
541,-1.6714482,1.3553925,-0.4565735,1.2850342,-0.3536499,0.6117188,93.0
542,-1.6714482,1.3553925,-0.4565735,1.3986695,-0.30267334,0.61915284,93.0
543,-1.0254154,1.236557,-0.6959114,1.3986695,-0.30267334,0.61915284,93.0
544,-1.0254154,1.236557,-0.6959114,1.5346069,-0.19647217,0.6223389,93.0
545,-0.4726274,1.2359848,-1.0240746,1.5346069,-0.19647217,0.6223389,93.0
546,-0.4726274,1.2359848,-1.0240746,1.536731,-0.10195313,0.6138428,93.0
547,0.032066584,1.2279892,-1.2779274,1.536731,-0.10195313,0.6138428,93.0
548,0.032066584,1.2279892,-1.2779274,1.4772583,-0.0361084,0.5787964,93.0
549,0.6017885,1.1327972,-1.3776627,1.4772583,-0.0361084,0.5787964,93.0
550,0.6017885,1.1327972,-1.3776627,1.4326538,-0.0031860352,0.52888185,93.0
551,1.3123757,0.9495926,-1.3647995,1.4326538,-0.0031860352,0.52888185,93.0
552,1.3123757,0.9495926,-1.3647995,1.3487549,0.04885254,0.45135498,93.0
553,2.0389142,0.7378082,-1.313652,1.3487549,0.04885254,0.45135498,93.0
554,2.0389142,0.7378082,-1.313652,1.1979493,0.095581055,0.31116945,93.0
555,2.6908484,0.48246002,-1.2761536,1.1979493,0.095581055,0.31116945,93.0
556,2.6908484,0.48246002,-1.2761536,0.9547486,0.1444336,0.12956543,93.0
557,3.1814506,0.16260529,-1.2455902,0.9547486,0.1444336,0.12956543,93.0
558,3.1814506,0.16260529,-1.2455902,0.65419924,0.25063476,-0.046728518,93.0
559,3.2130194,-0.05613327,-1.1802025,0.65419924,0.25063476,-0.046728518,93.0
560,3.2130194,-0.05613327,-1.1802025,0.33240968,0.33028564,-0.15505372,93.0
561,2.677984,-0.03887558,-0.98952484,0.33240968,0.33028564,-0.15505372,93.0
562,2.677984,-0.03887558,-0.98952484,0.0,0.2814331,-0.15611573,93.0
563,1.8340497,0.16712952,-0.6646576,0.0,0.2814331,-0.15611573,93.0
564,1.8340497,0.16712952,-0.6646576,-0.23789063,0.18372802,-0.13806152,93.0
565,1.0433261,0.35803223,-0.30138016,-0.23789063,0.18372802,-0.13806152,93.0
566,1.0433261,0.35803223,-0.30138016,-0.38657227,0.027612304,-0.14868164,93.0
567,0.70537615,0.39188385,-0.18199539,-0.38657227,0.027612304,-0.14868164,93.0
568,0.70537615,0.39188385,-0.18199539,-0.541626,-0.03079834,-0.18903808,93.0
569,0.35968685,0.25359344,-0.14507294,-0.541626,-0.03079834,-0.18903808,93.0
570,0.35968685,0.25359344,-0.14507294,-0.6818115,0.03079834,-0.26868898,93.0
571,-0.63617635,0.1540947,0.15502548,-0.6818115,0.03079834,-0.26868898,93.0
572,-0.63617635,0.1540947,0.15502548,-0.5320679,-0.0541626,-0.19116211,93.0
573,-1.5781796,0.2193222,0.574276,-0.5320679,-0.0541626,-0.19116211,93.0
574,-1.5781796,0.2193222,0.574276,-0.09770508,-0.28355715,-0.04885254,93.0
575,-1.4412912,0.48342896,0.78596115,-0.09770508,-0.28355715,-0.04885254,93.0
576,-1.4412912,0.48342896,0.78596115,0.30267334,-0.48215333,0.16567384,93.0
577,-0.24468327,0.8446541,0.65205765,0.30267334,-0.48215333,0.16567384,93.0
578,-0.24468327,0.8446541,0.65205765,0.362146,-0.39082032,0.26337892,93.0
579,0.8714287,1.1666298,0.14458466,0.362146,-0.39082032,0.26337892,93.0
580,0.8714287,1.1666298,0.14458466,-0.15930176,0.058410645,0.26019287,93.0
581,0.7415767,1.2476196,-0.35741425,-0.15930176,0.058410645,0.26019287,93.0
582,0.7415767,1.2476196,-0.35741425,-0.904834,0.54693604,0.15823975,93.0
583,-0.41713905,0.90382004,-0.29823685,-0.904834,0.54693604,0.15823975,93.0
584,-0.41713905,0.90382004,-0.29823685,-1.2329956,0.7306641,0.10301514,93.0
585,-1.6178055,0.29862976,0.2768135,-1.2329956,0.7306641,0.10301514,93.0
586,-1.6178055,0.29862976,0.2768135,-1.1862671,0.815625,-0.0180542,93.0
587,-2.3839173,-0.15773773,0.76953506,-1.1862671,0.815625,-0.0180542,93.0
588,-2.3839173,-0.15773773,0.76953506,-0.8581055,0.7349121,-0.0637207,93.0
589,-2.6949635,-0.23817825,0.88474274,-0.8581055,0.7349121,-0.0637207,93.0
590,-2.6949635,-0.23817825,0.88474274,-0.5957886,0.6149048,-0.12319336,93.0
591,-2.5879776,-0.117126465,0.78744507,-0.5957886,0.6149048,-0.12319336,93.0
592,-2.5879776,-0.117126465,0.78744507,-0.41737062,0.4991455,-0.16354981,93.0
593,-2.2280116,-0.059497833,0.64045334,-0.41737062,0.4991455,-0.16354981,93.0
594,-2.2280116,-0.059497833,0.64045334,-0.28355715,0.42055663,-0.19434814,93.0
595,-1.7791377,-0.05404663,0.5241394,-0.28355715,0.42055663,-0.19434814,93.0
596,-1.7791377,-0.05404663,0.5241394,-0.23151855,0.36320803,-0.22196046,93.0
597,-1.2654245,-0.11461258,0.51778793,-0.23151855,0.36320803,-0.22196046,93.0
598,-1.2654245,-0.11461258,0.51778793,-0.28568116,0.26975098,-0.23789063,93.0
599,-0.64157546,-0.31560516,0.6159859,-0.28568116,0.26975098,-0.23789063,93.0
600,-0.64157546,-0.31560516,0.6159859,-0.29630128,0.20921631,-0.29523927,93.0
601,-0.020767689,-0.5157318,0.690773,-0.29630128,0.20921631,-0.29523927,93.0
602,-0.020767689,-0.5157318,0.690773,-0.42268068,0.20284425,-0.3440918,93.0
603,0.3349117,-0.62270355,0.6592941,-0.42268068,0.20284425,-0.3440918,93.0
604,0.3349117,-0.62270355,0.6592941,-0.65632325,0.22833252,-0.37807617,93.0
605,0.4192233,-0.7063904,0.5786438,-0.65632325,0.22833252,-0.37807617,93.0
606,0.4192233,-0.7063904,0.5786438,-0.87403566,0.18054199,-0.40144044,93.0
607,0.57585716,-0.89478683,0.58576584,-0.87403566,0.18054199,-0.40144044,93.0
608,0.57585716,-0.89478683,0.58576584,-1.0152832,0.098767094,-0.45666504,93.0
609,0.8605758,-1.1603851,0.74495316,-1.0152832,0.098767094,-0.45666504,93.0
610,0.8605758,-1.1603851,0.74495316,-1.0651978,0.05628662,-0.5543701,93.0
611,0.9552819,-1.3839111,0.9491272,-1.0651978,0.05628662,-0.5543701,93.0
612,0.9552819,-1.3839111,0.9491272,-1.0598878,-0.0053100586,-0.6531372,93.0
613,0.7434736,-1.489708,1.0046272,-1.0598878,-0.0053100586,-0.6531372,93.0
614,0.7434736,-1.489708,1.0046272,-1.0333375,-0.04885254,-0.71791995,93.0
615,0.7342442,-1.5230179,0.74040985,-1.0333375,-0.04885254,-0.71791995,93.0
616,0.7342442,-1.5230179,0.74040985,-1.1214844,-0.2824951,-0.7497803,93.0
617,1.8385673,-1.797287,0.37246704,-1.1214844,-0.2824951,-0.7497803,93.0
618,1.8385673,-1.797287,0.37246704,-1.2563599,-0.40037844,-0.8995239,93.0
619,3.3820965,-2.5032196,0.3807106,-1.2563599,-0.40037844,-0.8995239,93.0
620,3.3820965,-2.5032196,0.3807106,-1.1225464,-0.13168946,-0.991919,93.0
621,2.9276986,-2.976822,0.5854645,-1.1225464,-0.13168946,-0.991919,93.0
622,2.9276986,-2.976822,0.5854645,-0.7476563,0.09133301,-0.8772217,93.0
623,0.5391073,-2.6475677,0.53086853,-0.7476563,0.09133301,-0.8772217,93.0
624,0.5391073,-2.6475677,0.53086853,-0.098767094,-0.32391357,-0.52675784,93.0
625,-0.9713632,-1.6283722,0.3415413,-0.098767094,-0.32391357,-0.52675784,93.0
626,-0.9713632,-1.6283722,0.3415413,0.8846558,-0.68287355,-0.04141846,93.0
627,-0.8385408,-0.288208,0.3554573,0.8846558,-0.68287355,-0.04141846,93.0
628,-0.8385408,-0.288208,0.3554573,1.4071655,-0.7072998,0.24957275,93.0
629,-0.33460212,0.80605316,0.4072647,1.4071655,-0.7072998,0.24957275,93.0
630,-0.33460212,0.80605316,0.4072647,1.4326538,-0.6595093,0.52038574,93.0
631,-0.22869247,1.2584076,0.19386673,1.4326538,-0.6595093,0.52038574,93.0
632,-0.22869247,1.2584076,0.19386673,1.1055542,-0.32603762,0.60109866,93.0
633,-0.8119579,1.2812042,-0.22969437,1.1055542,-0.32603762,0.60109866,93.0
634,-0.8119579,1.2812042,-0.22969437,0.8506714,0.0180542,0.68074954,93.0
635,-1.9120053,1.2944336,-0.6240158,0.8506714,0.0180542,0.68074954,93.0
636,-1.9120053,1.2944336,-0.6240158,0.67437744,0.16036378,0.77314454,93.0
637,-2.747939,1.3853607,-0.8457718,0.67437744,0.16036378,0.77314454,93.0
638,-2.747939,1.3853607,-0.8457718,0.73809814,0.19753419,0.85598147,93.0
639,-2.8120966,1.3316422,-0.92445755,0.73809814,0.19753419,0.85598147,93.0
640,-2.8120966,1.3316422,-0.92445755,1.0227174,0.20178223,0.8581055,93.0
641,-2.8120966,1.3316422,-0.92445755,1.0227174,0.20178223,0.8581055,94.0
642,-2.2832956,1.1598358,-0.95121384,1.0227174,0.20178223,0.8581055,94.0
643,-2.2832956,1.1598358,-0.95121384,1.358313,0.1901001,0.8379273,94.0
644,-1.5702033,1.0582123,-1.0231018,1.358313,0.1901001,0.8379273,94.0
645,-1.5702033,1.0582123,-1.0231018,1.5558472,0.20603028,0.7763306,94.0
646,-0.8327863,1.0772324,-1.2058258,1.5558472,0.20603028,0.7763306,94.0
647,-0.8327863,1.0772324,-1.2058258,1.5877075,0.2177124,0.70942384,94.0
648,-0.13545513,1.1236877,-1.4440536,1.5877075,0.2177124,0.70942384,94.0
649,-0.13545513,1.1236877,-1.4440536,1.4953126,0.3154175,0.6180908,94.0
650,0.38666773,1.140068,-1.5507011,1.4953126,0.3154175,0.6180908,94.0
651,0.38666773,1.140068,-1.5507011,1.2977784,0.42268068,0.5384399,94.0
652,0.70552564,1.058754,-1.4852753,1.2977784,0.42268068,0.5384399,94.0
653,0.70552564,1.058754,-1.4852753,1.0779419,0.42692873,0.45772704,94.0
654,1.0563639,0.801239,-1.3520622,1.0779419,0.42692873,0.45772704,94.0
655,1.0563639,0.801239,-1.3520622,0.8591675,0.36427003,0.32603762,94.0
656,1.6614243,0.3421402,-1.2777939,0.8591675,0.36427003,0.32603762,94.0
657,1.6614243,0.3421402,-1.2777939,0.6988037,0.3164795,0.17523193,94.0
658,2.3665783,-0.13106155,-1.2227364,0.6988037,0.3164795,0.17523193,94.0
659,2.3665783,-0.13106155,-1.2227364,0.6117188,0.29099122,0.016992187,94.0
660,2.7975962,-0.36932373,-1.0636902,0.6117188,0.29099122,0.016992187,94.0
661,2.7975962,-0.36932373,-1.0636902,0.49489745,0.22727051,-0.090270996,94.0
662,2.6989412,-0.3282318,-0.80781555,0.49489745,0.22727051,-0.090270996,94.0
663,2.6989412,-0.3282318,-0.80781555,0.34940186,0.1529297,-0.118945315,94.0
664,1.9639748,0.016151428,-0.45593262,0.34940186,0.1529297,-0.118945315,94.0
665,1.9639748,0.016151428,-0.45593262,0.14124756,0.03079834,-0.07965088,94.0
666,1.0053962,0.55823517,-0.094703674,0.14124756,0.03079834,-0.07965088,94.0
667,1.0053962,0.55823517,-0.094703674,-0.10513916,-0.10513916,-0.045666505,94.0
668,0.72292054,0.93842316,-0.021064758,-0.10513916,-0.10513916,-0.045666505,94.0
669,0.72292054,0.93842316,-0.021064758,-0.4959595,-0.21983643,-0.004248047,94.0
670,1.0474648,0.79774857,-0.23682404,-0.4959595,-0.21983643,-0.004248047,94.0
671,1.0474648,0.79774857,-0.23682404,-0.9430664,-0.026550293,-0.08920898,94.0
672,0.6727985,0.26185608,-0.14474487,-0.9430664,-0.026550293,-0.08920898,94.0
673,0.6727985,0.26185608,-0.14474487,-1.1406006,0.035046387,-0.1274414,94.0
674,-0.69805276,-0.1743393,0.5803337,-1.1406006,0.035046387,-0.1274414,94.0
675,-0.69805276,-0.1743393,0.5803337,-0.7614624,-0.30479738,-0.0998291,94.0
676,-1.6156566,-0.25055695,1.4111443,-0.7614624,-0.30479738,-0.0998291,94.0
677,-1.6156566,-0.25055695,1.4111443,0.03079834,-0.7965088,-0.012744141,94.0
678,-1.1057333,0.048114777,1.7249146,0.03079834,-0.7965088,-0.012744141,94.0
679,-1.1057333,0.048114777,1.7249146,0.6637573,-1.0577637,0.18691407,94.0
680,0.16297197,0.63565826,1.213913,0.6637573,-1.0577637,0.18691407,94.0
681,0.16297197,0.63565826,1.213913,0.57454836,-0.9759888,0.25594482,94.0
682,1.1973941,0.9867363,0.13757324,0.57454836,-0.9759888,0.25594482,94.0
683,1.1973941,0.9867363,0.13757324,-0.13381349,-0.58198243,0.2081543,94.0
684,1.5149221,0.72873306,-0.52178955,-0.13381349,-0.58198243,0.2081543,94.0
685,1.5149221,0.72873306,-0.52178955,-0.7391602,-0.078588866,0.027612304,94.0
686,0.8375726,0.30693817,-0.1912384,-0.7391602,-0.078588866,0.027612304,94.0
687,0.8375726,0.30693817,-0.1912384,-0.98236084,0.29630128,-0.007434082,94.0
688,-0.6991192,0.12545776,0.56145096,-0.98236084,0.29630128,-0.007434082,94.0
689,-0.6991192,0.12545776,0.56145096,-1.0312134,0.44498292,0.007434082,94.0
690,-2.181561,0.07351303,0.98418427,-1.0312134,0.44498292,0.007434082,94.0
691,-2.181561,0.07351303,0.98418427,-0.81031495,0.36002198,0.087084964,94.0
692,-2.7597752,0.07713318,0.9895325,-0.81031495,0.36002198,0.087084964,94.0
693,-2.7597752,0.07713318,0.9895325,-0.54906005,0.26550293,0.043542482,94.0
694,-2.4434526,0.13433838,0.8337021,-0.54906005,0.26550293,0.043542482,94.0
695,-2.4434526,0.13433838,0.8337021,-0.46728516,0.2548828,-0.015930176,94.0
696,-1.8212659,0.19181061,0.6392021,-0.46728516,0.2548828,-0.015930176,94.0
697,-1.8212659,0.19181061,0.6392021,-0.51932377,0.31435546,-0.08920898,94.0
698,-1.3637755,0.21194458,0.44537354,-0.51932377,0.31435546,-0.08920898,94.0
699,-1.3637755,0.21194458,0.44537354,-0.5798584,0.35683593,-0.15505372,94.0
700,-1.0848925,0.10444641,0.3365097,-0.5798584,0.35683593,-0.15505372,94.0
701,-1.0848925,0.10444641,0.3365097,-0.60959476,0.31966552,-0.24851075,94.0
702,-0.80333877,-0.27303314,0.33333206,-0.60959476,0.31966552,-0.24851075,94.0
703,-0.80333877,-0.27303314,0.33333206,-0.54906005,0.2516968,-0.36533204,94.0
704,-0.49173117,-0.76651,0.42840958,-0.54906005,0.2516968,-0.36533204,94.0
705,-0.49173117,-0.76651,0.42840958,-0.40037844,0.14974366,-0.4970215,94.0
706,-0.20832634,-1.0782089,0.5650673,-0.40037844,0.14974366,-0.4970215,94.0
707,-0.20832634,-1.0782089,0.5650673,-0.23364258,-0.0053100586,-0.61278075,94.0
708,0.11421049,-1.1455231,0.63412094,-0.23364258,-0.0053100586,-0.61278075,94.0
709,0.11421049,-1.1455231,0.63412094,-0.095581055,-0.1444336,-0.6977417,94.0
710,0.4956286,-1.1168213,0.54563904,-0.095581055,-0.1444336,-0.6977417,94.0
711,0.4956286,-1.1168213,0.54563904,-0.07115479,-0.17523193,-0.7582764,94.0
712,0.76724267,-1.0654564,0.3504753,-0.07115479,-0.17523193,-0.7582764,94.0
713,0.76724267,-1.0654564,0.3504753,-0.13806152,-0.13912354,-0.7827026,94.0
714,0.8117434,-0.97125244,0.17507172,-0.13806152,-0.13912354,-0.7827026,94.0
715,0.8117434,-0.97125244,0.17507172,-0.29311523,-0.04460449,-0.75721437,94.0
716,0.6927907,-0.85152435,0.05664444,-0.29311523,-0.04460449,-0.75721437,94.0
717,0.6927907,-0.85152435,0.05664444,-0.5734863,0.0637207,-0.6605713,94.0
718,0.73885167,-0.8431549,-0.114780426,-0.5734863,0.0637207,-0.6605713,94.0
719,0.73885167,-0.8431549,-0.114780426,-0.8889038,0.07115479,-0.542688,94.0
720,1.6326096,-1.2005157,-0.3528366,-0.8889038,0.07115479,-0.542688,94.0
721,1.6326096,-1.2005157,-0.3528366,-1.1565307,-0.020178223,-0.53950197,94.0
722,3.3662562,-2.0563812,-0.39295197,-1.1565307,-0.020178223,-0.53950197,94.0
723,3.3662562,-2.0563812,-0.39295197,-1.270166,0.21027832,-0.53100586,94.0
724,3.7235713,-2.8574066,-0.081710815,-1.270166,0.21027832,-0.53100586,94.0
725,3.7235713,-2.8574066,-0.081710815,-0.97280276,0.5479981,-0.48640138,94.0
726,1.0995847,-2.587387,0.32476807,-0.97280276,0.5479981,-0.48640138,94.0
727,1.0995847,-2.587387,0.32476807,-0.35577393,0.21983643,-0.1996582,94.0
728,-1.8122025,-1.2474747,0.5361557,-0.35577393,0.21983643,-0.1996582,94.0
729,-1.8122025,-1.2474747,0.5361557,0.5479981,-0.5331299,0.2262085,94.0
730,-2.3444152,0.10652161,0.5501175,0.5479981,-0.5331299,0.2262085,94.0
731,-2.3444152,0.10652161,0.5501175,1.2181275,-0.80606693,0.3355957,94.0
732,-1.5346632,0.8152237,0.39043427,1.2181275,-0.80606693,0.3355957,94.0
733,-1.5346632,0.8152237,0.39043427,1.5919555,-0.98448485,0.42161867,94.0
734,-0.94901955,0.9039383,0.03451538,1.5919555,-0.98448485,0.42161867,94.0
735,-0.94901955,0.9039383,0.03451538,1.6769165,-0.9143921,0.37489015,94.0
736,-0.85311216,0.8495407,-0.45586014,1.6769165,-0.9143921,0.37489015,94.0
737,-0.85311216,0.8495407,-0.45586014,1.7300171,-0.80394286,0.37382814,94.0
738,-1.0476142,1.0427704,-0.9223938,1.7300171,-0.80394286,0.37382814,94.0
739,-1.0476142,1.0427704,-0.9223938,1.6981567,-0.6531372,0.3982544,94.0
740,-1.2754571,1.4018784,-1.1970444,1.6981567,-0.6531372,0.3982544,94.0
741,-1.2754571,1.4018784,-1.1970444,1.6758546,-0.48321533,0.47471926,94.0
742,-1.403044,1.6021576,-1.2148247,1.6758546,-0.48321533,0.47471926,94.0
743,-1.403044,1.6021576,-1.2148247,1.7650635,-0.4248047,0.51932377,94.0
744,-1.2632189,1.5483246,-1.0904846,1.7650635,-0.4248047,0.51932377,94.0
745,-1.2632189,1.5483246,-1.0904846,1.8394043,-0.36851808,0.55543214,94.0
746,-0.8848915,1.3862915,-1.0415535,1.8394043,-0.36851808,0.55543214,94.0
747,-0.8848915,1.3862915,-1.0415535,1.8638306,-0.29205322,0.5692383,94.0
748,-0.45869446,1.2277603,-1.1864052,1.8638306,-0.29205322,0.5692383,94.0
749,-0.45869446,1.2277603,-1.1864052,1.8022339,-0.1996582,0.5511841,94.0
750,-0.10770261,1.0855637,-1.4710121,1.8022339,-0.1996582,0.5511841,94.0
751,-0.10770261,1.0855637,-1.4710121,1.717273,-0.12000733,0.5171997,94.0
752,0.28461432,0.9090729,-1.7210121,1.717273,-0.12000733,0.5171997,94.0
753,0.28461432,0.9090729,-1.7210121,1.6758546,-0.09664307,0.44073486,94.0
754,0.8455626,0.6776962,-1.8181648,1.6758546,-0.09664307,0.44073486,94.0
755,0.8455626,0.6776962,-1.8181648,1.6992188,-0.05628662,0.32709962,94.0
756,1.4111791,0.4403038,-1.7870178,1.6992188,-0.05628662,0.32709962,94.0
757,1.4111791,0.4403038,-1.7870178,1.6737305,-0.012744141,0.19222413,94.0
758,1.8556767,0.2104721,-1.7852173,1.6737305,-0.012744141,0.19222413,94.0
759,1.8556767,0.2104721,-1.7852173,1.535669,0.014868164,0.047790527,94.0
760,2.264363,0.009502411,-1.8430405,1.535669,0.014868164,0.047790527,94.0
761,2.264363,0.009502411,-1.8430405,1.3222046,0.06265869,-0.06478272,94.0
762,2.549076,-0.09024811,-1.7769966,1.3222046,0.06265869,-0.06478272,94.0
763,2.549076,-0.09024811,-1.7769966,1.3222046,0.06265869,-0.06478272,95.0
764,2.549076,-0.09024811,-1.7769966,1.0397094,0.13699952,-0.10938721,95.0
765,2.3825226,-0.0156059265,-1.4550819,1.0397094,0.13699952,-0.10938721,95.0
766,2.3825226,-0.0156059265,-1.4550819,0.6680054,0.14549561,-0.093457036,95.0
767,1.6740966,0.18253326,-0.96871567,0.6680054,0.14549561,-0.093457036,95.0
768,1.6740966,0.18253326,-0.96871567,0.35895997,0.06159668,-0.04885254,95.0
769,0.77331054,0.4254341,-0.52676773,0.35895997,0.06159668,-0.04885254,95.0
770,0.77331054,0.4254341,-0.52676773,0.18266602,-0.10089111,-0.040356446,95.0
771,0.48100185,0.5329132,-0.3466339,0.18266602,-0.10089111,-0.040356446,95.0
772,0.48100185,0.5329132,-0.3466339,0.053100586,-0.32072756,-0.09664307,95.0
773,0.9963372,0.30145264,-0.47541428,0.053100586,-0.32072756,-0.09664307,95.0
774,0.9963372,0.30145264,-0.47541428,-0.16142578,-0.2782471,-0.14337158,95.0
775,0.7676141,0.06681824,-0.4953308,-0.16142578,-0.2782471,-0.14337158,95.0
776,0.7676141,0.06681824,-0.4953308,-0.31966552,-0.098767094,-0.10938721,95.0
777,-0.95553756,0.24208832,-0.11740875,-0.31966552,-0.098767094,-0.10938721,95.0
778,-0.95553756,0.24208832,-0.11740875,-0.115759276,-0.26975098,0.07115479,95.0
779,-2.1785293,0.61089325,0.36278534,-0.115759276,-0.26975098,0.07115479,95.0
780,-2.1785293,0.61089325,0.36278534,0.43754885,-0.77314454,0.3791382,95.0
781,-1.1919811,0.81213,0.57084274,0.43754885,-0.77314454,0.3791382,95.0
782,-1.1919811,0.81213,0.57084274,0.99510497,-1.0450195,0.6414551,95.0
783,1.0423014,0.9219818,0.27818298,0.99510497,-1.0450195,0.6414551,95.0
784,1.0423014,0.9219818,0.27818298,1.0120972,-0.89208984,0.724292,95.0
785,2.3336701,1.1152573,-0.43879318,1.0120972,-0.89208984,0.724292,95.0
786,2.3336701,1.1152573,-0.43879318,0.3440918,-0.31860352,0.6488892,95.0
787,1.619988,1.3106003,-0.84954834,0.3440918,-0.31860352,0.6488892,95.0
788,1.619988,1.3106003,-0.84954834,-0.41737062,0.11257324,0.48109132,95.0
789,-0.20485187,1.2086601,-0.36245346,-0.41737062,0.11257324,0.48109132,95.0
790,-0.20485187,1.2086601,-0.36245346,-0.7041138,0.21346436,0.39400634,95.0
791,-1.7177389,0.701828,0.47999573,-0.7041138,0.21346436,0.39400634,95.0
792,-1.7177389,0.701828,0.47999573,-0.47578126,0.16248779,0.28355715,95.0
793,-2.3499722,0.1305275,0.80700684,-0.47578126,0.16248779,0.28355715,95.0
794,-2.3499722,0.1305275,0.80700684,0.070092775,-0.015930176,0.19222413,95.0
795,-2.1664526,-0.045238495,0.5274887,0.070092775,-0.015930176,0.19222413,95.0
796,-2.1664526,-0.045238495,0.5274887,0.3430298,-0.08920898,0.08496094,95.0
797,-1.5339556,0.14783096,0.16184616,0.3430298,-0.08920898,0.08496094,95.0
798,-1.5339556,0.14783096,0.16184616,0.3079834,-0.06903076,0.015930176,95.0
799,-0.9220376,0.28964996,0.07243347,0.3079834,-0.06903076,0.015930176,95.0
800,-0.9220376,0.28964996,0.07243347,0.20178223,-0.04141846,-0.035046387,95.0
801,-0.55367017,0.12639618,0.15661621,0.20178223,-0.04141846,-0.035046387,95.0
802,-0.55367017,0.12639618,0.15661621,0.13168946,-0.057348635,-0.07115479,95.0
803,-0.3509073,-0.30241013,0.21163177,0.13168946,-0.057348635,-0.07115479,95.0
804,-0.3509073,-0.30241013,0.21163177,0.22727051,-0.12850343,-0.10195313,95.0
805,-0.14729078,-0.70895386,0.2488823,0.22727051,-0.12850343,-0.10195313,95.0
806,-0.14729078,-0.70895386,0.2488823,0.39613038,-0.24532472,-0.16779785,95.0
807,0.10035585,-0.883728,0.36376953,0.39613038,-0.24532472,-0.16779785,95.0
808,0.10035585,-0.883728,0.36376953,0.55755615,-0.35895997,-0.24532472,95.0
809,0.28293362,-0.85894775,0.4933319,0.55755615,-0.35895997,-0.24532472,95.0
810,0.28293362,-0.85894775,0.4933319,0.66269535,-0.41206056,-0.31116945,95.0
811,0.2796672,-0.72187424,0.44412994,0.66269535,-0.41206056,-0.31116945,95.0
812,0.2796672,-0.72187424,0.44412994,0.6223389,-0.4248047,-0.35046387,95.0
813,0.30665612,-0.5833435,0.13955688,0.6223389,-0.4248047,-0.35046387,95.0
814,0.30665612,-0.5833435,0.13955688,0.4959595,-0.42692873,-0.3695801,95.0
815,0.55756855,-0.53128433,-0.21443176,0.4959595,-0.42692873,-0.3695801,95.0
816,0.55756855,-0.53128433,-0.21443176,0.33878174,-0.3058594,-0.35895997,95.0
817,0.68993914,-0.4979248,-0.32541656,0.33878174,-0.3058594,-0.35895997,95.0
818,0.68993914,-0.4979248,-0.32541656,0.098767094,-0.13168946,-0.25700685,95.0
819,0.36235172,-0.39839935,-0.2693901,0.098767094,-0.13168946,-0.25700685,95.0
820,0.36235172,-0.39839935,-0.2693901,-0.26975098,0.016992187,-0.06903076,95.0
821,0.08083594,-0.3420601,-0.39967728,-0.26975098,0.016992187,-0.06903076,95.0
822,0.08083594,-0.3420601,-0.39967728,-0.58410645,-0.050976563,0.1083252,95.0
823,0.9831991,-0.6353531,-0.7542496,-0.58410645,-0.050976563,0.1083252,95.0
824,0.9831991,-0.6353531,-0.7542496,-0.6595093,-0.20921631,0.15080567,95.0
825,3.1985955,-1.4948921,-0.94207,-0.6595093,-0.20921631,0.15080567,95.0
826,3.1985955,-1.4948921,-0.94207,-0.39400634,-0.09239502,0.038232423,95.0
827,4.4540915,-2.4484634,-0.6952934,-0.39400634,-0.09239502,0.038232423,95.0
828,4.4540915,-2.4484634,-0.6952934,0.1720459,0.10620117,-0.10513916,95.0
829,3.136723,-2.6567154,-0.4236679,0.1720459,0.10620117,-0.10513916,95.0
830,3.136723,-2.6567154,-0.4236679,1.0259033,-0.270813,-0.124255374,95.0
831,0.9106722,-1.8265915,-0.6030464,1.0259033,-0.270813,-0.124255374,95.0
832,0.9106722,-1.8265915,-0.6030464,1.8340943,-0.66588134,0.27612305,95.0
833,-0.5268333,-0.34030914,-1.0412865,1.8340943,-0.66588134,0.27612305,95.0
834,-0.5268333,-0.34030914,-1.0412865,2.1420777,-0.8814697,0.4800293,95.0
835,-1.284992,1.0210266,-1.3032684,2.1420777,-0.8814697,0.4800293,95.0
836,-1.284992,1.0210266,-1.3032684,2.1102173,-1.0545777,0.6053467,95.0
837,-1.8901639,1.8004303,-1.102272,2.1102173,-1.0545777,0.6053467,95.0
838,-1.8901639,1.8004303,-1.102272,2.0687988,-1.1193603,0.62977296,95.0
839,-2.5142553,1.975853,-0.58278275,2.0687988,-1.1193603,0.62977296,95.0
840,-2.5142553,1.975853,-0.58278275,1.9094971,-1.084314,0.71367186,95.0
841,-3.0476103,1.6912422,-0.35331345,1.9094971,-1.084314,0.71367186,95.0
842,-3.0476103,1.6912422,-0.35331345,1.725769,-1.0726318,0.75296634,95.0
843,-3.092788,1.1411018,-0.7151108,1.725769,-1.0726318,0.75296634,95.0
844,-3.092788,1.1411018,-0.7151108,1.7002808,-0.9866089,0.7954468,95.0
845,-2.533227,0.55451965,-1.3405457,1.7002808,-0.9866089,0.7954468,95.0
846,-2.533227,0.55451965,-1.3405457,1.8755127,-0.8294312,0.74447024,95.0
847,-1.632087,0.17548752,-1.8876076,1.8755127,-0.8294312,0.74447024,95.0
848,-1.632087,0.17548752,-1.8876076,2.1611938,-0.64570314,0.68924564,95.0
849,-0.63231754,0.033542633,-2.224125,2.1611938,-0.64570314,0.68924564,95.0
850,-0.63231754,0.033542633,-2.224125,2.3417358,-0.42692873,0.61065674,95.0
851,0.33143842,-0.050231934,-2.2911644,2.3417358,-0.42692873,0.61065674,95.0
852,0.33143842,-0.050231934,-2.2911644,2.3066895,-0.23151855,0.49383545,95.0
853,1.1547992,-0.20923996,-2.1683922,2.3066895,-0.23151855,0.49383545,95.0
854,1.1547992,-0.20923996,-2.1683922,2.1272094,-0.0021240234,0.37595215,95.0
855,1.6727896,-0.40196228,-1.9604225,2.1272094,-0.0021240234,0.37595215,95.0
856,1.6727896,-0.40196228,-1.9604225,1.8553345,0.18054199,0.29417726,95.0
857,1.923864,-0.5284271,-1.6875763,1.8553345,0.18054199,0.29417726,95.0
858,1.923864,-0.5284271,-1.6875763,1.5346069,0.22196046,0.24001466,95.0
859,2.30977,-0.667408,-1.4143791,1.5346069,0.22196046,0.24001466,95.0
860,2.30977,-0.667408,-1.4143791,1.2510499,0.20072022,0.15186767,95.0
861,2.30977,-0.667408,-1.4143791,1.2510499,0.20072022,0.15186767,96.0
862,3.0187387,-0.93009186,-1.3459549,1.2510499,0.20072022,0.15186767,96.0
863,3.0187387,-0.93009186,-1.3459549,0.9834229,0.2081543,0.058410645,96.0
864,3.0187387,-0.93009186,-1.3459549,0.6860596,0.28461915,0.028674318,96.0
865,3.4713144,-1.0818405,-1.527008,0.6860596,0.28461915,0.028674318,96.0
866,2.9857187,-0.7982712,-1.4852295,0.6860596,0.28461915,0.028674318,96.0
867,2.9857187,-0.7982712,-1.4852295,0.3345337,0.25594482,0.060534667,96.0
868,1.7769175,-0.19371033,-0.9343643,0.3345337,0.25594482,0.060534667,96.0
869,1.7769175,-0.19371033,-0.9343643,0.022302246,0.0722168,0.0541626,96.0
870,1.0301275,0.25485992,-0.54104614,0.022302246,0.0722168,0.0541626,96.0
871,1.0301275,0.25485992,-0.54104614,-0.20390625,-0.1996582,0.04991455,96.0
872,1.1386528,0.34589386,-0.73791504,-0.20390625,-0.1996582,0.04991455,96.0
873,1.1386528,0.34589386,-0.73791504,-0.47896728,-0.14230958,0.039294433,96.0
874,0.5719938,0.35281372,-0.48184967,-0.47896728,-0.14230958,0.039294433,96.0
875,0.5719938,0.35281372,-0.48184967,-0.4163086,-0.2888672,-0.023364259,96.0
876,-1.1434793,0.38965988,0.6866379,-0.4163086,-0.2888672,-0.023364259,96.0
877,-1.1434793,0.38965988,0.6866379,0.16673584,-0.70092773,-0.03079834,96.0
878,-2.077723,0.37215042,1.3192673,0.16673584,-0.70092773,-0.03079834,96.0
879,-2.077723,0.37215042,1.3192673,0.86766356,-1.1013062,0.10938721,96.0
880,-0.82615566,0.46922684,0.46274948,0.86766356,-1.1013062,0.10938721,96.0
881,-0.82615566,0.46922684,0.46274948,0.817749,-0.95368654,0.3164795,96.0
882,1.2280035,0.97683716,-1.0773087,0.817749,-0.95368654,0.3164795,96.0
883,1.2280035,0.97683716,-1.0773087,-0.10301514,-0.020178223,0.3993164,96.0
884,1.7826347,1.6292114,-1.9070358,-0.10301514,-0.020178223,0.3993164,96.0
885,1.7826347,1.6292114,-1.9070358,-1.1883911,0.6425171,0.51082766,96.0
886,0.77969646,1.6250381,-1.2614937,-1.1883911,0.6425171,0.51082766,96.0
887,0.77969646,1.6250381,-1.2614937,-1.6503662,0.90908206,0.4364868,96.0
888,-0.5608864,0.8903122,0.49541855,-1.6503662,0.90908206,0.4364868,96.0
889,-0.5608864,0.8903122,0.49541855,-1.3158325,0.7391602,0.25806886,96.0
890,-1.7016997,0.03679657,2.124363,-1.3158325,0.7391602,0.25806886,96.0
891,-1.7016997,0.03679657,2.124363,-0.6669434,0.3727661,0.0541626,96.0
892,-2.555122,-0.22897339,2.4794083,-0.6669434,0.3727661,0.0541626,96.0
893,-2.555122,-0.22897339,2.4794083,-0.41099855,0.2081543,-0.12213135,96.0
894,-3.027447,0.26826096,1.6982346,-0.41099855,0.2081543,-0.12213135,96.0
895,-3.027447,0.26826096,1.6982346,-0.51826173,0.1731079,-0.22727051,96.0
896,-2.9509249,0.91222763,0.87267303,-0.51826173,0.1731079,-0.22727051,96.0
897,-2.9509249,0.91222763,0.87267303,-0.7890747,0.17416993,-0.29523927,96.0
898,-2.3590064,1.0881195,0.6326599,-0.7890747,0.17416993,-0.29523927,96.0
899,-2.3590064,1.0881195,0.6326599,-1.002539,0.18691407,-0.33240968,96.0
900,-1.6143904,0.6223755,0.83564377,-1.002539,0.18691407,-0.33240968,96.0
901,-1.6143904,0.6223755,0.83564377,-1.0142212,0.24638672,-0.36002198,96.0
902,-1.0780846,-0.19268799,1.0523415,-1.0142212,0.24638672,-0.36002198,96.0
903,-1.0780846,-0.19268799,1.0523415,-0.8602295,0.2548828,-0.45029297,96.0
904,-0.7775312,-0.86756897,1.0399551,-0.8602295,0.2548828,-0.45029297,96.0
905,-0.7775312,-0.86756897,1.0399551,-0.60959476,0.19328614,-0.57454836,96.0
906,-0.46853375,-1.204895,0.96992874,-0.60959476,0.19328614,-0.57454836,96.0
907,-0.46853375,-1.204895,0.96992874,-0.36639404,0.083898924,-0.68287355,96.0
908,-0.06345004,-1.2631721,1.0756874,-0.36639404,0.083898924,-0.68287355,96.0
909,-0.06345004,-1.2631721,1.0756874,-0.15930176,-0.03079834,-0.7423462,96.0
910,0.30570972,-1.0913086,1.2101097,-0.15930176,-0.03079834,-0.7423462,96.0
911,0.30570972,-1.0913086,1.2101097,-0.10513916,-0.124255374,-0.73597413,96.0
912,0.54389644,-0.8621979,1.0920639,-0.10513916,-0.124255374,-0.73597413,96.0
913,0.54389644,-0.8621979,1.0920639,-0.15611573,-0.12956543,-0.68924564,96.0
914,0.65405035,-0.7254753,0.7121048,-0.15611573,-0.12956543,-0.68924564,96.0
915,0.65405035,-0.7254753,0.7121048,-0.25700685,-0.09451904,-0.6085327,96.0
916,0.6939678,-0.6618614,0.25320435,-0.25700685,-0.09451904,-0.6085327,96.0
917,0.6939678,-0.6618614,0.25320435,-0.44710693,0.033984374,-0.49277344,96.0
918,0.5682235,-0.6332512,-0.09227371,-0.44710693,0.033984374,-0.49277344,96.0
919,0.5682235,-0.6332512,-0.09227371,-0.69136965,0.16354981,-0.33878174,96.0
920,0.52168083,-0.7210083,-0.32505035,-0.69136965,0.16354981,-0.33878174,96.0
921,0.52168083,-0.7210083,-0.32505035,-0.75615233,0.0021240234,-0.2516968,96.0
922,1.4822129,-1.1131592,-0.4986763,-0.75615233,0.0021240234,-0.2516968,96.0
923,1.4822129,-1.1131592,-0.4986763,-0.6903076,-0.12956543,-0.26125488,96.0
924,3.3970618,-1.7646332,-0.62280655,-0.6903076,-0.12956543,-0.26125488,96.0
925,3.3970618,-1.7646332,-0.62280655,-0.45560303,0.07434082,-0.26125488,96.0
926,3.9679546,-2.246292,-0.6797981,-0.45560303,0.07434082,-0.26125488,96.0
927,3.9679546,-2.246292,-0.6797981,-0.1985962,0.2527588,-0.25913087,96.0
928,2.1845446,-2.211769,-0.606266,-0.1985962,0.2527588,-0.25913087,96.0
929,2.1845446,-2.211769,-0.606266,0.44710693,-0.16885987,-0.28780517,96.0
930,0.2201333,-1.7216492,-0.20674133,0.44710693,-0.16885987,-0.28780517,96.0
931,0.2201333,-1.7216492,-0.20674133,1.4761963,-0.7699585,-0.098767094,96.0
932,-0.68168163,-0.9203949,0.17806244,1.4761963,-0.7699585,-0.098767094,96.0
933,-0.68168163,-0.9203949,0.17806244,2.3279297,-1.2085694,0.14974366,96.0
934,-1.1352258,0.018478394,-0.024211884,2.3279297,-1.2085694,0.14974366,96.0
935,-1.1352258,0.018478394,-0.024211884,2.2928834,-1.2712281,0.40144044,96.0
936,-1.6004169,0.8386841,-0.59799576,2.2928834,-1.2712281,0.40144044,96.0
937,-1.6004169,0.8386841,-0.59799576,1.8648926,-1.0067872,0.70198977,96.0
938,-2.111608,1.4173126,-1.0556412,1.8648926,-1.0067872,0.70198977,96.0
939,-2.111608,1.4173126,-1.0556412,1.4018555,-0.6903076,1.0195312,96.0
940,-2.5400312,1.6951523,-1.2881889,1.4018555,-0.6903076,1.0195312,96.0
941,-2.5400312,1.6951523,-1.2881889,1.1862671,-0.42055663,1.2860962,96.0
942,-2.6485045,1.574089,-1.346077,1.1862671,-0.42055663,1.2860962,96.0
943,-2.6485045,1.574089,-1.346077,1.1469727,-0.24957275,1.4252198,96.0
944,-2.3079271,1.0703354,-1.326046,1.1469727,-0.24957275,1.4252198,96.0
945,-2.3079271,1.0703354,-1.326046,1.263794,-0.13168946,1.4900025,96.0
946,-1.6664588,0.41684723,-1.306015,1.263794,-0.13168946,1.4900025,96.0
947,-1.6664588,0.41684723,-1.306015,1.5484132,-0.039294433,1.4305298,96.0
948,-0.9904791,-0.025558472,-1.3019409,1.5484132,-0.039294433,1.4305298,96.0
949,-0.9904791,-0.025558472,-1.3019409,1.8425903,0.029736329,1.2945923,96.0
950,-0.42342576,-0.19616699,-1.3156242,1.8425903,0.029736329,1.2945923,96.0
951,-0.42342576,-0.19616699,-1.3156242,1.9848999,0.057348635,1.1384766,96.0
952,0.007023543,-0.26242828,-1.3241425,1.9848999,0.057348635,1.1384766,96.0
953,0.007023543,-0.26242828,-1.3241425,1.9647217,0.021240234,0.9589966,96.0
954,0.007023543,-0.26242828,-1.3241425,1.9647217,0.021240234,0.9589966,97.0
955,0.44455928,-0.38414764,-1.2766838,1.9647217,0.021240234,0.9589966,97.0
956,0.44455928,-0.38414764,-1.2766838,1.8245362,-0.078588866,0.7338501,97.0
957,1.0706255,-0.6617737,-1.1733475,1.8245362,-0.078588866,0.7338501,97.0
958,1.0706255,-0.6617737,-1.1733475,1.6896607,-0.2177124,0.46516114,97.0
959,1.8812075,-1.0660248,-1.0888367,1.6896607,-0.2177124,0.46516114,97.0
960,1.8812075,-1.0660248,-1.0888367,1.6036377,-0.3451538,0.18797608,97.0
961,1.8812075,-1.0660248,-1.0888367,1.539917,-0.4333008,-0.020178223,97.0
962,2.5973,-1.376564,-1.0492554,1.539917,-0.4333008,-0.020178223,97.0
963,3.4141438,-1.3763123,-1.3123283,1.539917,-0.4333008,-0.020178223,97.0
964,3.4141438,-1.3763123,-1.3123283,1.449646,-0.5171997,-0.20072022,97.0
965,3.4141438,-1.3763123,-1.3123283,1.2191895,-0.53737795,-0.30054933,97.0
966,3.4141438,-1.3763123,-1.3123283,0.80819094,-0.4609131,-0.3419678,97.0
967,2.6666665,-0.8149643,-1.1218224,0.80819094,-0.4609131,-0.3419678,97.0
968,2.6666665,-0.8149643,-1.1218224,0.35895997,-0.39613038,-0.32391357,97.0
969,1.9349446,-0.36830902,-0.61993027,0.35895997,-0.39613038,-0.32391357,97.0
970,1.9349446,-0.36830902,-0.61993027,0.09664307,-0.4067505,-0.28780517,97.0
971,1.414948,0.033340454,-0.14866638,0.09664307,-0.4067505,-0.28780517,97.0
972,1.414948,0.033340454,-0.14866638,-0.11151123,-0.4630371,-0.30479738,97.0
973,1.1418343,0.35701752,-0.2684822,-0.11151123,-0.4630371,-0.30479738,97.0
974,1.1418343,0.35701752,-0.2684822,-0.6138428,-0.18372802,-0.38338622,97.0
975,0.3259673,0.4735794,-0.6217804,-0.6138428,-0.18372802,-0.38338622,97.0
976,0.3259673,0.4735794,-0.6217804,-1.0779419,0.16567384,-0.44604492,97.0
977,-1.1839037,0.3607025,-0.42034912,-1.0779419,0.16567384,-0.44604492,97.0
978,-1.1839037,0.3607025,-0.42034912,-0.93350834,0.06584473,-0.41418457,97.0
979,-1.7715371,-0.05706787,0.22955322,-0.93350834,0.06584473,-0.41418457,97.0
980,-1.7715371,-0.05706787,0.22955322,-0.20921631,-0.3536499,-0.36427003,97.0
981,-0.45316696,-0.48968506,0.66480637,-0.20921631,-0.3536499,-0.36427003,97.0
982,-0.45316696,-0.48968506,0.66480637,0.44498292,-0.44073486,-0.24320069,97.0
983,1.0932646,-0.102516174,0.3918419,0.44498292,-0.44073486,-0.24320069,97.0
984,1.0932646,-0.102516174,0.3918419,0.14337158,-0.02442627,-0.1083252,97.0
985,1.071096,1.0686951,-0.47270966,0.14337158,-0.02442627,-0.1083252,97.0
986,1.071096,1.0686951,-0.47270966,-0.8995239,0.46516114,-0.015930176,97.0
987,0.09469414,1.8161392,-0.9096985,-0.8995239,0.46516114,-0.015930176,97.0
988,0.09469414,1.8161392,-0.9096985,-1.6471802,0.7072998,-0.012744141,97.0
989,-0.80349255,1.460823,-0.18550873,-1.6471802,0.7072998,-0.012744141,97.0
990,-0.80349255,1.460823,-0.18550873,-1.6599244,0.813501,-0.11469727,97.0
991,-1.7803674,0.64159393,0.9094925,-1.6599244,0.813501,-0.11469727,97.0
992,-1.7803674,0.64159393,0.9094925,-1.1820191,0.70305175,-0.23151855,97.0
993,-2.845412,0.30329132,1.3023491,-1.1820191,0.70305175,-0.23151855,97.0
994,-2.845412,0.30329132,1.3023491,-0.6881836,0.51082766,-0.32285157,97.0
995,-3.3407583,0.62818146,1.0287933,-0.6881836,0.51082766,-0.32285157,97.0
996,-3.3407583,0.62818146,1.0287933,-0.4704712,0.3175415,-0.39082032,97.0
997,-2.9284172,1.0500793,0.73168945,-0.4704712,0.3175415,-0.39082032,97.0
998,-2.9284172,1.0500793,0.73168945,-0.4970215,0.18903808,-0.45772704,97.0
999,-2.1950288,1.0422478,0.6543808,-0.4970215,0.18903808,-0.45772704,97.0
1000,-2.1950288,1.0422478,0.6543808,-0.5766724,0.19647217,-0.4800293,97.0
1001,-0.92661625,0.65494156,0.83529663,-0.5766724,0.19647217,-0.4800293,97.0
1002,-0.92661625,0.65494156,0.83529663,-0.8506714,0.29205322,-0.48427734,97.0
1003,-0.5899258,0.37412262,0.8251343,-0.8506714,0.29205322,-0.48427734,97.0
1004,-0.5899258,0.37412262,0.8251343,-0.8846558,0.28780517,-0.4800293,97.0
1005,-0.18656468,-0.5221138,0.77389145,-0.8846558,0.28780517,-0.4800293,97.0
1006,-0.18656468,-0.5221138,0.77389145,-0.6149048,0.14124756,-0.45878908,97.0
1007,-0.18656468,-0.5221138,0.77389145,-0.48109132,0.08283692,-0.47684327,97.0
1008,-0.052242458,-0.60593414,0.72094345,-0.48109132,0.08283692,-0.47684327,97.0
1009,0.57846975,-0.76299286,1.2675133,-0.48109132,0.08283692,-0.47684327,97.0
1010,0.57846975,-0.76299286,1.2675133,-0.26337892,-0.1709839,-0.50020754,97.0
1011,0.57846975,-0.76299286,1.2675133,-0.24320069,-0.25594482,-0.51188964,97.0
1012,1.2101024,-0.7331238,1.2693329,-0.24320069,-0.25594482,-0.51188964,97.0
1013,1.2101024,-0.7331238,1.2693329,-0.3419678,-0.3090454,-0.6000366,97.0
1014,1.1414584,-0.6286392,0.99471664,-0.3419678,-0.3090454,-0.6000366,97.0
1015,1.1414584,-0.6286392,0.99471664,-0.40356445,-0.2814331,-0.632959,97.0
1016,1.3513381,-0.69392395,0.41203308,-0.40356445,-0.2814331,-0.632959,97.0
1017,1.3513381,-0.69392395,0.41203308,-0.71154785,-0.093457036,-0.64995116,97.0
1018,1.0327673,-0.5180893,0.27819824,-0.71154785,-0.093457036,-0.64995116,97.0
1019,1.0327673,-0.5180893,0.27819824,-0.8485474,-0.032922365,-0.6053467,97.0
1020,0.89730763,-0.54424286,-0.046142578,-0.8485474,-0.032922365,-0.6053467,97.0
1021,0.89730763,-0.54424286,-0.046142578,-1.1172364,-0.23789063,-0.5341919,97.0
1022,1.1184444,-0.5832062,-0.026073456,-1.1172364,-0.23789063,-0.5341919,97.0
1023,1.1184444,-0.5832062,-0.026073456,-1.1066163,-0.3058594,-0.5586182,97.0
1024,3.2726607,-1.7698593,0.111148834,-1.1066163,-0.3058594,-0.5586182,97.0
1025,3.2726607,-1.7698593,0.111148834,-0.62127686,-0.1083252,-0.5140137,97.0
1026,2.7778335,-1.8409805,0.26824188,-0.62127686,-0.1083252,-0.5140137,97.0
1027,2.7778335,-1.8409805,0.26824188,-0.270813,-0.16779785,-0.5012695,97.0
1028,1.2750378,-2.0105667,0.31707,-0.270813,-0.16779785,-0.5012695,97.0
1029,1.2750378,-2.0105667,0.31707,0.5798584,-0.5256958,-0.36427003,97.0
1030,-0.30416417,-1.4759979,0.0011405945,0.5798584,-0.5256958,-0.36427003,97.0
1031,-0.30416417,-1.4759979,0.0011405945,1.351941,-0.72323,-0.012744141,97.0
1032,-1.1925259,-0.33127594,-0.40846252,1.351941,-0.72323,-0.012744141,97.0
1033,-1.1925259,-0.33127594,-0.40846252,1.7013428,-0.75296634,0.2793091,97.0
1034,-1.7942305,1.0028381,-0.72491455,1.7013428,-0.75296634,0.2793091,97.0
1035,-1.7942305,1.0028381,-0.72491455,1.4910644,-0.65419924,0.46516114,97.0
1036,-2.1757164,1.8073273,-0.86808014,1.4910644,-0.65419924,0.46516114,97.0
1037,-2.1757164,1.8073273,-0.86808014,0.9685547,-0.49171144,0.6425171,97.0
1038,-2.2766938,1.7329025,-0.88290405,0.9685547,-0.49171144,0.6425171,97.0
1039,-2.2766938,1.7329025,-0.88290405,0.57242435,-0.3090454,0.7657105,97.0
1040,-2.6131153,0.73605347,-0.8010597,0.57242435,-0.3090454,0.7657105,97.0
1041,-2.6131153,0.73605347,-0.8010597,0.95581055,-0.31010744,0.7742066,97.0
1042,-2.3485856,0.18622589,-0.72162247,0.95581055,-0.31010744,0.7742066,97.0
1043,-2.3485856,0.18622589,-0.72162247,1.265918,-0.35683593,0.76677245,97.0
1044,-2.3905385,-0.32175446,-0.65285873,1.265918,-0.35683593,0.76677245,97.0
1045,-2.3905385,-0.32175446,-0.65285873,1.8213501,-0.4619751,0.76464844,97.0
1046,-2.1246133,-0.22264099,-0.7008896,1.8213501,-0.4619751,0.76464844,97.0
1047,-2.1246133,-0.22264099,-0.7008896,2.079419,-0.5140137,0.7720825,97.0
1048,-1.3998005,0.18027496,-0.82699585,2.079419,-0.5140137,0.7720825,97.0
1049,-1.3998005,0.18027496,-0.82699585,2.0210083,-0.4322388,0.7965088,97.0
1050,-0.40587562,0.3955841,-0.96897125,2.0210083,-0.4322388,0.7965088,97.0
1051,-0.40587562,0.3955841,-0.96897125,1.7416992,-0.24320069,0.80819094,97.0
1052,0.43676192,0.16841888,-1.098896,1.7416992,-0.24320069,0.80819094,97.0
1053,0.43676192,0.16841888,-1.098896,1.4114136,-0.038232423,0.81243896,97.0
1054,0.99104774,-0.24840546,-1.1888351,1.4114136,-0.038232423,0.81243896,97.0
1055,0.99104774,-0.24840546,-1.1888351,1.175647,0.098767094,0.78164065,97.0
1056,0.99104774,-0.24840546,-1.1888351,1.175647,0.098767094,0.78164065,98.0
1057,1.4361854,-0.56051636,-1.229229,1.175647,0.098767094,0.78164065,98.0
1058,1.4361854,-0.56051636,-1.229229,1.0439576,0.1720459,0.71367186,98.0
1059,1.9595684,-0.7476349,-1.1232643,1.0439576,0.1720459,0.71367186,98.0
1060,1.9595684,-0.7476349,-1.1232643,1.0205933,0.18903808,0.5957886,98.0
1061,3.1977205,-1.1719208,-0.8542862,1.0205933,0.18903808,0.5957886,98.0
1062,3.1977205,-1.1719208,-0.8542862,1.0556396,0.20072022,0.36002198,98.0
1063,3.0952373,-1.2046127,-0.74389267,1.0556396,0.20072022,0.36002198,98.0
1064,3.0952373,-1.2046127,-0.74389267,1.0216553,0.21558838,0.25913087,98.0
1065,3.0399106,-1.1130295,-0.6947365,1.0216553,0.21558838,0.25913087,98.0
1066,3.0399106,-1.1130295,-0.6947365,0.8772217,0.19116211,0.095581055,98.0
1067,2.215754,-0.63404846,-0.6310463,0.8772217,0.19116211,0.095581055,98.0
1068,2.215754,-0.63404846,-0.6310463,0.6425171,0.118945315,0.047790527,98.0
1069,1.2065265,0.0035171509,-0.5050087,0.6425171,0.118945315,0.047790527,98.0
1070,1.2065265,0.0035171509,-0.5050087,0.29630128,-0.021240234,-0.019116212,98.0
1071,1.3006215,0.3009796,-0.58031464,0.29630128,-0.021240234,-0.019116212,98.0
1072,1.3006215,0.3009796,-0.58031464,-0.1444336,-0.15717773,-0.08920898,98.0
1073,2.1495428,-0.06455994,-0.8369446,-0.1444336,-0.15717773,-0.08920898,98.0
1074,2.1495428,-0.06455994,-0.8369446,-0.5246338,0.02442627,-0.22302246,98.0
1075,1.7066584,-0.6866684,-0.47583008,-0.5246338,0.02442627,-0.22302246,98.0
1076,1.7066584,-0.6866684,-0.47583008,-0.33771974,-0.16461182,-0.29205322,98.0
1077,0.12661839,-1.0466614,0.5364609,-0.33771974,-0.16461182,-0.29205322,98.0
1078,0.12661839,-1.0466614,0.5364609,0.46728516,-0.57454836,-0.28780517,98.0
1079,-0.599926,-0.7741928,1.0999451,0.46728516,-0.57454836,-0.28780517,98.0
1080,-0.599926,-0.7741928,1.0999451,1.1034302,-0.8496094,-0.078588866,98.0
1081,0.010794163,0.22972107,0.5804329,1.1034302,-0.8496094,-0.078588866,98.0
1082,0.010794163,0.22972107,0.5804329,0.8358032,-0.452417,0.18266602,98.0
1083,0.5344653,1.6044693,-0.68492126,0.8358032,-0.452417,0.18266602,98.0
1084,0.5344653,1.6044693,-0.68492126,-0.22727051,0.36002198,0.32391357,98.0
1085,-0.03613615,2.4821014,-1.6811523,-0.22727051,0.36002198,0.32391357,98.0
1086,-0.03613615,2.4821014,-1.6811523,-1.4230957,1.0301514,0.4609131,98.0
1087,-1.0136013,2.2215576,-1.3884048,-1.4230957,1.0301514,0.4609131,98.0
1088,-1.0136013,2.2215576,-1.3884048,-1.814978,1.3349488,0.41524658,98.0
1089,-1.8442674,1.1854095,-0.015972137,-1.814978,1.3349488,0.41524658,98.0
1090,-1.8442674,1.1854095,-0.015972137,-1.4698242,1.3349488,0.28355715,98.0
1091,-2.7197742,0.5023346,1.2349625,-1.4698242,1.3349488,0.28355715,98.0
1092,-2.7197742,0.5023346,1.2349625,-0.99935305,1.1055542,0.1263794,98.0
1093,-3.3379776,0.53822327,1.6053276,-0.99935305,1.1055542,0.1263794,98.0
1094,-3.3379776,0.53822327,1.6053276,-0.9228882,0.81668705,-0.004248047,98.0
1095,-3.1567836,0.80750275,1.2572479,-0.9228882,0.81668705,-0.004248047,98.0
1096,-3.1567836,0.80750275,1.2572479,-0.98129886,0.66269535,-0.18372802,98.0
1097,-2.339819,1.0135956,0.75538254,-0.98129886,0.66269535,-0.18372802,98.0
1098,-2.339819,1.0135956,0.75538254,-1.084314,0.635083,-0.3175415,98.0
1099,-1.4389452,0.90631104,0.5255585,-1.084314,0.635083,-0.3175415,98.0
1100,-1.4389452,0.90631104,0.5255585,-1.1947632,0.6425171,-0.37807617,98.0
1101,-0.8363734,0.40612793,0.55342865,-1.1947632,0.6425171,-0.37807617,98.0
1102,-0.8363734,0.40612793,0.55342865,-1.1161743,0.5968506,-0.4333008,98.0
1103,-0.49737018,-0.15468597,0.64375687,-1.1161743,0.5968506,-0.4333008,98.0
1104,-0.49737018,-0.15468597,0.64375687,-0.9165161,0.48640138,-0.49277344,98.0
1105,-0.20752752,-0.511322,0.75326157,-0.9165161,0.48640138,-0.49277344,98.0
1106,-0.20752752,-0.511322,0.75326157,-0.79013675,0.3345337,-0.542688,98.0
1107,0.10048187,-0.6492691,0.9702835,-0.79013675,0.3345337,-0.542688,98.0
1108,0.10048187,-0.6492691,0.9702835,-0.7519043,0.14018555,-0.61915284,98.0
1109,0.37025368,-0.6872635,1.3013,-0.7519043,0.14018555,-0.61915284,98.0
1110,0.37025368,-0.6872635,1.3013,-0.6701294,-0.09239502,-0.68287355,98.0
1111,0.58950126,-0.68579865,1.5647469,-0.6701294,-0.09239502,-0.68287355,98.0
1112,0.58950126,-0.68579865,1.5647469,-0.5936646,-0.32285157,-0.73809814,98.0
1113,0.80685496,-0.6956711,1.5878563,-0.5936646,-0.32285157,-0.73809814,98.0
1114,0.80685496,-0.6956711,1.5878563,-0.5479981,-0.47684327,-0.8028809,98.0
1115,1.0408697,-0.7399063,1.3962479,-0.5479981,-0.47684327,-0.8028809,98.0
1116,1.0408697,-0.7399063,1.3962479,-0.51188964,-0.5235718,-0.8644776,98.0
1117,1.1760309,-0.74038696,1.0616989,-0.51188964,-0.5235718,-0.8644776,98.0
1118,1.1760309,-0.74038696,1.0616989,-0.5256958,-0.41099855,-0.8591675,98.0
1119,0.97200143,-0.5587158,0.65449905,-0.5256958,-0.41099855,-0.8591675,98.0
1120,0.97200143,-0.5587158,0.65449905,-0.6860596,-0.2347046,-0.73597413,98.0
1121,0.817811,-0.26060486,0.16581345,-0.6860596,-0.2347046,-0.73597413,98.0
1122,0.817811,-0.26060486,0.16581345,-0.94625247,-0.36533204,-0.5957886,98.0
1123,1.8561287,-0.31518555,-0.31560516,-0.94625247,-0.36533204,-0.5957886,98.0
1124,1.8561287,-0.31518555,-0.31560516,-1.1459106,-0.29205322,-0.55543214,98.0
1125,3.6356597,-0.9515991,-0.34894562,-1.1459106,-0.29205322,-0.55543214,98.0
1126,3.6356597,-0.9515991,-0.34894562,-1.0970582,0.095581055,-0.45029297,98.0
1127,3.5760937,-1.5965042,0.0626297,-1.0970582,0.095581055,-0.45029297,98.0
1128,3.5760937,-1.5965042,0.0626297,-0.77102053,0.14868164,-0.3802002,98.0
1129,1.4398909,-1.6747818,0.36071014,-0.77102053,0.14868164,-0.3802002,98.0
1130,1.4398909,-1.6747818,0.36071014,-0.12531738,-0.2081543,-0.2516968,98.0
1131,-0.566349,-1.1422195,0.40917206,-0.12531738,-0.2081543,-0.2516968,98.0
1132,-0.566349,-1.1422195,0.40917206,0.75721437,-0.56392825,-0.007434082,98.0
1133,-1.7251129,-0.25932312,0.31640244,0.75721437,-0.56392825,-0.007434082,98.0
1134,-1.7251129,-0.25932312,0.31640244,1.2563599,-0.80181885,0.24957275,98.0
1135,-2.3383424,0.53325653,0.0700798,1.2563599,-0.80181885,0.24957275,98.0
1136,-2.3383424,0.53325653,0.0700798,1.3349488,-0.91120607,0.37382814,98.0
1137,-2.538069,1.012703,-0.19625473,1.3349488,-0.91120607,0.37382814,98.0
1138,-2.538069,1.012703,-0.19625473,1.3455689,-0.8602295,0.49489745,98.0
1139,-2.5273302,1.2298737,-0.31448746,1.3455689,-0.8602295,0.49489745,98.0
1140,-2.5273302,1.2298737,-0.31448746,1.3094605,-0.7338501,0.60216063,98.0
1141,-2.5642104,1.1797714,-0.39227676,1.3094605,-0.7338501,0.60216063,98.0
1142,-2.5642104,1.1797714,-0.39227676,1.2160034,-0.58623046,0.64995116,98.0
1143,-2.6299448,0.87145233,-0.4934845,1.2160034,-0.58623046,0.64995116,98.0
1144,-2.6299448,0.87145233,-0.4934845,1.2807862,-0.5171997,0.6690674,98.0
1145,-2.4121957,0.40200806,-0.5962143,1.2807862,-0.5171997,0.6690674,98.0
1146,-2.4121957,0.40200806,-0.5962143,1.5877075,-0.43754885,0.68499756,98.0
1147,-1.8597372,0.046340942,-0.7345772,1.5877075,-0.43754885,0.68499756,98.0
1148,-1.8597372,0.046340942,-0.7345772,1.8479004,-0.29417726,0.71367186,98.0
1149,-1.8597372,0.046340942,-0.7345772,1.8479004,-0.29417726,0.71367186,100.0
1150,-1.2164518,-0.042114258,-0.9319382,1.8479004,-0.29417726,0.71367186,100.0
1151,-1.2164518,-0.042114258,-0.9319382,1.9179932,-0.13806152,0.72960204,100.0
1152,-0.5718187,-0.011856079,-1.1447678,1.9179932,-0.13806152,0.72960204,100.0
1153,-0.5718187,-0.011856079,-1.1447678,1.7693115,-0.0021240234,0.74447024,100.0
1154,0.09215438,-0.106399536,-1.2576256,1.7693115,-0.0021240234,0.74447024,100.0
1155,0.09215438,-0.106399536,-1.2576256,1.545227,0.14868164,0.7072998,100.0
1156,0.71971965,-0.3979721,-1.2642174,1.545227,0.14868164,0.7072998,100.0
1157,0.71971965,-0.3979721,-1.2642174,1.3710572,0.2357666,0.64782715,100.0
1158,1.2779119,-0.77116394,-1.2163658,1.3710572,0.2357666,0.64782715,100.0
1159,1.2779119,-0.77116394,-1.2163658,1.270166,0.2442627,0.541626,100.0
1160,1.874942,-1.1304092,-1.0320511,1.270166,0.2442627,0.541626,100.0
1161,1.874942,-1.1304092,-1.0320511,1.2340577,0.2166504,0.40250245,100.0
1162,2.4714258,-1.3399582,-0.7376404,1.2340577,0.2166504,0.40250245,100.0
1163,2.4714258,-1.3399582,-0.7376404,1.1437867,0.19222413,0.23258057,100.0
1164,2.815544,-1.2798615,-0.6201668,1.1437867,0.19222413,0.23258057,100.0
1165,2.815544,-1.2798615,-0.6201668,0.90695804,0.14018555,0.07646485,100.0
1166,2.8316588,-1.0327911,-0.7994766,0.90695804,0.14018555,0.07646485,100.0
1167,2.8316588,-1.0327911,-0.7994766,0.57454836,0.16992188,-0.022302246,100.0
1168,2.449287,-0.7408905,-0.9427185,0.57454836,0.16992188,-0.022302246,100.0
1169,2.449287,-0.7408905,-0.9427185,0.28674316,0.15930176,-0.040356446,100.0
1170,1.6708431,-0.4174347,-0.6963272,0.28674316,0.15930176,-0.040356446,100.0
1171,1.6708431,-0.4174347,-0.6963272,0.095581055,0.039294433,-0.039294433,100.0
1172,1.2664232,-0.0077667236,-0.26350784,0.095581055,0.039294433,-0.039294433,100.0
1173,1.2664232,-0.0077667236,-0.26350784,-0.058410645,-0.17735596,-0.078588866,100.0
1174,1.7260661,0.30708313,-0.19641495,-0.058410645,-0.17735596,-0.078588866,100.0
1175,1.7260661,0.30708313,-0.19641495,-0.36851808,-0.14124756,-0.107263185,100.0
1176,1.8519711,0.2699356,-0.42290306,-0.36851808,-0.14124756,-0.107263185,100.0
1177,1.8519711,0.2699356,-0.42290306,-0.5883545,0.06690674,-0.31010744,100.0
1178,0.6448827,0.044509888,-0.39509583,-0.5883545,0.06690674,-0.31010744,100.0
1179,0.6448827,0.044509888,-0.39509583,-0.35789797,0.021240234,-0.27506104,100.0
1180,-0.76287794,0.021278381,-0.11611366,-0.35789797,0.021240234,-0.27506104,100.0
1181,-0.76287794,0.021278381,-0.11611366,0.22939454,-0.21983643,-0.16673584,100.0
1182,-0.84727764,0.43473816,0.11781502,0.22939454,-0.21983643,-0.16673584,100.0
1183,-0.84727764,0.43473816,0.11781502,0.6467652,-0.28355715,0.038232423,100.0
1184,-0.062258244,1.1945343,0.1326313,0.6467652,-0.28355715,0.038232423,100.0
1185,-0.062258244,1.1945343,0.1326313,0.36533204,-0.09770508,0.15930176,100.0
1186,0.32370424,1.744461,-0.16324234,0.36533204,-0.09770508,0.15930176,100.0
1187,0.32370424,1.744461,-0.16324234,-0.44604492,0.2177124,0.13275146,100.0
1188,-0.017891884,1.5481949,-0.33984756,-0.44604492,0.2177124,0.13275146,100.0
1189,-0.017891884,1.5481949,-0.33984756,-1.0938721,0.52675784,0.039294433,100.0
1190,-0.9735298,0.93948364,0.0460186,-1.0938721,0.52675784,0.039294433,100.0
1191,-0.9735298,0.93948364,0.0460186,-1.2138795,0.69136965,-0.13168946,100.0
1192,-2.2480378,0.64450836,0.6501465,-1.2138795,0.69136965,-0.13168946,100.0
1193,-2.2480378,0.64450836,0.6501465,-1.171399,0.6881836,-0.22196046,100.0
1194,-3.1836963,0.8072891,0.86803055,-1.171399,0.6881836,-0.22196046,100.0
1195,-3.1836963,0.8072891,0.86803055,-1.1692749,0.5936646,-0.25913087,100.0
1196,-3.2762907,1.00737,0.6923752,-1.1692749,0.5936646,-0.25913087,100.0
1197,-3.2762907,1.00737,0.6923752,-1.2266235,0.51826173,-0.32391357,100.0
1198,-2.7027588,0.86844635,0.5264244,-1.2266235,0.51826173,-0.32391357,100.0
1199,-2.7027588,0.86844635,0.5264244,-1.2797241,0.4991455,-0.38763428,100.0
1200,-2.0455809,0.46549225,0.59599304,-1.2797241,0.4991455,-0.38763428,100.0
1201,-2.0455809,0.46549225,0.59599304,-1.1820191,0.40250245,-0.43754885,100.0
1202,-1.5472436,0.042022705,0.8066025,-1.1820191,0.40250245,-0.43754885,100.0
1203,-1.5472436,0.042022705,0.8066025,-0.87403566,0.20603028,-0.4598511,100.0
1204,-1.0268085,-0.23797607,0.92196655,-0.87403566,0.20603028,-0.4598511,100.0
1205,-1.0268085,-0.23797607,0.92196655,-0.54693604,0.059472658,-0.5214478,100.0
1206,-0.4286368,-0.262146,0.86388016,-0.54693604,0.059472658,-0.5214478,100.0
1207,-0.4286368,-0.262146,0.86388016,-0.4364868,-0.057348635,-0.5713623,100.0
1208,0.18238352,-0.19702148,0.7467804,-0.4364868,-0.057348635,-0.5713623,100.0
1209,0.18238352,-0.19702148,0.7467804,-0.50233155,-0.13912354,-0.6223389,100.0
1210,0.7284874,-0.2736435,0.72986984,-0.50233155,-0.13912354,-0.6223389,100.0
1211,0.7284874,-0.2736435,0.72986984,-0.53100586,-0.20496826,-0.68499756,100.0
1212,1.0345478,-0.43550873,0.8805618,-0.53100586,-0.20496826,-0.68499756,100.0
1213,1.0345478,-0.43550873,0.8805618,-0.5703003,-0.26337892,-0.727478,100.0
1214,1.00923,-0.5136337,1.0762634,-0.5703003,-0.26337892,-0.727478,100.0
1215,1.00923,-0.5136337,1.0762634,-0.630835,-0.32709962,-0.724292,100.0
1216,0.90356326,-0.4828186,1.1182632,-0.630835,-0.32709962,-0.724292,100.0
1217,0.90356326,-0.4828186,1.1182632,-0.64782715,-0.37701416,-0.67437744,100.0
1218,0.9914541,-0.37245178,0.90145874,-0.64782715,-0.37701416,-0.67437744,100.0
1219,0.9914541,-0.37245178,0.90145874,-0.6637573,-0.26019287,-0.58623046,100.0
1220,1.1213615,-0.28054047,0.5788193,-0.6637573,-0.26019287,-0.58623046,100.0
1221,1.1213615,-0.28054047,0.5788193,-0.9420044,0.007434082,-0.45560303,100.0
1222,1.2321479,-0.30754852,0.26099014,-0.9420044,0.007434082,-0.45560303,100.0
1223,1.2321479,-0.30754852,0.26099014,-1.3020264,0.05628662,-0.31435546,100.0
1224,2.177198,-0.7036896,0.07745743,-1.3020264,0.05628662,-0.31435546,100.0
1225,2.177198,-0.7036896,0.07745743,-1.4400879,0.013806152,-0.27399904,100.0
1226,3.716319,-1.5278473,0.38339996,-1.4400879,0.013806152,-0.27399904,100.0
1227,3.716319,-1.5278473,0.38339996,-1.1883911,0.22408448,-0.28568116,100.0
1228,3.1797447,-2.032364,0.8052559,-1.1883911,0.22408448,-0.28568116,100.0
1229,3.1797447,-2.032364,0.8052559,-0.41737062,0.12531738,-0.2262085,100.0
1230,0.7510834,-1.7321167,0.6066055,-0.41737062,0.12531738,-0.2262085,100.0
1231,0.7510834,-1.7321167,0.6066055,0.33771974,-0.2177124,-0.013806152,100.0
1232,-0.75860596,-0.9170151,0.15645218,0.33771974,-0.2177124,-0.013806152,100.0
1233,-0.75860596,-0.9170151,0.15645218,1.1066163,-0.41843262,0.32285157,100.0
1234,-1.0400515,0.17327118,0.025505066,1.1066163,-0.41843262,0.32285157,100.0
1235,-1.0400515,0.17327118,0.025505066,1.4177856,-0.4333008,0.53737795,100.0
1236,-1.1777565,1.2378387,0.039432526,1.4177856,-0.4333008,0.53737795,100.0
1237,-1.1777565,1.2378387,0.039432526,1.1416626,-0.29523927,0.70305175,100.0
1238,-1.6415827,1.9015503,-0.051132202,1.1416626,-0.29523927,0.70305175,100.0
1239,-1.6415827,1.9015503,-0.051132202,0.6425171,-0.010620117,0.8028809,100.0
1240,-2.3191378,1.9969025,-0.3256111,0.6425171,-0.010620117,0.8028809,100.0
1241,-2.3191378,1.9969025,-0.3256111,0.28780517,0.23895264,0.85704345,100.0
1242,-2.8748903,1.4953003,-0.6771774,0.28780517,0.23895264,0.85704345,100.0
1243,-2.8748903,1.4953003,-0.6771774,0.31966552,0.31860352,0.76677245,100.0
1244,-2.9076517,0.61312103,-0.90161896,0.31966552,0.31860352,0.76677245,100.0
1245,-2.9076517,0.61312103,-0.90161896,0.8326172,0.27399904,0.72004396,100.0
1246,-2.3927107,-0.04122162,-0.93593216,0.8326172,0.27399904,0.72004396,100.0
1247,-2.3927107,-0.04122162,-0.93593216,1.4007934,0.17523193,0.65207523,100.0
1248,-1.6394494,-0.028800964,-0.8871231,1.4007934,0.17523193,0.65207523,100.0
1249,-1.6394494,-0.028800964,-0.8871231,1.5887696,0.16885987,0.5607422,100.0
1250,-0.9639642,0.3351593,-0.8422165,1.5887696,0.16885987,0.5607422,100.0
1251,-0.9639642,0.3351593,-0.8422165,1.3338867,0.17629395,0.540564,100.0
1252,-0.43990922,0.40159607,-0.8684387,1.3338867,0.17629395,0.540564,100.0
1253,-0.43990922,0.40159607,-0.8684387,1.0482056,0.1539917,0.5256958,100.0
1254,0.10555555,-0.04561615,-0.9280281,1.0482056,0.1539917,0.5256958,100.0
1255,0.10555555,-0.04561615,-0.9280281,0.8952759,0.12850343,0.47684327,100.0
1256,0.6943688,-0.654953,-0.9076805,0.8952759,0.12850343,0.47684327,100.0
1257,0.6943688,-0.654953,-0.9076805,0.9165161,0.07965088,0.3971924,100.0
1258,1.187453,-1.0063705,-0.7520485,0.9165161,0.07965088,0.3971924,100.0
1259,1.187453,-1.0063705,-0.7520485,0.9632446,0.0063720704,0.26444092,100.0
1260,1.5535513,-1.0497742,-0.5545578,0.9632446,0.0063720704,0.26444092,100.0
1261,1.5535513,-1.0497742,-0.5545578,0.95581055,-0.090270996,0.090270996,100.0
1262,1.5535513,-1.0497742,-0.5545578,0.95581055,-0.090270996,0.090270996,101.0
1263,1.9552069,-1.0344086,-0.47898483,0.95581055,-0.090270996,0.090270996,101.0
1264,1.9552069,-1.0344086,-0.47898483,0.8750977,-0.15930176,-0.10938721,101.0
1265,1.9552069,-1.0344086,-0.47898483,0.78164065,-0.18160401,-0.2793091,101.0
1266,2.4809136,-1.1261444,-0.5221176,0.78164065,-0.18160401,-0.2793091,101.0
1267,3.267397,-1.0716324,-0.68478394,0.78164065,-0.18160401,-0.2793091,101.0
1268,3.267397,-1.0716324,-0.68478394,0.6159668,-0.15186767,-0.35577393,101.0
1269,3.267397,-1.0716324,-0.68478394,0.2538208,-0.07965088,-0.30479738,101.0
1270,3.267397,-1.0716324,-0.68478394,-0.09133301,-0.1274414,-0.22196046,101.0
1271,2.2970233,-0.44754028,-0.45763016,-0.09133301,-0.1274414,-0.22196046,101.0
1272,1.9648037,-0.06742859,-0.22176743,-0.09133301,-0.1274414,-0.22196046,101.0
1273,1.9648037,-0.06742859,-0.22176743,-0.29417726,-0.31116945,-0.21027832,101.0
1274,1.9648037,-0.06742859,-0.22176743,-0.41418457,-0.41737062,-0.22514649,101.0
1275,1.9648037,-0.06742859,-0.22176743,-0.46728516,-0.3058594,-0.41949463,101.0
1276,0.88970184,-0.17501068,-0.14376068,-0.46728516,-0.3058594,-0.41949463,101.0
1277,0.88970184,-0.17501068,-0.14376068,-0.18266602,-0.3462158,-0.4694092,101.0
1278,-0.70680547,0.04334259,0.11589813,-0.18266602,-0.3462158,-0.4694092,101.0
1279,-0.70680547,0.04334259,0.11589813,0.22302246,-0.540564,-0.40993652,101.0
1280,-1.081814,0.43008423,0.13668823,0.22302246,-0.540564,-0.40993652,101.0
1281,-1.081814,0.43008423,0.13668823,0.4428589,-0.632959,-0.30479738,101.0
1282,0.026003838,0.80265045,-0.05747223,0.4428589,-0.632959,-0.30479738,101.0
1283,0.026003838,0.80265045,-0.05747223,0.1720459,-0.3334717,-0.18160401,101.0
1284,1.0545068,1.1394882,-0.35255814,0.1720459,-0.3334717,-0.18160401,101.0
1285,1.0545068,1.1394882,-0.35255814,-0.46834716,0.14868164,-0.124255374,101.0
1286,0.85179615,1.3011932,-0.7047386,-0.46834716,0.14868164,-0.124255374,101.0
1287,0.85179615,1.3011932,-0.7047386,-1.1151123,0.5140137,-0.06690674,101.0
1288,-0.05498886,1.1575089,-0.6491165,-1.1151123,0.5140137,-0.06690674,101.0
1289,-0.05498886,1.1575089,-0.6491165,-1.442212,0.68712157,-0.087084964,101.0
1290,-0.9929657,0.8257599,0.06149292,-1.442212,0.68712157,-0.087084964,101.0
1291,-0.9929657,0.8257599,0.06149292,-1.3370727,0.69986576,-0.07434082,101.0
1292,-2.0406373,0.684494,0.78395844,-1.3370727,0.69986576,-0.07434082,101.0
1293,-2.0406373,0.684494,0.78395844,-1.080066,0.5713623,-0.060534667,101.0
1294,-2.9026637,1.0050659,0.9430847,-1.080066,0.5713623,-0.060534667,101.0
1295,-2.9026637,1.0050659,0.9430847,-1.0577637,0.43861085,-0.059472658,101.0
1296,-3.0177486,1.504921,0.73667145,-1.0577637,0.43861085,-0.059472658,101.0
1297,-3.0177486,1.504921,0.73667145,-1.2393677,0.3971924,-0.09664307,101.0
1298,-2.431899,1.5969543,0.55864716,-1.2393677,0.3971924,-0.09664307,101.0
1299,-2.431899,1.5969543,0.55864716,-1.3614991,0.43754885,-0.16354981,101.0
1300,-1.6534538,1.1852646,0.50884247,-1.3614991,0.43754885,-0.16354981,101.0
1301,-1.6534538,1.1852646,0.50884247,-1.357251,0.47896728,-0.2166504,101.0
1302,-1.1279999,0.6166458,0.5919876,-1.357251,0.47896728,-0.2166504,101.0
1303,-1.1279999,0.6166458,0.5919876,-1.2478638,0.4439209,-0.27718505,101.0
1304,-0.8487134,0.1711731,0.7614937,-1.2478638,0.4439209,-0.27718505,101.0
1305,-0.8487134,0.1711731,0.7614937,-1.0343994,0.3451538,-0.33984375,101.0
1306,-0.8487134,0.1711731,0.7614937,-0.87615967,0.18266602,-0.41418457,101.0
1307,-0.5362095,-0.09706879,0.89847565,-0.87615967,0.18266602,-0.41418457,101.0
1308,0.04544644,-0.38440704,0.997982,-0.87615967,0.18266602,-0.41418457,101.0
1309,0.04544644,-0.38440704,0.997982,-0.7540283,-0.011682129,-0.4980835,101.0
1310,0.82537085,-0.7611389,1.1195145,-0.7540283,-0.011682129,-0.4980835,101.0
1311,0.82537085,-0.7611389,1.1195145,-0.6138428,-0.16461182,-0.59897465,101.0
1312,1.3892761,-1.0161514,1.2219887,-0.6138428,-0.16461182,-0.59897465,101.0
1313,1.3892761,-1.0161514,1.2219887,-0.542688,-0.25700685,-0.7126099,101.0
1314,1.3877393,-1.0199432,1.2880898,-0.542688,-0.25700685,-0.7126099,101.0
1315,1.3877393,-1.0199432,1.2880898,-0.54375,-0.2793091,-0.7657105,101.0
1316,0.92488873,-0.80223846,1.2850113,-0.54375,-0.2793091,-0.7657105,101.0
1317,0.92488873,-0.80223846,1.2850113,-0.64782715,-0.32178956,-0.75509036,101.0
1318,0.5463929,-0.51161194,1.081768,-0.64782715,-0.32178956,-0.75509036,101.0
1319,0.5463929,-0.51161194,1.081768,-0.83898926,-0.26550293,-0.6467652,101.0
1320,0.44481707,-0.3167801,0.7115555,-0.83898926,-0.26550293,-0.6467652,101.0
1321,0.44481707,-0.3167801,0.7115555,-0.95793456,-0.10195313,-0.4704712,101.0
1322,0.52432287,-0.3456955,0.25961304,-0.95793456,-0.10195313,-0.4704712,101.0
1323,0.52432287,-0.3456955,0.25961304,-1.0322754,-0.16673584,-0.31116945,101.0
1324,1.4249148,-0.90219116,-0.17181396,-1.0322754,-0.16673584,-0.31116945,101.0
1325,1.4249148,-0.90219116,-0.17181396,-0.88359374,-0.23151855,-0.24001466,101.0
1326,2.9974027,-1.7455673,-0.264843,-0.88359374,-0.23151855,-0.24001466,101.0
1327,2.9974027,-1.7455673,-0.264843,-0.4715332,0.009558106,-0.14761963,101.0
1328,3.2916355,-2.1151886,-0.017612457,-0.4715332,0.009558106,-0.14761963,101.0
1329,3.2916355,-2.1151886,-0.017612457,0.045666505,0.019116212,-0.10620117,101.0
1330,1.9069538,-1.9155731,0.08757019,0.045666505,0.019116212,-0.10620117,101.0
1331,1.9069538,-1.9155731,0.08757019,0.72854006,-0.2538208,0.0063720704,101.0
1332,0.27850485,-1.2892838,-0.0015869141,0.72854006,-0.2538208,0.0063720704,101.0
1333,0.27850485,-1.2892838,-0.0015869141,1.2871583,-0.46409914,0.28780517,101.0
1334,-0.8922231,-0.2370758,-0.0830574,1.2871583,-0.46409914,0.28780517,101.0
1335,-0.8922231,-0.2370758,-0.0830574,1.5229248,-0.6223389,0.6425171,101.0
1336,-1.603256,0.81246185,-0.1904068,1.5229248,-0.6223389,0.6425171,101.0
1337,-1.603256,0.81246185,-0.1904068,1.5770874,-0.6924316,0.85598147,101.0
1338,-1.8822632,1.3779984,-0.23562622,1.5770874,-0.6924316,0.85598147,101.0
1339,-1.8822632,1.3779984,-0.23562622,1.6556762,-0.6701294,0.9451904,101.0
1340,-1.9065676,1.5241394,-0.2705078,1.6556762,-0.6701294,0.9451904,101.0
1341,-1.9065676,1.5241394,-0.2705078,1.627002,-0.5384399,0.9834229,101.0
1342,-1.9160135,1.4199295,-0.5299568,1.627002,-0.5384399,0.9834229,101.0
1343,-1.9160135,1.4199295,-0.5299568,1.447522,-0.36745605,1.0036011,101.0
1344,-1.8951155,1.0929108,-0.90839005,1.447522,-0.36745605,1.0036011,101.0
1345,-1.8951155,1.0929108,-0.90839005,1.358313,-0.1359375,1.0482056,101.0
1346,-1.8765173,0.80503845,-1.1079483,1.358313,-0.1359375,1.0482056,101.0
1347,-1.8765173,0.80503845,-1.1079483,1.364685,0.081774905,1.0545777,101.0
1348,-1.8764702,0.6667633,-1.1085129,1.364685,0.081774905,1.0545777,101.0
1349,-1.8764702,0.6667633,-1.1085129,1.4103516,0.13168946,1.075818,101.0
1350,-1.638371,0.45715332,-1.0579529,1.4103516,0.13168946,1.075818,101.0
1351,-1.638371,0.45715332,-1.0579529,1.4103516,0.13168946,1.075818,102.0
1352,-1.638371,0.45715332,-1.0579529,1.4029175,0.11363526,1.0768799,102.0
1353,-1.0155674,-0.0040283203,-1.0090942,1.4029175,0.11363526,1.0768799,102.0
1354,-1.0155674,-0.0040283203,-1.0090942,1.4252198,0.06584473,0.9781128,102.0
1355,-0.14442416,-0.6403198,-0.9606323,1.4252198,0.06584473,0.9781128,102.0
1356,-0.14442416,-0.6403198,-0.9606323,1.5027466,0.06584473,0.8209351,102.0
1357,0.596033,-1.0754623,-0.95983887,1.5027466,0.06584473,0.8209351,102.0
1358,0.596033,-1.0754623,-0.95983887,1.5749635,0.05522461,0.6000366,102.0
1359,1.0231643,-1.189743,-0.9853134,1.5749635,0.05522461,0.6000366,102.0
1360,1.0231643,-1.189743,-0.9853134,1.5154908,-0.038232423,0.38657227,102.0
1361,1.4026012,-1.230545,-0.9528389,1.5154908,-0.038232423,0.38657227,102.0
1362,1.4026012,-1.230545,-0.9528389,1.4273437,-0.10195313,0.16036378,102.0
1363,1.4026012,-1.230545,-0.9528389,1.2765381,-0.15717773,-0.06159668,102.0
1364,1.8757797,-1.2704086,-0.86831284,1.2765381,-0.15717773,-0.06159668,102.0
1365,3.2303114,-1.7158508,-0.97613144,1.2765381,-0.15717773,-0.06159668,102.0
1366,3.2303114,-1.7158508,-0.97613144,1.0513916,-0.14549561,-0.27506104,102.0
1367,3.2303114,-1.7158508,-0.97613144,0.81668705,-0.07646485,-0.44498292,102.0
1368,3.2303114,-1.7158508,-0.97613144,0.5140137,0.0031860352,-0.50233155,102.0
1369,2.1527796,-1.2698135,-0.6375847,0.5140137,0.0031860352,-0.50233155,102.0
1370,2.1527796,-1.2698135,-0.6375847,0.21240234,0.06159668,-0.42374268,102.0
1371,1.2747507,-0.5816574,-0.4308548,0.21240234,0.06159668,-0.42374268,102.0
1372,1.2747507,-0.5816574,-0.4308548,-0.13062744,0.07115479,-0.32072756,102.0
1373,1.5659554,-0.041374207,-0.4629326,-0.13062744,0.07115479,-0.32072756,102.0
1374,1.5659554,-0.041374207,-0.4629326,-0.6977417,0.15717773,-0.28355715,102.0
1375,2.442315,-0.013259888,-0.5024872,-0.6977417,0.15717773,-0.28355715,102.0
1376,2.442315,-0.013259888,-0.5024872,-1.2510499,0.544812,-0.34940186,102.0
1377,1.9657907,-0.11362457,-0.29431152,-1.2510499,0.544812,-0.34940186,102.0
1378,1.9657907,-0.11362457,-0.29431152,-1.3763672,0.59047854,-0.35471192,102.0
1379,0.52832127,-0.13970184,0.0015258789,-1.3763672,0.59047854,-0.35471192,102.0
1380,0.52832127,-0.13970184,0.0015258789,-0.83898926,0.29311523,-0.3345337,102.0
1381,-0.0622797,-0.18669891,0.1965828,-0.83898926,0.29311523,-0.3345337,102.0
1382,-0.0622797,-0.18669891,0.1965828,-0.040356446,0.059472658,-0.20921631,102.0
1383,0.096880436,0.12248993,0.1382103,-0.040356446,0.059472658,-0.20921631,102.0
1384,0.096880436,0.12248993,0.1382103,0.26975098,0.0,-0.10195313,102.0
1385,0.28386402,0.9959793,-0.23316956,0.26975098,0.0,-0.10195313,102.0
1386,0.28386402,0.9959793,-0.23316956,-0.15930176,0.07646485,-0.07540283,102.0
1387,0.34830713,1.7326736,-0.4331894,-0.15930176,0.07646485,-0.07540283,102.0
1388,0.34830713,1.7326736,-0.4331894,-0.8336792,0.28355715,-0.083898924,102.0
1389,-0.29233837,1.8723297,-0.06398392,-0.8336792,0.28355715,-0.083898924,102.0
1390,-0.29233837,1.8723297,-0.06398392,-1.3137085,0.44179687,-0.10513916,102.0
1391,-1.8148642,1.6759415,0.53692436,-1.3137085,0.44179687,-0.10513916,102.0
1392,-1.8148642,1.6759415,0.53692436,-1.448584,0.45135498,-0.19541016,102.0
1393,-3.2641838,1.4121399,0.901844,-1.448584,0.45135498,-0.19541016,102.0
1394,-3.2641838,1.4121399,0.901844,-1.2627319,0.30373535,-0.21558838,102.0
1395,-3.7327704,1.3037567,0.95427704,-1.2627319,0.30373535,-0.21558838,102.0
1396,-3.7327704,1.3037567,0.95427704,-0.9568726,0.14868164,-0.23789063,102.0
1397,-3.181407,1.3274689,0.89936066,-0.9568726,0.14868164,-0.23789063,102.0
1398,-3.181407,1.3274689,0.89936066,-0.9505005,0.14655761,-0.32816163,102.0
1399,-2.2297325,1.270935,0.8308029,-0.9505005,0.14655761,-0.32816163,102.0
1400,-2.2297325,1.270935,0.8308029,-1.0970582,0.24107666,-0.4333008,102.0
1401,-1.4028656,1.0012283,0.7020569,-1.0970582,0.24107666,-0.4333008,102.0
1402,-1.4028656,1.0012283,0.7020569,-1.2383057,0.2984253,-0.51826173,102.0
1403,-0.7896632,0.4485016,0.63183594,-1.2383057,0.2984253,-0.51826173,102.0
1404,-0.7896632,0.4485016,0.63183594,-1.1575928,0.25806886,-0.5894165,102.0
1405,-0.24349812,-0.25701904,0.8822899,-1.1575928,0.25806886,-0.5894165,102.0
1406,-0.24349812,-0.25701904,0.8822899,-0.8517334,0.06584473,-0.7126099,102.0
1407,0.4007337,-0.84698486,1.3741074,-0.8517334,0.06584473,-0.7126099,102.0
1408,0.4007337,-0.84698486,1.3741074,-0.5055176,-0.14124756,-0.8092529,102.0
1409,0.99815047,-1.1477814,1.6426926,-0.5055176,-0.14124756,-0.8092529,102.0
1410,0.99815047,-1.1477814,1.6426926,-0.3430298,-0.25700685,-0.85704345,102.0
1411,1.2570775,-1.1519089,1.5156059,-0.3430298,-0.25700685,-0.85704345,102.0
1412,1.2570775,-1.1519089,1.5156059,-0.31010744,-0.31010744,-0.8400513,102.0
1413,1.2156839,-0.94351196,1.2653656,-0.31010744,-0.31010744,-0.8400513,102.0
1414,1.2156839,-0.94351196,1.2653656,-0.33028564,-0.3090454,-0.75296634,102.0
1415,1.1964363,-0.6433945,1.0885391,-0.33028564,-0.3090454,-0.75296634,102.0
1416,1.1964363,-0.6433945,1.0885391,-0.4715332,-0.26975098,-0.63614506,102.0
1417,1.3111408,-0.49264526,0.96448135,-0.4715332,-0.26975098,-0.63614506,102.0
1418,1.3111408,-0.49264526,0.96448135,-0.67650145,-0.06796875,-0.5649902,102.0
1419,1.1218009,-0.5184479,0.74227524,-0.67650145,-0.06796875,-0.5649902,102.0
1420,1.1218009,-0.5184479,0.74227524,-0.8623535,0.16779785,-0.4694092,102.0
1421,0.36316347,-0.5613861,0.33478546,-0.8623535,0.16779785,-0.4694092,102.0
1422,0.36316347,-0.5613861,0.33478546,-0.9122681,0.24213867,-0.3079834,102.0
1423,0.017374039,-0.65413666,-0.1406784,-0.9122681,0.24213867,-0.3079834,102.0
1424,0.017374039,-0.65413666,-0.1406784,-0.7869507,0.04885254,-0.19753419,102.0
1425,1.0413895,-0.86042786,-0.3687439,-0.7869507,0.04885254,-0.19753419,102.0
1426,1.0413895,-0.86042786,-0.3687439,-0.5734863,0.035046387,-0.13275146,102.0
1427,2.362958,-1.0202637,-0.25540924,-0.5734863,0.035046387,-0.13275146,102.0
1428,2.362958,-1.0202637,-0.25540924,-0.36533204,0.0031860352,-0.13381349,102.0
1429,2.4436746,-1.0682602,-0.11425018,-0.36533204,0.0031860352,-0.13381349,102.0
1430,2.4436746,-1.0682602,-0.11425018,-0.09239502,-0.16992188,-0.21452637,102.0
1431,1.3601766,-1.1460419,-0.07942581,-0.09239502,-0.16992188,-0.21452637,102.0
1432,1.3601766,-1.1460419,-0.07942581,0.544812,-0.38869628,-0.16885987,102.0
1433,-0.17540836,-0.838501,-0.117435455,0.544812,-0.38869628,-0.16885987,102.0
1434,-0.17540836,-0.838501,-0.117435455,1.1076783,-0.46834716,0.093457036,102.0
1435,-1.5997138,0.23353577,-0.41760635,1.1076783,-0.46834716,0.093457036,102.0
1436,-1.5997138,0.23353577,-0.41760635,1.0598878,-0.43861085,0.3451538,102.0
1437,-2.4126933,1.428688,-0.76140594,1.0598878,-0.43861085,0.3451538,102.0
1438,-2.4126933,1.428688,-0.76140594,0.7189819,-0.28568116,0.49064943,102.0
1439,-2.6498325,1.942276,-0.6771774,0.7189819,-0.28568116,0.49064943,102.0
1440,-2.6498325,1.942276,-0.6771774,0.52675784,-0.26444092,0.59260255,102.0
1441,-2.521868,1.5878296,-0.3341751,0.52675784,-0.26444092,0.59260255,102.0
1442,-2.521868,1.5878296,-0.3341751,0.6414551,-0.30479738,0.6074707,102.0
1443,-2.299538,0.79878235,-0.21604538,0.6414551,-0.30479738,0.6074707,102.0
1444,-2.299538,0.79878235,-0.21604538,0.8644776,-0.2081543,0.6223389,102.0
1445,-2.2858584,0.2833786,-0.42627716,0.8644776,-0.2081543,0.6223389,102.0
1446,-2.2858584,0.2833786,-0.42627716,1.1182984,-0.15080567,0.6446411,102.0
1447,-2.2547488,0.2935028,-0.71817017,1.1182984,-0.15080567,0.6446411,102.0
1448,-2.2547488,0.2935028,-0.71817017,1.2510499,-0.13168946,0.7412842,102.0
1449,-1.824014,0.47322845,-0.88892746,1.2510499,-0.13168946,0.7412842,102.0
1450,-1.824014,0.47322845,-0.88892746,1.2510499,-0.087084964,0.8517334,102.0
1451,-1.0091867,0.36427307,-0.9252548,1.2510499,-0.087084964,0.8517334,102.0
1452,-1.0091867,0.36427307,-0.9252548,1.1459106,-0.03186035,0.8995239,102.0
1453,-0.09395826,-0.16384125,-0.90634155,1.1459106,-0.03186035,0.8995239,102.0
1454,-0.09395826,-0.16384125,-0.90634155,1.1597168,-0.013806152,0.8708496,102.0
1455,-0.09395826,-0.16384125,-0.90634155,1.1597168,-0.013806152,0.8708496,102.0
1456,0.65095645,-0.7175522,-0.8581772,1.1597168,-0.013806152,0.8708496,102.0
1457,0.65095645,-0.7175522,-0.8581772,1.2414917,-0.010620117,0.7858887,102.0
1458,1.0583628,-0.90166473,-0.74282837,1.2414917,-0.010620117,0.7858887,102.0
1459,1.0583628,-0.90166473,-0.74282837,1.2776002,-0.052038576,0.6690674,102.0
1460,1.196556,-0.8203201,-0.6237068,1.2776002,-0.052038576,0.6690674,102.0
1461,1.196556,-0.8203201,-0.6237068,1.263794,-0.13699952,0.51932377,102.0
1462,1.196556,-0.8203201,-0.6237068,1.170337,-0.22514649,0.2803711,102.0
1463,1.3816345,-0.82079315,-0.69221497,1.170337,-0.22514649,0.2803711,102.0
1464,2.8227637,-2.1251678,-0.8005371,1.170337,-0.22514649,0.2803711,102.0
1465,2.8227637,-2.1251678,-0.8005371,1.0450195,-0.17735596,-0.008496094,102.0
1466,2.8227637,-2.1251678,-0.8005371,0.7412842,-0.13275146,-0.26975098,102.0
1467,2.8227637,-2.1251678,-0.8005371,0.33878174,-0.23258057,-0.5140137,102.0
1468,2.4279864,-2.0489273,-0.31500244,0.33878174,-0.23258057,-0.5140137,102.0
1469,2.4279864,-2.0489273,-0.31500244,0.0031860352,-0.32497558,-0.5543701,102.0
1470,2.2855775,-1.5181351,-0.18513107,0.0031860352,-0.32497558,-0.5543701,102.0
1471,2.2855775,-1.5181351,-0.18513107,-0.009558106,-0.44179687,-0.43967286,102.0
1472,2.6157057,-0.80786896,-0.57601166,-0.009558106,-0.44179687,-0.43967286,102.0
1473,2.6157057,-0.80786896,-0.57601166,-0.021240234,-0.34727785,-0.14868164,102.0
1474,2.6422963,-0.07896423,-0.9419975,-0.021240234,-0.34727785,-0.14868164,102.0
1475,2.6422963,-0.07896423,-0.9419975,0.047790527,-0.19116211,0.081774905,102.0
1476,1.8835759,0.71051025,-0.53697205,0.047790527,-0.19116211,0.081774905,102.0
1477,1.8835759,0.71051025,-0.53697205,0.17735596,-0.1996582,0.32072756,102.0
1478,1.7502689,1.2839737,0.13295746,0.17735596,-0.1996582,0.32072756,102.0
1479,1.7502689,1.2839737,0.13295746,0.1539917,-0.16248779,0.6085327,102.0
1480,2.610652,1.4856491,-0.1570015,0.1539917,-0.16248779,0.6085327,102.0
1481,2.610652,1.4856491,-0.1570015,-0.4725952,0.48109132,0.9653687,102.0
1482,2.4792562,1.3521423,-0.96401596,-0.4725952,0.48109132,0.9653687,102.0
1483,2.4792562,1.3521423,-0.96401596,-1.3689331,1.2106934,1.0949341,102.0
1484,0.7123108,1.0847168,-0.76314354,-1.3689331,1.2106934,1.0949341,102.0
1485,0.7123108,1.0847168,-0.76314354,-1.6726685,1.2850342,1.2446778,102.0
1486,-1.037488,0.89536285,0.3488617,-1.6726685,1.2850342,1.2446778,102.0
1487,-1.037488,0.89536285,0.3488617,-1.4337158,1.0439576,1.26698,102.0
1488,-1.984129,0.6342087,1.2584496,-1.4337158,1.0439576,1.26698,102.0
1489,-1.984129,0.6342087,1.2584496,-1.0545777,0.72960204,1.0981201,102.0
1490,-2.639586,0.4010315,1.3812485,-1.0545777,0.72960204,1.0981201,102.0
1491,-2.639586,0.4010315,1.3812485,-0.73597413,0.52038574,0.83686525,102.0
1492,-3.2448354,0.566391,0.9848213,-0.73597413,0.52038574,0.83686525,102.0
1493,-3.2448354,0.566391,0.9848213,-0.62977296,0.4428589,0.67437744,102.0
1494,-3.4424748,0.8419266,0.62153625,-0.62977296,0.4428589,0.67437744,102.0
1495,-3.4424748,0.8419266,0.62153625,-0.62127686,0.4439209,0.62340087,102.0
1496,-2.9189823,0.7951126,0.49391937,-0.62127686,0.4439209,0.62340087,102.0
1497,-2.9189823,0.7951126,0.49391937,-0.61065674,0.48215333,0.59260255,102.0
1498,-2.5196707,0.50458527,0.41082,-0.61065674,0.48215333,0.59260255,102.0
1499,-2.5196707,0.50458527,0.41082,-0.7519043,0.60322267,0.4163086,102.0
1500,-1.9100604,0.3422928,0.43446732,-0.7519043,0.60322267,0.4163086,102.0
1501,-1.9100604,0.3422928,0.43446732,-0.725354,0.59260255,0.33984375,102.0
1502,-1.1730435,-0.24570465,0.76080704,-0.725354,0.59260255,0.33984375,102.0
1503,-1.1730435,-0.24570465,0.76080704,-0.44816896,0.5150757,0.052038576,102.0
1504,-0.7250681,-0.35176086,0.81786346,-0.44816896,0.5150757,0.052038576,102.0
1505,-0.7250681,-0.35176086,0.81786346,-0.3727661,0.45454103,-0.04141846,102.0
1506,0.07908857,-0.7758026,1.010994,-0.3727661,0.45454103,-0.04141846,102.0
1507,0.07908857,-0.7758026,1.010994,-0.11044922,0.19753419,-0.28355715,102.0
1508,0.07908857,-0.7758026,1.010994,-0.0031860352,0.14018555,-0.3419678,102.0
1509,0.39133483,-0.786911,0.8722496,-0.0031860352,0.14018555,-0.3419678,102.0
1510,2.1267765,-1.1374512,1.2112885,-0.0031860352,0.14018555,-0.3419678,102.0
1511,2.1267765,-1.1374512,1.2112885,0.2357666,0.13275146,-0.41206056,102.0
1512,2.1267765,-1.1374512,1.2112885,0.124255374,0.14018555,-0.4364868,102.0
1513,2.1267765,-1.1374512,1.2112885,-0.56392825,0.20072022,-0.48109132,102.0
1514,1.8429495,-0.85565186,1.0306892,-0.56392825,0.20072022,-0.48109132,102.0
1515,1.8429495,-0.85565186,1.0306892,-0.8358032,0.2538208,-0.48427734,102.0
1516,1.733881,-1.1251221,0.73992157,-0.8358032,0.2538208,-0.48427734,102.0
1517,1.733881,-1.1251221,0.73992157,-1.3030884,0.26975098,-0.40993652,102.0
1518,1.5033646,-1.071518,0.62696075,-1.3030884,0.26975098,-0.40993652,102.0
1519,1.5033646,-1.071518,0.62696075,-1.2765381,0.1731079,-0.3982544,102.0
1520,2.9125307,-1.8707428,0.50938034,-1.2765381,0.1731079,-0.3982544,102.0
1521,2.9125307,-1.8707428,0.50938034,-0.905896,-0.14655761,-0.61702883,102.0
1522,3.108284,-1.7212753,0.5198593,-0.905896,-0.14655761,-0.61702883,102.0
1523,3.108284,-1.7212753,0.5198593,-0.721106,-0.17629395,-0.66269535,102.0
1524,3.2717838,-1.766655,0.27576447,-0.721106,-0.17629395,-0.66269535,102.0
1525,3.2717838,-1.766655,0.27576447,-0.35895997,-0.1731079,-0.81881106,102.0
1526,1.9070754,-1.4536514,-0.3989792,-0.35895997,-0.1731079,-0.81881106,102.0
1527,1.9070754,-1.4536514,-0.3989792,-0.1359375,-0.23364258,-0.86978763,102.0
1528,0.26165867,-0.7171707,-0.805645,-0.1359375,-0.23364258,-0.86978763,102.0
1529,0.26165867,-0.7171707,-0.805645,0.07327881,-0.3419678,-0.721106,102.0
1530,-0.918273,0.46058655,-0.57559586,0.07327881,-0.3419678,-0.721106,102.0
1531,-0.918273,0.46058655,-0.57559586,0.15930176,-0.46516114,-0.5522461,102.0
1532,-2.1483145,2.243225,0.024494171,0.15930176,-0.46516114,-0.5522461,102.0
1533,-2.1483145,2.243225,0.024494171,-0.087084964,-0.53100586,-0.36427003,102.0
1534,-2.226171,2.201271,0.09454727,-0.087084964,-0.53100586,-0.36427003,102.0
1535,-2.226171,2.201271,0.09454727,-0.22196046,-0.45878908,-0.25700685,102.0
1536,-3.2697918,1.9282913,-0.12802505,-0.22196046,-0.45878908,-0.25700685,102.0
1537,-3.2697918,1.9282913,-0.12802505,-0.2782471,-0.36427003,-0.24851075,102.0
1538,-3.156715,1.4069748,-0.23114395,-0.2782471,-0.36427003,-0.24851075,102.0
1539,-3.156715,1.4069748,-0.23114395,-0.078588866,-0.41418457,-0.25913087,102.0
1540,-3.2398129,0.7352371,-0.3649826,-0.078588866,-0.41418457,-0.25913087,102.0
1541,-3.2398129,0.7352371,-0.3649826,0.542688,-0.47684327,-0.19222413,102.0
1542,-2.8269458,0.36280823,-0.33367538,0.542688,-0.47684327,-0.19222413,102.0
1543,-2.8269458,0.36280823,-0.33367538,1.0694458,-0.49489745,-0.16567384,102.0
1544,-2.162765,0.42816925,-0.27807236,1.0694458,-0.49489745,-0.16567384,102.0
1545,-2.162765,0.42816925,-0.27807236,1.2521118,-0.43754885,-0.098767094,102.0
1546,-1.4402585,0.665535,-0.33813095,1.2521118,-0.43754885,-0.098767094,102.0
1547,-1.4402585,0.665535,-0.33813095,1.1512207,-0.32072756,-0.009558106,102.0
1548,-0.7684055,0.7447586,-0.48700714,1.1512207,-0.32072756,-0.009558106,102.0
1549,-0.7684055,0.7447586,-0.48700714,0.89846194,-0.20496826,0.081774905,102.0
1550,-0.1329495,0.51581573,-0.5744705,0.89846194,-0.20496826,0.081774905,102.0
1551,-0.1329495,0.51581573,-0.5744705,0.6605713,-0.12000733,0.10195313,102.0
1552,0.466553,0.024749756,-0.571331,0.6605713,-0.12000733,0.10195313,102.0
1553,0.466553,0.024749756,-0.571331,0.57454836,-0.10301514,-0.0031860352,102.0
1554,1.1948,-0.51527405,-0.51224136,0.57454836,-0.10301514,-0.0031860352,102.0
1555,1.1948,-0.51527405,-0.51224136,0.5851685,-0.22514649,-0.14337158,102.0
1556,3.0049856,-1.1647339,-0.47932434,0.5851685,-0.22514649,-0.14337158,102.0
1557,3.0049856,-1.1647339,-0.47932434,0.6903076,-0.1263794,-0.4258667,102.0
1558,3.0049856,-1.1647339,-0.47932434,0.6265869,-0.043542482,-0.49383545,102.0
1559,2.9903898,-1.1588516,-0.44869232,0.6265869,-0.043542482,-0.49383545,102.0
1560,2.7781153,-0.941864,-0.4550972,0.6265869,-0.043542482,-0.49383545,102.0
1561,2.7781153,-0.941864,-0.4550972,0.6265869,-0.043542482,-0.49383545,102.0
