,accx,accy,accz,gyrox,gyroy,gyroz,heart rate
0,walk,walk,walk,walk,walk,walk,walk
1,0.0,0.0,0.0,-0.016992187,-0.0637207,0.0063720704,0.0
2,-0.12363282,-0.07623291,0.07558594,-0.016992187,-0.0637207,0.0063720704,0.0
3,-0.100541994,0.030725095,-0.15245849,-0.016992187,-0.0637207,0.0063720704,0.0
4,-0.100541994,0.030725095,-0.15245849,-0.019116212,-0.05522461,-0.026550293,0.0
5,0.017784178,0.062336426,-0.16320215,-0.019116212,-0.05522461,-0.026550293,0.0
6,0.017784178,0.062336426,-0.16320215,-0.013806152,-0.029736329,-0.032922365,0.0
7,0.12107549,0.02820166,0.011882126,-0.013806152,-0.029736329,-0.032922365,0.0
8,0.12107549,0.02820166,0.011882126,-0.033984374,-0.029736329,-0.026550293,0.0
9,0.11318119,-0.04262422,0.14464974,-0.033984374,-0.029736329,-0.026550293,0.0
10,0.11318119,-0.04262422,0.14464974,-0.035046387,-0.04885254,-0.028674318,0.0
11,0.011870638,-0.14734401,0.07140827,-0.035046387,-0.04885254,-0.028674318,0.0
12,0.011870638,-0.14734401,0.07140827,-0.023364259,-0.06690674,-0.043542482,0.0
13,-0.082227126,-0.1881877,-0.11330795,-0.023364259,-0.06690674,-0.043542482,0.0
14,-0.082227126,-0.1881877,-0.11330795,-0.011682129,-0.07752686,-0.004248047,0.0
15,-0.11093551,-0.1521615,-0.16542664,-0.011682129,-0.07752686,-0.004248047,0.0
16,-0.11093551,-0.1521615,-0.16542664,-0.010620117,-0.0722168,0.004248047,0.0
17,-0.11093551,-0.1521615,-0.16542664,-0.03079834,-0.07752686,0.009558106,0.0
18,-0.08882165,-0.06978828,-0.023051754,-0.03079834,-0.07752686,0.009558106,0.0
19,-0.10100117,0.012418896,0.10596046,-0.03079834,-0.07752686,0.009558106,0.0
20,-0.10100117,0.012418896,0.10596046,-0.03717041,-0.08283692,0.009558106,0.0
21,-0.14869645,0.039927796,0.07054718,-0.03717041,-0.08283692,0.009558106,0.0
22,-0.14869645,0.039927796,0.07054718,-0.019116212,-0.083898924,-0.0010620117,0.0
23,-0.15977748,0.05155894,0.038420163,-0.019116212,-0.083898924,-0.0010620117,0.0
24,-0.15977748,0.05155894,0.038420163,0.0010620117,-0.06478272,-0.0021240234,0.0
25,-0.10864474,0.07468221,0.09656865,0.0010620117,-0.06478272,-0.0021240234,0.0
26,-0.10864474,0.07468221,0.09656865,0.0021240234,-0.06265869,-0.004248047,0.0
27,-0.038636982,0.09205778,0.18169829,0.0021240234,-0.06265869,-0.004248047,0.0
28,-0.038636982,0.09205778,0.18169829,0.0053100586,-0.06903076,-0.009558106,0.0
29,-0.010182038,0.06870237,0.14649388,0.0053100586,-0.06903076,-0.009558106,0.0
30,-0.010182038,0.06870237,0.14649388,-0.0031860352,-0.06796875,-0.0031860352,0.0
31,-0.031302363,0.052312974,0.0075271353,-0.0031860352,-0.06796875,-0.0031860352,0.0
32,-0.031302363,0.052312974,0.0075271353,-0.027612304,-0.07965088,-0.0010620117,0.0
33,-0.049138576,0.0833787,-0.0689905,-0.027612304,-0.07965088,-0.0010620117,0.0
34,-0.049138576,0.0833787,-0.0689905,-0.038232423,-0.08920898,-0.009558106,0.0
35,-0.049138576,0.0833787,-0.0689905,-0.008496094,-0.09451904,-0.026550293,0.0
36,0.0071857274,0.08241341,-0.060807634,-0.008496094,-0.09451904,-0.026550293,0.0
37,0.10851957,0.003369695,-0.038697377,-0.008496094,-0.09451904,-0.026550293,0.0
38,0.10851957,0.003369695,-0.038697377,-0.011682129,-0.09133301,-0.035046387,0.0
39,0.11173022,-0.14271441,-0.05531093,-0.011682129,-0.09133301,-0.035046387,0.0
40,0.11173022,-0.14271441,-0.05531093,-0.08496094,-0.09239502,-0.014868164,0.0
41,-0.022737414,-0.30989906,-0.1646467,-0.08496094,-0.09239502,-0.014868164,0.0
42,-0.022737414,-0.30989906,-0.1646467,-0.1359375,-0.07540283,0.021240234,0.0
43,-0.022737414,-0.30989906,-0.1646467,-0.28568116,-0.046728518,0.07540283,0.0
44,-0.17971337,-0.42059994,-0.32579696,-0.28568116,-0.046728518,0.07540283,0.0
45,-0.27428827,-0.40889204,-0.39395055,-0.28568116,-0.046728518,0.07540283,0.0
46,-0.27428827,-0.40889204,-0.39395055,-0.61065674,-0.03186035,0.2357666,0.0
47,-0.27428827,-0.40889204,-0.39395055,-0.61065674,-0.03186035,0.2357666,81.0
48,-0.30939645,-0.41783628,-0.37390068,-0.61065674,-0.03186035,0.2357666,81.0
49,-0.30939645,-0.41783628,-0.37390068,-0.991919,-0.010620117,0.4088745,81.0
50,-0.38383308,-0.46990132,-0.4049189,-0.991919,-0.010620117,0.4088745,81.0
51,-0.38383308,-0.46990132,-0.4049189,-1.3349488,-0.08920898,0.542688,81.0
52,-0.57922226,-0.29216862,-0.643442,-1.3349488,-0.08920898,0.542688,81.0
53,-0.57922226,-0.29216862,-0.643442,-1.5579712,-0.24107666,0.7104859,81.0
54,-0.82748914,0.13533247,-1.1981887,-1.5579712,-0.24107666,0.7104859,81.0
55,-0.82748914,0.13533247,-1.1981887,-1.8808228,-0.4333008,0.81243896,81.0
56,-1.0622232,0.61239195,-1.8928771,-1.8808228,-0.4333008,0.81243896,81.0
57,-1.0622232,0.61239195,-1.8928771,-2.1548219,-0.64782715,0.8400513,81.0
58,-1.2330672,1.0202725,-2.3173168,-2.1548219,-0.64782715,0.8400513,81.0
59,-1.2330672,1.0202725,-2.3173168,-2.4819214,-0.9674927,0.8230591,81.0
60,-1.1742834,0.99649143,-1.9815636,-2.4819214,-0.9674927,0.8230591,81.0
61,-1.1742834,0.99649143,-1.9815636,-2.5137818,-1.4645141,0.70198977,81.0
62,-1.1742834,0.99649143,-1.9815636,-2.0539308,-2.0061402,0.51932377,81.0
63,-0.7481303,0.24528886,-0.86202097,-2.0539308,-2.0061402,0.51932377,81.0
64,-0.25437582,-0.5023529,0.18124509,-2.0539308,-2.0061402,0.51932377,81.0
65,-0.25437582,-0.5023529,0.18124509,-1.4273437,-2.440503,0.34090576,81.0
66,-0.13172328,-0.41285646,0.41710305,-1.4273437,-2.440503,0.34090576,81.0
67,-0.13172328,-0.41285646,0.41710305,-1.0004151,-2.7824707,0.19647217,81.0
68,-0.357759,0.36197558,0.04120183,-1.0004151,-2.7824707,0.19647217,81.0
69,-0.357759,0.36197558,0.04120183,-1.0057251,-3.0182374,0.11044922,81.0
70,-0.6035533,1.2172782,-0.43948722,-1.0057251,-3.0182374,0.11044922,81.0
71,-0.6035533,1.2172782,-0.43948722,-1.2765381,-3.2901123,-0.010620117,81.0
72,-0.5962703,1.7088324,-0.7555206,-1.2765381,-3.2901123,-0.010620117,81.0
73,-0.5962703,1.7088324,-0.7555206,-1.5823975,-3.5619874,-0.18372802,81.0
74,-0.23379111,1.7357427,-0.81774664,-1.5823975,-3.5619874,-0.18372802,81.0
75,-0.23379111,1.7357427,-0.81774664,-1.7969239,-3.8349245,-0.4364868,81.0
76,0.40238357,1.4334184,-0.6128397,-1.7969239,-3.8349245,-0.4364868,81.0
77,0.40238357,1.4334184,-0.6128397,-1.8861328,-4.105737,-0.8326172,81.0
78,1.2141798,1.0014467,-0.18742752,-1.8861328,-4.105737,-0.8326172,81.0
79,1.2141798,1.0014467,-0.18742752,-1.8638306,-4.338318,-1.2797241,81.0
80,2.1059384,0.47426534,0.36983347,-1.8638306,-4.338318,-1.2797241,81.0
81,2.1059384,0.47426534,0.36983347,-1.7024049,-4.5613403,-1.8309082,81.0
82,2.9231176,-0.17446959,0.97258806,-1.7024049,-4.5613403,-1.8309082,81.0
83,2.9231176,-0.17446959,0.97258806,-1.2021973,-4.70365,-2.4075806,81.0
84,3.5130181,-0.8830205,1.5269597,-1.2021973,-4.70365,-2.4075806,81.0
85,3.5130181,-0.8830205,1.5269597,-0.3717041,-4.817285,-2.985315,81.0
86,3.9352803,-1.5774857,1.9734964,-0.3717041,-4.817285,-2.985315,81.0
87,3.9352803,-1.5774857,1.9734964,0.8050049,-4.8629518,-3.5035768,81.0
88,3.9352803,-1.5774857,1.9734964,2.1091554,-4.796045,-3.8519166,81.0
89,4.2021303,-2.2401867,2.3638926,2.1091554,-4.796045,-3.8519166,81.0
90,4.1188946,-2.814342,2.8113532,2.1091554,-4.796045,-3.8519166,81.0
91,4.1188946,-2.814342,2.8113532,3.353833,-4.6218753,-4.059009,81.0
92,3.5921006,-2.9277554,3.1598127,3.353833,-4.6218753,-4.059009,81.0
93,3.5921006,-2.9277554,3.1598127,4.1917605,-4.2214966,-3.9124513,81.0
94,2.4698477,-2.3735764,2.9441588,4.1917605,-4.2214966,-3.9124513,81.0
95,2.4698477,-2.3735764,2.9441588,4.2554812,-3.4706542,-3.544995,81.0
96,1.0853629,-0.6706263,2.0997972,4.2554812,-3.4706542,-3.544995,81.0
97,1.0853629,-0.6706263,2.0997972,3.346399,-2.636975,-2.5159059,81.0
98,-0.10106993,1.513267,1.2439492,3.346399,-2.636975,-2.5159059,81.0
99,-0.10106993,1.513267,1.2439492,1.7332032,-1.9286133,-1.447522,81.0
100,-0.7818203,2.7004087,0.95833063,1.7332032,-1.9286133,-1.447522,81.0
101,-0.7818203,2.7004087,0.95833063,0.30267334,-1.2489258,-0.49489745,81.0
102,-0.94060516,2.4948606,1.1215596,0.30267334,-1.2489258,-0.49489745,81.0
103,-0.94060516,2.4948606,1.1215596,-0.68499756,-0.6977417,0.16779785,81.0
104,-0.86152935,1.3372215,1.2906437,-0.68499756,-0.6977417,0.16779785,81.0
105,-0.86152935,1.3372215,1.2906437,-1.3859253,-0.16992188,0.6180908,81.0
106,-0.69645023,0.08276552,1.2337234,-1.3859253,-0.16992188,0.6180908,81.0
107,-0.69645023,0.08276552,1.2337234,-1.9254273,0.27506104,0.9122681,81.0
108,-0.48140335,-0.97648776,1.1331825,-1.9254273,0.27506104,0.9122681,81.0
109,-0.48140335,-0.97648776,1.1331825,-2.1155274,0.6117188,0.98236084,81.0
110,-0.3153472,-1.7547498,1.0450349,-2.1155274,0.6117188,0.98236084,81.0
111,-0.3153472,-1.7547498,1.0450349,-2.0358765,0.85491943,0.88359374,81.0
112,-0.23798323,-2.1453037,0.8335376,-2.0358765,0.85491943,0.88359374,81.0
113,-0.23798323,-2.1453037,0.8335376,-1.6779785,0.89421386,0.55968016,81.0
114,-0.08330655,-2.0448198,0.4621668,-1.6779785,0.89421386,0.55968016,81.0
115,-0.08330655,-2.0448198,0.4621668,-1.0375855,0.91757816,0.13806152,81.0
116,0.06405544,-1.4499793,0.05689168,-1.0375855,0.91757816,0.13806152,81.0
117,0.06405544,-1.4499793,0.05689168,-0.38444826,0.90695804,-0.17629395,81.0
118,0.05563879,-0.62576723,-0.29567313,-0.38444826,0.90695804,-0.17629395,81.0
119,0.05563879,-0.62576723,-0.29567313,0.060534667,0.91120607,-0.34833986,81.0
120,-0.05098462,0.027840853,-0.54824495,0.060534667,0.91120607,-0.34833986,81.0
121,-0.05098462,0.027840853,-0.54824495,0.32285157,0.90695804,-0.39188233,81.0
122,-0.18771172,0.3117137,-0.57155514,0.32285157,0.90695804,-0.39188233,81.0
123,-0.18771172,0.3117137,-0.57155514,0.44073486,0.93138427,-0.31435546,81.0
124,-0.50359964,0.34496427,-0.42191696,0.44073486,0.93138427,-0.31435546,81.0
125,-0.50359964,0.34496427,-0.42191696,0.48533937,1.0683838,-0.16673584,81.0
126,-1.2825305,0.3279978,-0.37781692,0.48533937,1.0683838,-0.16673584,81.0
127,-1.2825305,0.3279978,-0.37781692,0.4630371,1.364685,0.14868164,81.0
128,-2.3486686,0.45695388,-0.7047193,0.4630371,1.364685,0.14868164,81.0
129,-2.3486686,0.45695388,-0.7047193,0.3695801,1.720459,0.4991455,81.0
130,-3.067558,0.75900793,-1.4596863,0.3695801,1.720459,0.4991455,81.0
131,-3.067558,0.75900793,-1.4596863,0.14974366,2.0603027,0.8379273,81.0
132,-2.978485,1.0692791,-2.3836548,0.14974366,2.0603027,0.8379273,81.0
133,-2.978485,1.0692791,-2.3836548,-0.16567384,2.3810303,1.0747559,81.0
134,-2.2026124,1.2691073,-3.0407374,-0.16567384,2.3810303,1.0747559,81.0
135,-2.2026124,1.2691073,-3.0407374,-0.5798584,2.72406,1.2319336,81.0
136,-1.2815112,1.3120877,-3.201755,-0.5798584,2.72406,1.2319336,81.0
137,-1.2815112,1.3120877,-3.201755,-1.002539,3.0267334,1.3827393,81.0
138,-0.67446434,1.1268308,-2.9962795,-1.002539,3.0267334,1.3827393,81.0
139,-0.67446434,1.1268308,-2.9962795,-1.4135376,3.2242677,1.4156617,81.0
140,-0.41779414,0.78569317,-2.684011,-1.4135376,3.2242677,1.4156617,81.0
141,-0.41779414,0.78569317,-2.684011,-1.7809937,3.2943604,1.449646,81.0
142,-0.33205026,0.4727928,-2.410551,-1.7809937,3.2943604,1.449646,81.0
143,-0.33205026,0.4727928,-2.410551,-1.9795898,3.1626709,1.3880494,81.0
144,-0.31488338,0.2848627,-2.160106,-1.9795898,3.1626709,1.3880494,81.0
145,-0.31488338,0.2848627,-2.160106,-1.9487915,2.8706176,1.3211426,81.0
146,-0.38213134,0.22436234,-1.8611169,-1.9487915,2.8706176,1.3211426,81.0
147,-0.38213134,0.22436234,-1.8611169,-1.6864747,2.4489992,1.2308716,81.0
148,-0.5482222,0.24496841,-1.5279684,-1.6864747,2.4489992,1.2308716,81.0
149,-0.5482222,0.24496841,-1.5279684,-1.1990112,1.9594116,1.1544068,81.0
150,-0.7293126,0.3627594,-1.214953,-1.1990112,1.9594116,1.1544068,81.0
151,-0.7293126,0.3627594,-1.214953,-0.64995116,1.4390259,1.0471436,81.0
152,-0.8289335,0.5848975,-0.9467428,-0.64995116,1.4390259,1.0471436,81.0
153,-0.8289335,0.5848975,-0.9467428,-0.09239502,0.8782837,0.96430665,81.0
154,-0.7831419,0.93224907,-0.6734586,-0.09239502,0.8782837,0.96430665,81.0
155,-0.7831419,0.93224907,-0.6734586,0.23258057,0.34090576,0.87615967,81.0
156,-0.6300658,1.2748032,-0.3876071,0.23258057,0.34090576,0.87615967,81.0
157,-0.6300658,1.2748032,-0.3876071,0.31010744,-0.13168946,0.7391602,81.0
158,-0.46384263,1.3923645,-0.13761258,0.31010744,-0.13168946,0.7391602,81.0
159,-0.46384263,1.3923645,-0.13761258,0.24107666,-0.5161377,0.56180423,81.0
160,-0.372954,1.3288941,0.07933855,0.24107666,-0.5161377,0.56180423,81.0
161,-0.372954,1.3288941,0.07933855,0.078588866,-0.814563,0.36639404,81.0
162,-0.3676381,1.1889453,0.26812172,0.078588866,-0.814563,0.36639404,81.0
163,-0.3676381,1.1889453,0.26812172,-0.1263794,-1.0428956,0.1263794,81.0
164,-0.3676381,1.1889453,0.26812172,-0.1263794,-1.0428956,0.1263794,80.0
165,-0.38882494,0.99009657,0.4564042,-0.1263794,-1.0428956,0.1263794,80.0
166,-0.38882494,0.99009657,0.4564042,-0.34090576,-1.2181275,-0.14124756,80.0
167,-0.38806188,0.7442012,0.6393056,-0.34090576,-1.2181275,-0.14124756,80.0
168,-0.38806188,0.7442012,0.6393056,-0.5533081,-1.3498169,-0.41949463,80.0
169,-0.40443134,0.47303438,0.80150795,-0.5533081,-1.3498169,-0.41949463,80.0
170,-0.40443134,0.47303438,0.80150795,-0.72960204,-1.447522,-0.71154785,80.0
171,-0.44314957,0.23429894,1.0115676,-0.72960204,-1.447522,-0.71154785,80.0
172,-0.44314957,0.23429894,1.0115676,-0.84111327,-1.544165,-1.0036011,80.0
173,-0.5178132,0.089380026,1.3070691,-0.84111327,-1.544165,-1.0036011,80.0
174,-0.5178132,0.089380026,1.3070691,-1.0535157,-1.6758546,-1.2372437,80.0
175,-0.44241214,-0.10218978,1.5723519,-1.0535157,-1.6758546,-1.2372437,80.0
176,-0.44241214,-0.10218978,1.5723519,-1.174585,-1.7947998,-1.5048707,80.0
177,-0.06998193,-0.4334731,1.7007405,-1.174585,-1.7947998,-1.5048707,80.0
178,-0.06998193,-0.4334731,1.7007405,-1.1544068,-1.893567,-1.8266602,80.0
179,0.6318562,-0.79089475,1.7291348,-1.1544068,-1.893567,-1.8266602,80.0
180,0.6318562,-0.79089475,1.7291348,-1.1384766,-2.0422485,-2.1473877,80.0
181,1.6713786,-1.2331553,1.8470408,-1.1384766,-2.0422485,-2.1473877,80.0
182,1.6713786,-1.2331553,1.8470408,-1.0205933,-2.1526978,-2.4893556,80.0
183,2.6135921,-1.6881721,2.0874836,-1.0205933,-2.1526978,-2.4893556,80.0
184,2.6135921,-1.6881721,2.0874836,-0.9239502,-2.2408447,-2.7750366,80.0
185,3.2540941,-2.033155,2.1845133,-0.9239502,-2.2408447,-2.7750366,80.0
186,3.2540941,-2.033155,2.1845133,-0.93138427,-2.3619142,-3.0426636,80.0
187,3.9474158,-2.4432597,2.139603,-0.93138427,-2.3619142,-3.0426636,80.0
188,3.9474158,-2.4432597,2.139603,-0.6223389,-2.3884645,-3.2826784,80.0
189,4.8869,-3.0034847,2.3472657,-0.6223389,-2.3884645,-3.2826784,80.0
190,4.8869,-3.0034847,2.3472657,-0.11044922,-2.4139526,-3.42605,80.0
191,5.5851183,-3.7474046,3.0824757,-0.11044922,-2.4139526,-3.42605,80.0
192,5.5851183,-3.7474046,3.0824757,0.63933104,-2.3013794,-3.3718872,80.0
193,4.8406043,-4.496703,3.670021,0.63933104,-2.3013794,-3.3718872,80.0
194,4.8406043,-4.496703,3.670021,1.4772583,-1.8808228,-2.901416,80.0
195,2.6768537,-4.7196283,3.2147522,1.4772583,-1.8808228,-2.901416,80.0
196,2.6768537,-4.7196283,3.2147522,2.3151855,-1.4273437,-2.1537597,80.0
197,0.7764807,-3.7071967,1.8784914,2.3151855,-1.4273437,-2.1537597,80.0
198,0.7764807,-3.7071967,1.8784914,3.0564697,-0.76464844,-1.3147706,80.0
199,0.031633377,-1.2746563,0.35350132,3.0564697,-0.76464844,-1.3147706,80.0
200,0.031633377,-1.2746563,0.35350132,3.0564697,-0.046728518,-0.49383545,80.0
201,-0.023045063,1.3379655,-0.89721584,3.0564697,-0.046728518,-0.49383545,80.0
202,-0.023045063,1.3379655,-0.89721584,2.2833252,0.79969484,0.271875,80.0
203,-0.28767443,2.5357046,-1.6537957,2.2833252,0.79969484,0.271875,80.0
204,-0.28767443,2.5357046,-1.6537957,1.3530029,1.5165528,0.7986328,80.0
205,-0.9611335,2.266503,-1.9245503,1.3530029,1.5165528,0.7986328,80.0
206,-0.9611335,2.266503,-1.9245503,0.6637573,2.1537597,1.2722901,80.0
207,-1.697093,1.4990058,-1.8183146,0.6637573,2.1537597,1.2722901,80.0
208,-1.697093,1.4990058,-1.8183146,0.22939454,2.7368042,1.622754,80.0
209,-2.3767543,0.9249737,-1.4479501,0.22939454,2.7368042,1.622754,80.0
210,-2.3767543,0.9249737,-1.4479501,-0.07115479,3.1053224,1.9721558,80.0
211,-2.9242673,0.6868174,-1.055345,-0.07115479,3.1053224,1.9721558,80.0
212,-2.9242673,0.6868174,-1.055345,-0.27293703,3.3007324,2.2971313,80.0
213,-3.195444,0.6317415,-0.83451045,-0.27293703,3.3007324,2.2971313,80.0
214,-3.195444,0.6317415,-0.83451045,-0.46516114,3.1297486,2.3895264,80.0
215,-3.132283,0.6183326,-0.92817974,-0.46516114,3.1297486,2.3895264,80.0
216,-3.132283,0.6183326,-0.92817974,-0.5235718,2.788843,2.357666,80.0
217,-2.8553016,0.6624762,-1.3410423,-0.5235718,2.788843,2.357666,80.0
218,-2.8553016,0.6624762,-1.3410423,-0.38232422,2.4224489,2.2992554,80.0
219,-2.4770026,0.82014203,-1.9081854,-0.38232422,2.4224489,2.2992554,80.0
220,-2.4770026,0.82014203,-1.9081854,-0.04885254,2.1420777,2.2206666,80.0
221,-2.0098615,1.0491434,-2.4628398,-0.04885254,2.1420777,2.2206666,80.0
222,-2.0098615,1.0491434,-2.4628398,0.3462158,1.9774659,2.1335816,80.0
223,-1.4912632,1.173177,-2.5740926,0.3462158,1.9774659,2.1335816,80.0
224,-1.4912632,1.173177,-2.5740926,0.5150757,1.9424194,2.0433106,80.0
225,-1.0062796,1.3942546,-2.9010468,0.5150757,1.9424194,2.0433106,80.0
226,-1.0062796,1.3942546,-2.9010468,0.88040775,1.814978,1.9179932,80.0
227,-0.5826238,1.3884261,-2.6509764,0.88040775,1.814978,1.9179932,80.0
228,-0.5826238,1.3884261,-2.6509764,0.94731444,1.811792,1.717273,80.0
229,-0.077964246,1.4802722,-2.2429004,0.94731444,1.811792,1.717273,80.0
230,-0.077964246,1.4802722,-2.2429004,0.991919,1.6535523,1.4007934,80.0
231,0.25681806,1.3968886,-1.9790616,0.991919,1.6535523,1.4007934,80.0
232,0.25681806,1.3968886,-1.9790616,0.99935305,1.5908936,1.2595459,80.0
233,0.9040262,1.3651184,-1.7121067,0.99935305,1.5908936,1.2595459,80.0
234,0.9040262,1.3651184,-1.7121067,0.87191164,1.3381348,0.811377,80.0
235,1.0246493,1.1304004,-1.5944047,0.87191164,1.3381348,0.811377,80.0
236,1.0246493,1.1304004,-1.5944047,0.79119873,1.1958252,0.70198977,80.0
237,1.6078175,1.002819,-1.5821276,0.79119873,1.1958252,0.70198977,80.0
238,1.6078175,1.002819,-1.5821276,0.39294434,0.81031495,0.19434814,80.0
239,1.5962882,0.8298186,-1.3874917,0.39294434,0.81031495,0.19434814,80.0
240,1.5962882,0.8298186,-1.3874917,0.23151855,0.6435791,0.038232423,80.0
241,1.824223,0.7020507,-0.9456258,0.23151855,0.6435791,0.038232423,80.0
242,1.824223,0.7020507,-0.9456258,-0.29311523,-0.012744141,-0.37489015,80.0
243,1.5430334,0.4978832,-0.5613713,-0.29311523,-0.012744141,-0.37489015,80.0
244,1.5430334,0.4978832,-0.5613713,-0.42161867,-0.2782471,-0.5012695,80.0
245,1.4330106,0.028811932,0.3946042,-0.42161867,-0.2782471,-0.5012695,80.0
246,1.4330106,0.028811932,0.3946042,-0.41949463,-1.1299804,-0.79013675,80.0
247,1.1055882,-0.16039777,0.7719455,-0.41949463,-1.1299804,-0.79013675,80.0
248,1.1055882,-0.16039777,0.7719455,-0.3419678,-1.4167236,-0.87403566,80.0
249,1.1680887,-0.482432,1.3970122,-0.3419678,-1.4167236,-0.87403566,80.0
250,1.1680887,-0.482432,1.3970122,0.16036378,-2.1611938,-1.0864381,80.0
251,0.7356672,-0.6343343,1.6328685,0.16036378,-2.1611938,-1.0864381,80.0
252,0.7356672,-0.6343343,1.6328685,0.3982544,-2.366162,-1.0673218,80.0
253,-0.27823877,-0.8494718,2.3225179,0.3982544,-2.366162,-1.0673218,80.0
254,-0.27823877,-0.8494718,2.3225179,0.7593384,-2.5647583,-0.95793456,80.0
255,-1.6729939,-0.65444326,2.919013,0.7593384,-2.5647583,-0.95793456,80.0
256,-1.6729939,-0.65444326,2.919013,0.92076415,-2.53396,-0.85598147,80.0
257,-2.3051434,0.1269337,2.7146049,0.92076415,-2.53396,-0.85598147,80.0
258,-2.3051434,0.1269337,2.7146049,0.79332274,-2.3863404,-0.5511841,80.0
259,-1.9239731,0.99941075,1.6368695,0.79332274,-2.3863404,-0.5511841,80.0
260,-1.9239731,0.99941075,1.6368695,0.5150757,-1.9636596,-0.17947999,80.0
261,-1.9239731,0.99941075,1.6368695,0.5150757,-1.9636596,-0.17947999,79.0
262,-1.2838318,1.5381516,-0.15051413,0.5150757,-1.9636596,-0.17947999,79.0
263,-1.2838318,1.5381516,-0.15051413,-0.118945315,-1.1331666,-0.04248047,79.0
264,-1.1796412,1.2548866,-0.31245232,-0.118945315,-1.1331666,-0.04248047,79.0
265,-1.1796412,1.2548866,-0.31245232,-0.4343628,-0.8878418,-0.07752686,79.0
266,-1.755395,0.6854279,-0.049961805,-0.4343628,-0.8878418,-0.07752686,79.0
267,-1.755395,0.6854279,-0.049961805,-1.717273,-0.50020754,-0.18160401,79.0
268,-1.590864,0.36825204,0.34717655,-1.717273,-0.50020754,-0.18160401,79.0
269,-1.590864,0.36825204,0.34717655,-2.0241945,-0.39400634,-0.22089843,79.0
270,-1.3732893,-0.2890532,1.0015694,-2.0241945,-0.39400634,-0.22089843,79.0
271,-1.3732893,-0.2890532,1.0015694,-2.2748291,-0.19222413,-0.39613038,79.0
272,-1.0752428,-0.95806146,1.4242048,-2.2748291,-0.19222413,-0.39613038,79.0
273,-1.0752428,-0.95806146,1.4242048,-2.2387207,-0.11151123,-0.57561034,79.0
274,-0.8107436,-1.4051211,1.571566,-2.2387207,-0.11151123,-0.57561034,79.0
275,-0.8107436,-1.4051211,1.571566,-1.9997681,-0.14655761,-0.8092529,79.0
276,-0.53052855,-1.5464846,1.4505756,-1.9997681,-0.14655761,-0.8092529,79.0
277,-0.53052855,-1.5464846,1.4505756,-1.720459,-0.23045655,-1.0333375,79.0
278,-0.23543358,-1.3899465,1.169335,-1.720459,-0.23045655,-1.0333375,79.0
279,-0.23543358,-1.3899465,1.169335,-1.5239868,-0.35895997,-1.177771,79.0
280,0.08809352,-1.1033268,0.9194646,-1.5239868,-0.35895997,-1.177771,79.0
281,0.08809352,-1.1033268,0.9194646,-1.3816773,-0.46622315,-1.2499878,79.0
282,0.37379515,-0.88096464,0.77589154,-1.3816773,-0.46622315,-1.2499878,79.0
283,0.37379515,-0.88096464,0.77589154,-1.2967163,-0.5331299,-1.265918,79.0
284,0.5767583,-0.7503406,0.66147256,-1.2967163,-0.5331299,-1.265918,79.0
285,0.5767583,-0.7503406,0.66147256,-1.2892822,-0.5501221,-1.2478638,79.0
286,0.7260551,-0.6906045,0.5090853,-1.2892822,-0.5501221,-1.2478638,79.0
287,0.7260551,-0.6906045,0.5090853,-1.3360108,-0.51932377,-1.1809571,79.0
288,0.75585634,-0.7167048,0.35862327,-1.3360108,-0.51932377,-1.1809571,79.0
289,0.75585634,-0.7167048,0.35862327,-1.3806152,-0.46728516,-1.0959961,79.0
290,0.5926367,-0.83131063,0.38322425,-1.3806152,-0.46728516,-1.0959961,79.0
291,0.5926367,-0.83131063,0.38322425,-1.3859253,-0.4354248,-1.0237793,79.0
292,0.2590337,-0.97338593,0.5675169,-1.3859253,-0.4354248,-1.0237793,79.0
293,0.2590337,-0.97338593,0.5675169,-1.3455689,-0.41524658,-0.9589966,79.0
294,-0.11226767,-1.1008401,0.6942723,-1.3455689,-0.41524658,-0.9589966,79.0
295,-0.11226767,-1.1008401,0.6942723,-1.2361816,-0.4343628,-0.905896,79.0
296,-0.25731903,-1.2309163,0.67350864,-1.2361816,-0.4343628,-0.905896,79.0
297,-0.25731903,-1.2309163,0.67350864,-0.998291,-0.47790527,-0.8963379,79.0
298,-0.033064723,-1.3596964,0.6424813,-0.998291,-0.47790527,-0.8963379,79.0
299,-0.033064723,-1.3596964,0.6424813,-0.6701294,-0.51082766,-0.9526245,79.0
300,0.43746424,-1.4411263,0.6951008,-0.6701294,-0.51082766,-0.9526245,79.0
301,0.43746424,-1.4411263,0.6951008,-0.34727785,-0.52038574,-0.9876709,79.0
302,1.0055012,-1.4396932,0.6680436,-0.34727785,-0.52038574,-0.9876709,79.0
303,1.0055012,-1.4396932,0.6680436,-0.13487549,-0.4959595,-0.98129886,79.0
304,1.5157657,-1.3289151,0.3788929,-0.13487549,-0.4959595,-0.98129886,79.0
305,1.5157657,-1.3289151,0.3788929,-0.095581055,-0.46516114,-0.88359374,79.0
306,1.920596,-1.205173,0.020143032,-0.095581055,-0.46516114,-0.88359374,79.0
307,1.920596,-1.205173,0.020143032,-0.087084964,-0.31010744,-0.7104859,79.0
308,2.264834,-1.1654203,-0.09661746,-0.087084964,-0.31010744,-0.7104859,79.0
309,2.264834,-1.1654203,-0.09661746,-0.06690674,-0.26975098,-0.52675784,79.0
310,2.639504,-1.2297606,0.09002781,-0.06690674,-0.26975098,-0.52675784,79.0
311,2.639504,-1.2297606,0.09002781,0.15080567,-0.095581055,-0.27612305,79.0
312,2.429706,-1.3069897,0.42760086,0.15080567,-0.095581055,-0.27612305,79.0
313,2.429706,-1.3069897,0.42760086,0.51826173,0.1529297,0.06690674,79.0
314,1.2605009,-1.1801865,0.34747624,0.51826173,0.1529297,0.06690674,79.0
315,1.2605009,-1.1801865,0.34747624,0.9696167,0.32391357,0.46516114,79.0
316,0.23487782,-0.7454066,-0.35251212,0.9696167,0.32391357,0.46516114,79.0
317,0.23487782,-0.7454066,-0.35251212,1.5887696,0.5734863,0.7614624,79.0
318,0.0985713,-0.13081026,-1.0711944,1.5887696,0.5734863,0.7614624,79.0
319,0.0985713,-0.13081026,-1.0711944,2.1155274,0.8358032,0.9547486,79.0
320,0.75491905,0.4778347,-1.4207739,2.1155274,0.8358032,0.9547486,79.0
321,0.75491905,0.4778347,-1.4207739,2.4224489,1.1512207,1.088562,79.0
322,1.590117,1.0420456,-1.6112285,2.4224489,1.1512207,1.088562,79.0
323,1.590117,1.0420456,-1.6112285,2.524402,1.4889405,1.2128174,79.0
324,1.562047,1.5760558,-1.8849789,2.524402,1.4889405,1.2128174,79.0
325,1.562047,1.5760558,-1.8849789,2.5552003,1.81604,1.4294678,79.0
326,0.19718409,2.139238,-1.9869138,2.5552003,1.81604,1.4294678,79.0
327,0.19718409,2.139238,-1.9869138,2.1548219,1.9721558,1.6939087,79.0
328,-1.5797772,2.5737684,-1.5191088,2.1548219,1.9721558,1.6939087,79.0
329,-1.5797772,2.5737684,-1.5191088,1.3753052,1.9307374,1.905249,79.0
330,-2.694498,2.4506774,-0.8022621,1.3753052,1.9307374,1.905249,79.0
331,-2.694498,2.4506774,-0.8022621,0.6488892,1.7863038,2.0624268,79.0
332,-2.9507887,1.8763988,-0.50824034,0.6488892,1.7863038,2.0624268,79.0
333,-2.9507887,1.8763988,-0.50824034,0.22408448,1.5993897,2.2249146,79.0
334,-2.7421374,1.3414999,-0.74069875,0.22408448,1.5993897,2.2249146,79.0
335,-2.7421374,1.3414999,-0.74069875,0.10089111,1.4868164,2.2822633,79.0
336,-2.4253626,1.0708439,-1.1927055,0.10089111,1.4868164,2.2822633,79.0
337,-2.4253626,1.0708439,-1.1927055,0.27718505,1.3986695,2.340674,79.0
338,-2.0426583,0.96094763,-1.5704852,0.27718505,1.3986695,2.340674,79.0
339,-2.0426583,0.96094763,-1.5704852,0.6552612,1.3774292,2.252527,79.0
340,-1.6337239,0.90873617,-1.7624063,0.6552612,1.3774292,2.252527,79.0
341,-1.6337239,0.90873617,-1.7624063,1.0492676,1.3721192,2.1102173,79.0
342,-1.2069792,1.0084343,-1.76753,1.0492676,1.3721192,2.1102173,79.0
343,-1.2069792,1.0084343,-1.76753,1.3222046,1.3530029,1.9169312,79.0
344,-0.81113994,1.2634369,-1.6421368,1.3222046,1.3530029,1.9169312,79.0
345,-0.81113994,1.2634369,-1.6421368,1.3466309,1.2945923,1.6811646,79.0
346,-0.41823566,1.4676954,-1.4483409,1.3466309,1.2945923,1.6811646,79.0
347,-0.41823566,1.4676954,-1.4483409,1.2372437,1.1905152,1.4156617,79.0
348,-0.012847781,1.4914536,-1.2085505,1.2372437,1.1905152,1.4156617,79.0
349,-0.012847781,1.4914536,-1.2085505,1.0386475,1.0460815,1.1161743,79.0
350,0.326941,1.3383412,-0.9837105,1.0386475,1.0460815,1.1161743,79.0
351,0.326941,1.3383412,-0.9837105,0.78164065,0.86766356,0.81668705,79.0
352,0.6733082,1.1303532,-0.88595533,0.78164065,0.86766356,0.81668705,79.0
353,0.6733082,1.1303532,-0.88595533,0.5331299,0.64570314,0.51932377,79.0
354,1.1484,0.9597025,-0.9329343,0.5331299,0.64570314,0.51932377,79.0
355,1.1484,0.9597025,-0.9329343,0.28674316,0.45029297,0.17629395,79.0
356,1.5933905,0.8097055,-0.9379368,0.28674316,0.45029297,0.17629395,79.0
357,1.5933905,0.8097055,-0.9379368,-0.007434082,0.21452637,-0.13487549,79.0
358,1.5933905,0.8097055,-0.9379368,-0.007434082,0.21452637,-0.13487549,78.0
359,1.7607231,0.6807356,-0.6952834,-0.007434082,0.21452637,-0.13487549,78.0
360,1.7607231,0.6807356,-0.6952834,-0.34833986,-0.11469727,-0.4067505,78.0
361,1.6890961,0.51527953,-0.26217175,-0.34833986,-0.11469727,-0.4067505,78.0
362,1.6890961,0.51527953,-0.26217175,-0.6202149,-0.5055176,-0.7051758,78.0
363,1.5367017,0.18655229,0.2836342,-0.6202149,-0.5055176,-0.7051758,78.0
364,1.5367017,0.18655229,0.2836342,-0.630835,-0.9717407,-1.0120972,78.0
365,1.3493199,-0.27152228,0.885623,-0.630835,-0.9717407,-1.0120972,78.0
366,1.3493199,-0.27152228,0.885623,-0.43117675,-1.4772583,-1.2892822,78.0
367,1.2305791,-0.6157043,1.3945091,-0.43117675,-1.4772583,-1.2892822,78.0
368,1.2305791,-0.6157043,1.3945091,-0.13699952,-1.9785279,-1.5654052,78.0
369,1.0956817,-0.8976538,1.999079,-0.13699952,-1.9785279,-1.5654052,78.0
370,1.0956817,-0.8976538,1.999079,0.31435546,-2.4840455,-1.7597535,78.0
371,0.42830324,-1.3414141,2.9379716,0.31435546,-2.4840455,-1.7597535,78.0
372,0.42830324,-1.3414141,2.9379716,0.81668705,-2.7750366,-1.897815,78.0
373,-0.6591885,-1.4577993,3.758788,0.81668705,-2.7750366,-1.897815,78.0
374,-0.6591885,-1.4577993,3.758788,1.2404298,-2.8281372,-1.9243653,78.0
375,-1.3554881,-0.8898723,3.6288078,1.2404298,-2.8281372,-1.9243653,78.0
376,-1.3554881,-0.8898723,3.6288078,1.4135376,-2.5307739,-1.5962037,78.0
377,-1.4499422,-0.0054647923,2.3511298,1.4135376,-2.5307739,-1.5962037,78.0
378,-1.4499422,-0.0054647923,2.3511298,1.270166,-1.989148,-1.1267945,78.0
379,-1.3285817,0.93060136,0.63557917,1.270166,-1.989148,-1.1267945,78.0
380,-1.3285817,0.93060136,0.63557917,0.5331299,-1.350879,-0.77951664,78.0
381,-1.3220328,1.4799304,-0.6124351,0.5331299,-1.350879,-0.77951664,78.0
382,-1.3220328,1.4799304,-0.6124351,-0.5246338,-0.66588134,-0.5787964,78.0
383,-1.5291594,1.2725554,-0.97503114,-0.5246338,-0.66588134,-0.5787964,78.0
384,-1.5291594,1.2725554,-0.97503114,-1.6535523,-0.14655761,-0.51082766,78.0
385,-1.7034423,0.46640873,-0.74441695,-1.6535523,-0.14655761,-0.51082766,78.0
386,-1.7034423,0.46640873,-0.74441695,-2.5127199,0.2081543,-0.3802002,78.0
387,-1.5759375,-0.5260062,-0.44460583,-2.5127199,0.2081543,-0.3802002,78.0
388,-1.5759375,-0.5260062,-0.44460583,-3.0267334,0.630835,-0.38232422,78.0
389,-1.3382769,-1.387785,-0.2324791,-3.0267334,0.630835,-0.38232422,78.0
390,-1.3382769,-1.387785,-0.2324791,-3.2986085,0.9228882,-0.39294434,78.0
391,-1.1717567,-2.0048814,-0.020944238,-3.2986085,0.9228882,-0.39294434,78.0
392,-1.1717567,-2.0048814,-0.020944238,-3.4164917,1.0970582,-0.42374268,78.0
393,-0.9279938,-2.477672,0.2099902,-3.4164917,1.0970582,-0.42374268,78.0
394,-0.9279938,-2.477672,0.2099902,-3.3262208,1.0152832,-0.7168579,78.0
395,-0.59484863,-2.8052213,0.4108999,-3.3262208,1.0152832,-0.7168579,78.0
396,-0.59484863,-2.8052213,0.4108999,-3.0023072,0.8071289,-1.0779419,78.0
397,-0.3651489,-2.8190794,0.4687712,-3.0023072,0.8071289,-1.0779419,78.0
398,-0.3651489,-2.8190794,0.4687712,-2.4723632,0.49277344,-1.358313,78.0
399,-0.23308599,-2.4328759,0.38882312,-2.4723632,0.49277344,-1.358313,78.0
400,-0.23308599,-2.4328759,0.38882312,-1.7332032,0.13168946,-1.44115,78.0
401,-0.051556587,-1.779577,0.31568497,-1.7332032,0.13168946,-1.44115,78.0
402,-0.051556587,-1.779577,0.31568497,-1.0620117,-0.24320069,-1.3827393,78.0
403,0.22060776,-1.1455731,0.39187902,-1.0620117,-0.24320069,-1.3827393,78.0
404,0.22060776,-1.1455731,0.39187902,-0.5140137,-0.59047854,-1.2818482,78.0
405,0.52276313,-0.7168858,0.6247093,-0.5140137,-0.59047854,-1.2818482,78.0
406,0.52276313,-0.7168858,0.6247093,-0.1720459,-0.8336792,-1.1331666,78.0
407,0.63882816,-0.5222757,0.8468256,-0.1720459,-0.8336792,-1.1331666,78.0
408,0.63882816,-0.5222757,0.8468256,-0.09133301,-0.92501223,-0.93563235,78.0
409,0.50793755,-0.39272308,0.90679395,-0.09133301,-0.92501223,-0.93563235,78.0
410,0.50793755,-0.39272308,0.90679395,-0.14230958,-0.94412845,-0.70092773,78.0
411,0.2717309,-0.22219849,0.73926574,-0.14230958,-0.94412845,-0.70092773,78.0
412,0.2717309,-0.22219849,0.73926574,-0.2347046,-0.8750977,-0.45347902,78.0
413,0.18845403,-0.09654522,0.4386782,-0.2347046,-0.8750977,-0.45347902,78.0
414,0.18845403,-0.09654522,0.4386782,-0.24320069,-0.7869507,-0.26337892,78.0
415,0.5076114,-0.12634516,0.2102809,-0.24320069,-0.7869507,-0.26337892,78.0
416,0.5076114,-0.12634516,0.2102809,-0.13168946,-0.6446411,-0.15080567,78.0
417,1.0229714,-0.33426714,0.20212364,-0.13168946,-0.6446411,-0.15080567,78.0
418,1.0229714,-0.33426714,0.20212364,-0.0063720704,-0.4704712,-0.0998291,78.0
419,1.2307917,-0.5308049,0.4022385,-0.0063720704,-0.4704712,-0.0998291,78.0
420,1.2307917,-0.5308049,0.4022385,0.04460449,-0.3345337,-0.022302246,78.0
421,1.097524,-0.51658726,0.5273938,0.04460449,-0.3345337,-0.022302246,78.0
422,1.097524,-0.51658726,0.5273938,0.04460449,-0.3451538,0.093457036,78.0
423,1.128361,-0.35007405,0.5668125,0.04460449,-0.3451538,0.093457036,78.0
424,1.128361,-0.35007405,0.5668125,0.14761963,-0.31116945,0.15080567,78.0
425,1.3208652,-0.21799874,0.81364286,0.14761963,-0.31116945,0.15080567,78.0
426,1.3208652,-0.21799874,0.81364286,0.32285157,-0.37807617,0.2262085,78.0
427,1.6161525,-0.33448195,1.1291614,0.32285157,-0.37807617,0.2262085,78.0
428,1.6161525,-0.33448195,1.1291614,0.6860596,-0.41418457,0.24213867,78.0
429,1.7538351,-0.6123853,1.2935147,0.6860596,-0.41418457,0.24213867,78.0
430,1.7538351,-0.6123853,1.2935147,1.26698,-0.30161133,0.30054933,78.0
431,1.3627849,-0.68564796,1.0295138,1.26698,-0.30161133,0.30054933,78.0
432,1.3627849,-0.68564796,1.0295138,1.8606446,-0.20178223,0.39613038,78.0
433,1.0702207,-0.39895797,0.26803255,1.8606446,-0.20178223,0.39613038,78.0
434,1.0702207,-0.39895797,0.26803255,2.4553711,0.04460449,0.50233155,78.0
435,1.2024412,0.15059686,-0.5612087,2.4553711,0.04460449,0.50233155,78.0
436,1.2024412,0.15059686,-0.5612087,2.904602,0.37595215,0.60109866,78.0
437,1.5496728,0.70925903,-1.1485887,2.904602,0.37595215,0.60109866,78.0
438,1.5496728,0.70925903,-1.1485887,3.1042602,0.7519043,0.65207523,78.0
439,1.8111739,1.093921,-1.4673084,3.1042602,0.7519043,0.65207523,78.0
440,1.8111739,1.093921,-1.4673084,3.0862062,1.1480347,0.7306641,78.0
441,1.6053722,1.2777126,-1.7130191,3.0862062,1.1480347,0.7306641,78.0
442,1.6053722,1.2777126,-1.7130191,3.0171754,1.5165528,0.8400513,78.0
443,0.7588215,1.588381,-2.0544243,3.0171754,1.5165528,0.8400513,78.0
444,0.7588215,1.588381,-2.0544243,2.9555786,1.8723267,1.1087402,78.0
445,-0.72306967,2.2002583,-2.092929,2.9555786,1.8723267,1.1087402,78.0
446,-0.72306967,2.2002583,-2.092929,2.1580079,2.0040162,1.5101807,78.0
447,-2.0797985,2.5702896,-1.4543604,2.1580079,2.0040162,1.5101807,78.0
448,-2.0797985,2.5702896,-1.4543604,1.1597168,1.9987061,1.8043579,78.0
449,-2.6914876,2.2654114,-0.703979,1.1597168,1.9987061,1.8043579,78.0
450,-2.6914876,2.2654114,-0.703979,0.24320069,1.905249,2.0974731,78.0
451,-2.688334,1.5608643,-0.63266563,0.24320069,1.905249,2.0974731,78.0
452,-2.688334,1.5608643,-0.63266563,-0.19116211,1.8266602,2.337488,78.0
453,-2.3854573,1.0663917,-1.2483078,-0.19116211,1.8266602,2.337488,78.0
454,-2.3854573,1.0663917,-1.2483078,-0.18479005,1.7852417,2.5169678,78.0
455,-1.9955119,0.95244193,-1.9420911,-0.18479005,1.7852417,2.5169678,78.0
456,-1.9955119,0.95244193,-1.9420911,0.040356446,1.7597535,2.5743165,78.0
457,-1.6059432,0.8734282,-2.2161365,0.040356446,1.7597535,2.5743165,78.0
458,-1.6059432,0.8734282,-2.2161365,0.4078125,1.7597535,2.4288208,78.0
459,-1.2662243,0.77485347,-2.0726285,0.4078125,1.7597535,2.4288208,78.0
460,-1.2662243,0.77485347,-2.0726285,0.70198977,1.720459,2.1983643,78.0
461,-1.0057406,0.83610594,-1.7867284,0.70198977,1.720459,2.1983643,78.0
462,-1.0057406,0.83610594,-1.7867284,0.8251831,1.627002,1.897815,78.0
463,-0.8326688,1.0379522,-1.5248418,0.8251831,1.627002,1.897815,78.0
464,-0.8326688,1.0379522,-1.5248418,0.7742066,1.4804443,1.5537232,78.0
465,-0.69539523,1.225479,-1.291358,0.7742066,1.4804443,1.5537232,78.0
466,-0.69539523,1.225479,-1.291358,0.6180908,1.263794,1.2149414,78.0
467,-0.69539523,1.225479,-1.291358,0.6180908,1.263794,1.2149414,78.0
468,-0.46505648,1.2783935,-1.049566,0.6180908,1.263794,1.2149414,78.0
469,-0.46505648,1.2783935,-1.049566,0.43861085,1.0004151,0.88253176,78.0
470,-0.034935832,1.1705909,-0.8637252,0.43861085,1.0004151,0.88253176,78.0
471,-0.034935832,1.1705909,-0.8637252,0.25806886,0.72854006,0.56392825,78.0
472,0.56840146,0.99521303,-0.7978039,0.25806886,0.72854006,0.56392825,78.0
473,0.56840146,0.99521303,-0.7978039,0.121069334,0.42161867,0.24001466,78.0
474,1.1153657,0.8083408,-0.75844574,0.121069334,0.42161867,0.24001466,78.0
475,1.1153657,0.8083408,-0.75844574,-0.009558106,0.118945315,-0.10089111,78.0
476,1.4245679,0.6887989,-0.5831971,-0.009558106,0.118945315,-0.10089111,78.0
477,1.4245679,0.6887989,-0.5831971,-0.21877442,-0.25913087,-0.4343628,78.0
478,1.601068,0.64118814,-0.24097157,-0.21877442,-0.25913087,-0.4343628,78.0
479,1.601068,0.64118814,-0.24097157,-0.5012695,-0.6818115,-0.80181885,78.0
480,1.7084056,0.4257679,0.2955408,-0.5012695,-0.6818115,-0.80181885,78.0
481,1.7084056,0.4257679,0.2955408,-0.5894165,-1.1841431,-1.174585,78.0
482,1.6720712,0.020961046,0.954267,-0.5894165,-1.1841431,-1.174585,78.0
483,1.6720712,0.020961046,0.954267,-0.48640138,-1.724707,-1.540979,78.0
484,1.7348127,-0.36640978,1.4906354,-0.48640138,-1.724707,-1.540979,78.0
485,1.7348127,-0.36640978,1.4906354,-0.25700685,-2.2461548,-1.910559,78.0
486,2.01213,-0.7266116,1.9251499,-0.25700685,-2.2461548,-1.910559,78.0
487,2.01213,-0.7266116,1.9251499,0.1539917,-2.7739747,-2.2153566,78.0
488,1.874084,-1.2298489,2.6723344,0.1539917,-2.7739747,-2.2153566,78.0
489,1.874084,-1.2298489,2.6723344,0.631897,-3.2104614,-2.3980224,78.0
490,0.77313185,-1.641423,3.7113783,0.631897,-3.2104614,-2.3980224,78.0
491,0.77313185,-1.641423,3.7113783,1.1161743,-3.349585,-2.529712,78.0
492,-0.7452884,-1.4227698,4.170311,1.1161743,-3.349585,-2.529712,78.0
493,-0.7452884,-1.4227698,4.170311,1.360437,-3.167981,-2.1983643,78.0
494,-1.72731,-0.68639696,3.3251529,1.360437,-3.167981,-2.1983643,78.0
495,-1.72731,-0.68639696,3.3251529,1.3891114,-2.7028198,-1.6546143,78.0
496,-1.8583494,0.20381212,1.4896755,1.3891114,-2.7028198,-1.6546143,78.0
497,-1.8583494,0.20381212,1.4896755,1.0609497,-2.0603027,-1.2266235,78.0
498,-1.5976903,0.952991,-0.2081253,1.0609497,-2.0603027,-1.2266235,78.0
499,-1.5976903,0.952991,-0.2081253,0.1720459,-1.3774292,-0.94731444,78.0
500,-1.3377104,1.1129787,-0.8770105,0.1720459,-1.3774292,-0.94731444,78.0
501,-1.3377104,1.1129787,-0.8770105,-1.0046631,-0.7699585,-0.8496094,78.0
502,-1.165725,0.55840063,-0.6685029,-1.0046631,-0.7699585,-0.8496094,78.0
503,-1.165725,0.55840063,-0.6685029,-2.2026124,-0.20496826,-0.74659425,78.0
504,-1.1108271,-0.40771055,-0.26481944,-2.2026124,-0.20496826,-0.74659425,78.0
505,-1.1108271,-0.40771055,-0.26481944,-3.1170044,0.2803711,-0.66588134,78.0
506,-1.09269,-1.4224087,-0.099575296,-3.1170044,0.2803711,-0.66588134,78.0
507,-1.09269,-1.4224087,-0.099575296,-3.628894,0.7051758,-0.54906005,78.0
508,-1.0744084,-2.17041,-0.038546965,-3.628894,0.7051758,-0.54906005,78.0
509,-1.0744084,-2.17041,-0.038546965,-3.8359864,0.97492677,-0.4895874,78.0
510,-1.0487113,-2.5676389,0.06952864,-3.8359864,0.97492677,-0.4895874,78.0
511,-1.0487113,-2.5676389,0.06952864,-3.8731568,1.1236085,-0.42905274,78.0
512,-0.9992108,-2.7544286,0.23490758,-3.8731568,1.1236085,-0.42905274,78.0
513,-0.9992108,-2.7544286,0.23490758,-3.6989868,1.0184692,-0.5522461,78.0
514,-0.94364357,-2.7455473,0.32363164,-3.6989868,1.0184692,-0.5522461,78.0
515,-0.94364357,-2.7455473,0.32363164,-3.2763062,0.7827026,-0.6956177,78.0
516,-0.8830887,-2.428945,0.22280912,-3.2763062,0.7827026,-0.6956177,78.0
517,-0.8830887,-2.428945,0.22280912,-2.6720216,0.49383545,-0.77102053,78.0
518,-0.7401624,-1.8341473,0.042944565,-2.6720216,0.49383545,-0.77102053,78.0
519,-0.7401624,-1.8341473,0.042944565,-1.9530395,0.16673584,-0.7593384,78.0
520,-0.45532572,-1.1775596,-0.023017392,-1.9530395,0.16673584,-0.7593384,78.0
521,-0.45532572,-1.1775596,-0.023017392,-1.2945923,-0.14337158,-0.71154785,78.0
522,-0.09820831,-0.6815984,0.11464273,-1.2945923,-0.14337158,-0.71154785,78.0
523,-0.09820831,-0.6815984,0.11464273,-0.80819094,-0.42374268,-0.66269535,78.0
524,0.20884788,-0.37496614,0.37689486,-0.80819094,-0.42374268,-0.66269535,78.0
525,0.20884788,-0.37496614,0.37689486,-0.52888185,-0.6180908,-0.59260255,78.0
526,0.3254279,-0.18753386,0.64743876,-0.52888185,-0.6180908,-0.59260255,78.0
527,0.3254279,-0.18753386,0.64743876,-0.3982544,-0.7434082,-0.5033936,78.0
528,0.20444632,-0.042214394,0.86818296,-0.3982544,-0.7434082,-0.5033936,78.0
529,0.20444632,-0.042214394,0.86818296,-0.3536499,-0.7869507,-0.42161867,78.0
530,0.02825433,0.068169355,0.96876514,-0.3536499,-0.7869507,-0.42161867,78.0
531,0.02825433,0.068169355,0.96876514,-0.29523927,-0.79119873,-0.3430298,78.0
532,0.042488694,0.106464386,0.89455557,-0.29523927,-0.79119873,-0.3430298,78.0
533,0.042488694,0.106464386,0.89455557,-0.22727051,-0.77526855,-0.28674316,78.0
534,0.30574393,0.03413391,0.71498525,-0.22727051,-0.77526855,-0.28674316,78.0
535,0.30574393,0.03413391,0.71498525,-0.1274414,-0.6988037,-0.2527588,78.0
536,0.78001994,-0.13356924,0.5325229,-0.1274414,-0.6988037,-0.2527588,78.0
537,0.78001994,-0.13356924,0.5325229,-0.010620117,-0.61065674,-0.25913087,78.0
538,1.3004808,-0.2916212,0.4306692,-0.010620117,-0.61065674,-0.25913087,78.0
539,1.3004808,-0.2916212,0.4306692,0.04885254,-0.4895874,-0.25063476,78.0
540,1.7950112,-0.3767295,0.37888598,0.04885254,-0.4895874,-0.25063476,78.0
541,1.7950112,-0.3767295,0.37888598,0.09133301,-0.44923097,-0.22727051,78.0
542,2.141844,-0.46083188,0.4237752,0.09133301,-0.44923097,-0.22727051,78.0
543,2.141844,-0.46083188,0.4237752,0.22833252,-0.3802002,-0.16673584,78.0
544,2.430443,-0.58158064,0.61063886,0.22833252,-0.3802002,-0.16673584,78.0
545,2.430443,-0.58158064,0.61063886,0.48427734,-0.4439209,-0.13168946,78.0
546,2.7881289,-0.7209163,0.9298196,0.48427734,-0.4439209,-0.13168946,78.0
547,2.7881289,-0.7209163,0.9298196,0.93350834,-0.3727661,-0.078588866,78.0
548,2.3657691,-0.805212,1.2650471,0.93350834,-0.3727661,-0.078588866,78.0
549,2.3657691,-0.805212,1.2650471,1.4262818,-0.21558838,0.06903076,78.0
550,0.984339,-0.69893026,1.0373185,1.4262818,-0.21558838,0.06903076,78.0
551,0.984339,-0.69893026,1.0373185,1.8861328,-0.0637207,0.29523927,78.0
552,-0.11049032,-0.30240583,0.08800912,1.8861328,-0.0637207,0.29523927,78.0
553,-0.11049032,-0.30240583,0.08800912,2.3056276,0.19328614,0.54375,78.0
554,-0.108204365,0.33069515,-0.9621,2.3056276,0.19328614,0.54375,78.0
555,-0.108204365,0.33069515,-0.9621,2.5976808,0.5299439,0.725354,78.0
556,0.62620497,0.8957329,-1.6725488,2.5976808,0.5299439,0.725354,78.0
557,0.62620497,0.8957329,-1.6725488,2.642285,0.96430665,0.813501,78.0
558,1.1534421,1.167038,-2.0261617,2.642285,0.96430665,0.813501,78.0
559,1.1534421,1.167038,-2.0261617,2.5636964,1.3848633,0.9133301,78.0
560,0.85678697,1.2291749,-2.22934,2.5636964,1.3848633,0.9133301,78.0
561,0.85678697,1.2291749,-2.22934,2.4670532,1.7544434,1.0545777,78.0
562,-0.25615978,1.3450708,-2.285303,2.4670532,1.7544434,1.0545777,78.0
563,-0.25615978,1.3450708,-2.285303,2.2004883,1.9700317,1.2892822,78.0
564,-0.25615978,1.3450708,-2.285303,2.2004883,1.9700317,1.2892822,80.0
565,-1.5235314,1.5976266,-1.891951,2.2004883,1.9700317,1.2892822,80.0
566,-1.5235314,1.5976266,-1.891951,1.5898316,1.9700317,1.5144287,80.0
567,-2.1200824,1.7964851,-1.0634509,1.5898316,1.9700317,1.5144287,80.0
568,-2.1200824,1.7964851,-1.0634509,0.7890747,1.8298463,1.7002808,80.0
569,-2.0325894,1.5628228,-0.43674707,0.7890747,1.8298463,1.7002808,80.0
570,-2.0325894,1.5628228,-0.43674707,0.21558838,1.6429322,1.8744507,80.0
571,-1.8069918,1.005898,-0.5800861,0.21558838,1.6429322,1.8744507,80.0
572,-1.8069918,1.005898,-0.5800861,0.009558106,1.5112427,1.9944581,80.0
573,-1.6434817,0.7049259,-1.3245547,0.009558106,1.5112427,1.9944581,80.0
574,-1.6434817,0.7049259,-1.3245547,0.1083252,1.4347779,2.1282716,80.0
575,-1.5203519,0.66228056,-2.0053713,0.1083252,1.4347779,2.1282716,80.0
576,-1.5203519,0.66228056,-2.0053713,0.34727785,1.44115,2.1091554,80.0
577,-1.3437107,0.65547144,-2.177771,0.34727785,1.44115,2.1091554,80.0
578,-1.3437107,0.65547144,-2.177771,0.68712157,1.4315919,2.0560548,80.0
579,-1.0311332,0.7468504,-1.9256887,0.68712157,1.4315919,2.0560548,80.0
580,-1.0311332,0.7468504,-1.9256887,0.994043,1.4050416,1.9169312,80.0
581,-0.71643484,1.0059397,-1.5851068,0.994043,1.4050416,1.9169312,80.0
582,-0.71643484,1.0059397,-1.5851068,1.0503296,1.3253907,1.7480713,80.0
583,-0.51229584,1.2640047,-1.3285959,1.0503296,1.3253907,1.7480713,80.0
584,-0.51229584,1.2640047,-1.3285959,0.97492677,1.2021973,1.538855,80.0
585,-0.3397317,1.3622414,-1.0949323,0.97492677,1.2021973,1.538855,80.0
586,-0.3397317,1.3622414,-1.0949323,0.84323734,1.0227174,1.3264526,80.0
587,-0.03916815,1.326756,-0.8665099,0.84323734,1.0227174,1.3264526,80.0
588,-0.03916815,1.326756,-0.8665099,0.7062378,0.80819094,1.088562,80.0
589,0.38890475,1.1949742,-0.7351024,0.7062378,0.80819094,1.088562,80.0
590,0.38890475,1.1949742,-0.7351024,0.5692383,0.59047854,0.815625,80.0
591,0.8661165,1.0554788,-0.69317245,0.5692383,0.59047854,0.815625,80.0
592,0.8661165,1.0554788,-0.69317245,0.45347902,0.31966552,0.5331299,80.0
593,1.2700173,0.9752424,-0.5429292,0.45347902,0.31966552,0.5331299,80.0
594,1.2700173,0.9752424,-0.5429292,0.3164795,0.052038576,0.18585205,80.0
595,1.3863629,0.9374082,-0.18672371,0.3164795,0.052038576,0.18585205,80.0
596,1.3863629,0.9374082,-0.18672371,0.0722168,-0.30161133,-0.14337158,80.0
597,1.3224082,0.9027586,0.18701029,0.0722168,-0.30161133,-0.14337158,80.0
598,1.3224082,0.9027586,0.18701029,-0.24851075,-0.6775635,-0.53950197,80.0
599,1.2990155,0.6691551,0.5561023,-0.24851075,-0.6775635,-0.53950197,80.0
600,1.2990155,0.6691551,0.5561023,-0.4056885,-1.0938721,-0.9600586,80.0
601,1.3616245,0.2690766,1.0349941,-0.4056885,-1.0938721,-0.9600586,80.0
602,1.3616245,0.2690766,1.0349941,-0.4248047,-1.5420411,-1.3678712,80.0
603,1.4706717,-0.16938233,1.6554124,-0.4248047,-1.5420411,-1.3678712,80.0
604,1.4706717,-0.16938233,1.6554124,-0.28780517,-2.0125122,-1.7406372,80.0
605,1.2334709,-0.7386675,2.520778,-0.28780517,-2.0125122,-1.7406372,80.0
606,1.2334709,-0.7386675,2.520778,0.05522461,-2.4224489,-1.9710938,80.0
607,0.23265076,-1.3142738,3.5190272,0.05522461,-2.4224489,-1.9710938,80.0
608,0.23265076,-1.3142738,3.5190272,0.52888185,-2.5849366,-2.2111084,80.0
609,-1.085022,-1.3208283,3.9743648,0.52888185,-2.5849366,-2.2111084,80.0
610,-1.085022,-1.3208283,3.9743648,0.84748536,-2.5881226,-2.0974731,80.0
611,-1.875293,-0.73765624,3.3143187,0.84748536,-2.5881226,-2.0974731,80.0
612,-1.875293,-0.73765624,3.3143187,0.9855469,-2.2843874,-1.6896607,80.0
613,-1.963296,-0.14126027,1.736489,0.9855469,-2.2843874,-1.6896607,80.0
614,-1.963296,-0.14126027,1.736489,1.0259033,-1.8202881,-1.269104,80.0
615,-1.7156198,0.27783656,0.050165385,1.0259033,-1.8202881,-1.269104,80.0
616,-1.7156198,0.27783656,0.050165385,0.72960204,-1.356189,-1.0428956,80.0
617,-1.4081649,0.4199865,-0.97455275,0.72960204,-1.356189,-1.0428956,80.0
618,-1.4081649,0.4199865,-0.97455275,0.0541626,-0.905896,-0.9526245,80.0
619,-1.1427184,0.15106487,-1.049857,0.0541626,-0.905896,-0.9526245,80.0
620,-1.1427184,0.15106487,-1.049857,-0.8209351,-0.59260255,-0.8973999,80.0
621,-0.83834463,-0.5077858,-0.5209892,-0.8209351,-0.59260255,-0.8973999,80.0
622,-0.83834463,-0.5077858,-0.5209892,-1.5059327,-0.26550293,-0.9759888,80.0
623,-0.5498017,-1.4103425,0.09215641,-1.5059327,-0.26550293,-0.9759888,80.0
624,-0.5498017,-1.4103425,0.09215641,-1.9434814,0.02442627,-0.998291,80.0
625,-0.41618413,-2.3238306,0.56616896,-1.9434814,0.02442627,-0.998291,80.0
626,-0.41618413,-2.3238306,0.56616896,-2.0624268,0.12531738,-1.0598878,80.0
627,-0.32297415,-3.0659738,0.9006769,-2.0624268,0.12531738,-1.0598878,80.0
628,-0.32297415,-3.0659738,0.9006769,-1.7873658,0.020178223,-1.2914063,80.0
629,-0.19135052,-3.5448933,1.2601656,-1.7873658,0.020178223,-1.2914063,80.0
630,-0.19135052,-3.5448933,1.2601656,-1.1246704,-0.25806886,-1.5792115,80.0
631,-0.03318298,-3.6113296,1.7066921,-1.1246704,-0.25806886,-1.5792115,80.0
632,-0.03318298,-3.6113296,1.7066921,-0.18372802,-0.6690674,-1.713025,80.0
633,0.14803857,-3.2860732,2.022446,-0.18372802,-0.6690674,-1.713025,80.0
634,0.14803857,-3.2860732,2.022446,0.79013675,-1.0556396,-1.7300171,80.0
635,0.3384626,-2.8825817,2.046338,0.79013675,-1.0556396,-1.7300171,80.0
636,0.3384626,-2.8825817,2.046338,1.6843506,-1.2882203,-1.6631104,80.0
637,0.5685118,-2.5203109,1.9169655,1.6843506,-1.2882203,-1.6631104,80.0
638,0.5685118,-2.5203109,1.9169655,2.3789062,-1.3763672,-1.4698242,80.0
639,0.8508055,-1.9245496,1.6849275,2.3789062,-1.3763672,-1.4698242,80.0
640,0.8508055,-1.9245496,1.6849275,2.6964478,-1.170337,-1.1119263,80.0
641,0.9666796,-0.80069923,1.2119188,2.6964478,-1.170337,-1.1119263,80.0
642,0.9666796,-0.80069923,1.2119188,2.5010376,-0.8315552,-0.5787964,80.0
643,0.7105385,0.5208664,0.54049444,2.5010376,-0.8315552,-0.5787964,80.0
644,0.7105385,0.5208664,0.54049444,1.988086,-0.38763428,-0.04991455,80.0
645,0.27404606,1.3960509,-0.088869095,1.988086,-0.38763428,-0.04991455,80.0
646,0.27404606,1.3960509,-0.088869095,1.4634522,0.014868164,0.38444826,80.0
647,-0.03630513,1.4548047,-0.4603896,1.4634522,0.014868164,0.38444826,80.0
648,-0.03630513,1.4548047,-0.4603896,1.2085694,0.40250245,0.6159668,80.0
649,-0.070950836,0.9553232,-0.55056286,1.2085694,0.40250245,0.6159668,80.0
650,-0.070950836,0.9553232,-0.55056286,1.2117554,0.66481936,0.7657105,80.0
651,0.29657185,0.36034012,-0.5171349,1.2117554,0.66481936,0.7657105,80.0
652,0.29657185,0.36034012,-0.5171349,1.4241577,0.9505005,0.7858887,80.0
653,0.9016862,-0.035959005,-0.4964106,1.4241577,0.9505005,0.7858887,80.0
654,0.9016862,-0.035959005,-0.4964106,1.6673584,1.2234375,0.7805786,80.0
655,1.2614491,-0.09114528,-0.4879856,1.6673584,1.2234375,0.7805786,80.0
656,1.2614491,-0.09114528,-0.4879856,1.7608155,1.4305298,0.81243896,80.0
657,1.1644938,0.12179804,-0.60690475,1.7608155,1.4305298,0.81243896,80.0
658,1.1644938,0.12179804,-0.60690475,1.6939087,1.448584,0.87615967,80.0
659,1.1271517,0.45619082,-0.885365,1.6939087,1.448584,0.87615967,80.0
660,1.1271517,0.45619082,-0.885365,1.713025,1.3774292,0.91120607,80.0
661,1.2588503,0.78021145,-1.1401036,1.713025,1.3774292,0.91120607,80.0
662,1.2588503,0.78021145,-1.1401036,1.7618774,1.2776002,1.0004151,80.0
663,1.519861,0.8733635,-1.2393411,1.7618774,1.2776002,1.0004151,80.0
664,1.519861,0.8733635,-1.2393411,1.814978,1.0641358,1.0259033,80.0
665,2.0640333,0.6050751,-0.9801204,1.814978,1.0641358,1.0259033,80.0
666,2.0640333,0.6050751,-0.9801204,2.0008302,0.87191164,0.9324463,80.0
667,1.8652039,0.2297144,-0.5794333,2.0008302,0.87191164,0.9324463,80.0
668,1.8652039,0.2297144,-0.5794333,2.085791,0.8251831,0.9802368,80.0
669,1.8652039,0.2297144,-0.5794333,2.085791,0.8251831,0.9802368,80.0
670,0.438977,0.120075226,-0.8230803,2.085791,0.8251831,0.9802368,80.0
671,0.438977,0.120075226,-0.8230803,2.075171,0.92926025,1.1172364,80.0
672,-1.0913112,0.31678772,-1.7661912,2.075171,0.92926025,1.1172364,80.0
673,-1.0913112,0.31678772,-1.7661912,2.1558838,1.1246704,1.2340577,80.0
674,-1.5176413,0.7036011,-2.6278334,2.1558838,1.1246704,1.2340577,80.0
675,-1.5176413,0.7036011,-2.6278334,2.1845582,1.3168945,1.2499878,80.0
676,-0.7400532,0.92530775,-2.797213,2.1845582,1.3168945,1.2499878,80.0
677,-0.7400532,0.92530775,-2.797213,2.0932252,1.5218629,1.1682129,80.0
678,0.43426347,0.6862912,-2.3202777,2.0932252,1.5218629,1.1682129,80.0
679,0.43426347,0.6862912,-2.3202777,1.9445435,1.6662964,0.9388184,80.0
680,0.88375115,0.23046613,-1.6443326,1.9445435,1.6662964,0.9388184,80.0
681,0.88375115,0.23046613,-1.6443326,1.4857544,1.6822265,0.7349121,80.0
682,0.11896372,-0.114943504,-1.2024412,1.4857544,1.6822265,0.7349121,80.0
683,0.11896372,-0.114943504,-1.2024412,0.85598147,1.6015137,0.7189819,80.0
684,-1.1011667,-0.13715744,-1.1630149,0.85598147,1.6015137,0.7189819,80.0
685,-1.1011667,-0.13715744,-1.1630149,0.3154175,1.5123047,0.93563235,80.0
686,-1.9370492,0.09901428,-1.277055,0.3154175,1.5123047,0.93563235,80.0
687,-1.9370492,0.09901428,-1.277055,0.020178223,1.4358399,1.2404298,80.0
688,-2.2227106,0.3453002,-1.2723277,0.020178223,1.4358399,1.2404298,80.0
689,-2.2227106,0.3453002,-1.2723277,0.070092775,1.3413209,1.544165,80.0
690,-2.1257026,0.46050525,-1.1687655,0.070092775,1.3413209,1.544165,80.0
691,-2.1257026,0.46050525,-1.1687655,0.2782471,1.2298096,1.7565674,80.0
692,-1.7571661,0.52880454,-1.0612819,0.2782471,1.2298096,1.7565674,80.0
693,-1.7571661,0.52880454,-1.0612819,0.54375,1.1034302,1.9371094,80.0
694,-1.2893267,0.6016203,-1.0140035,0.54375,1.1034302,1.9371094,80.0
695,-1.2893267,0.6016203,-1.0140035,0.80606693,1.0418335,1.9848999,80.0
696,-0.87464976,0.7374487,-0.98438406,0.80606693,1.0418335,1.9848999,80.0
697,-0.87464976,0.7374487,-0.98438406,1.0365235,0.94412845,2.0114503,80.0
698,-0.53461975,0.9870782,-0.918684,1.0365235,0.94412845,2.0114503,80.0
699,-0.53461975,0.9870782,-0.918684,1.0779419,0.8623535,1.906311,80.0
700,-0.31039843,1.2347797,-0.7660384,1.0779419,0.8623535,1.906311,80.0
701,-0.31039843,1.2347797,-0.7660384,1.002539,0.72854006,1.7608155,80.0
702,-0.17911708,1.3564152,-0.4803233,1.002539,0.72854006,1.7608155,80.0
703,-0.17911708,1.3564152,-0.4803233,0.90802,0.53950197,1.5993897,80.0
704,-0.021028042,1.3332766,-0.15541315,0.90802,0.53950197,1.5993897,80.0
705,-0.021028042,1.3332766,-0.15541315,0.83474123,0.32178956,1.447522,80.0
706,0.26998177,1.2891312,0.099253654,0.83474123,0.32178956,1.447522,80.0
707,0.26998177,1.2891312,0.099253654,0.814563,0.08920898,1.2945923,80.0
708,0.6948551,1.270868,0.23401737,0.814563,0.08920898,1.2945923,80.0
709,0.6948551,1.270868,0.23401737,0.8251831,-0.14124756,1.1002442,80.0
710,1.194092,1.2591382,0.3486395,0.8251831,-0.14124756,1.1002442,80.0
711,1.194092,1.2591382,0.3486395,0.85598147,-0.37382814,0.8995239,80.0
712,1.5952883,1.241417,0.55994177,0.85598147,-0.37382814,0.8995239,80.0
713,1.5952883,1.241417,0.55994177,0.86766356,-0.6138428,0.72641605,80.0
714,1.8119118,1.2639344,0.83946943,0.86766356,-0.6138428,0.72641605,80.0
715,1.8119118,1.2639344,0.83946943,0.8496094,-0.8527954,0.5734863,80.0
716,1.9019465,1.3711573,0.9521055,0.8496094,-0.8527954,0.5734863,80.0
717,1.9019465,1.3711573,0.9521055,0.7391602,-1.0524536,0.362146,80.0
718,1.9447017,1.4282124,0.9746847,0.7391602,-1.0524536,0.362146,80.0
719,1.9447017,1.4282124,0.9746847,0.59472656,-1.2372437,0.090270996,80.0
720,1.8658078,1.4112225,1.2016473,0.59472656,-1.2372437,0.090270996,80.0
721,1.8658078,1.4112225,1.2016473,0.42799073,-1.4273437,-0.22196046,80.0
722,1.7078319,1.383702,1.5431781,0.42799073,-1.4273437,-0.22196046,80.0
723,1.7078319,1.383702,1.5431781,0.08496094,-1.6503662,-0.54906005,80.0
724,1.3302548,1.1474524,1.9551356,0.08496094,-1.6503662,-0.54906005,80.0
725,1.3302548,1.1474524,1.9551356,-0.3175415,-1.8330323,-0.8050049,80.0
726,0.24363518,0.588433,2.692624,-0.3175415,-1.8330323,-0.8050049,80.0
727,0.24363518,0.588433,2.692624,-0.4619751,-1.9392334,-1.0142212,80.0
728,-1.3967056,0.06244564,3.5405617,-0.4619751,-1.9392334,-1.0142212,80.0
729,-1.3967056,0.06244564,3.5405617,-0.33878174,-1.8468384,-1.1182984,80.0
730,-2.7256896,0.00385046,3.7382236,-0.33878174,-1.8468384,-1.1182984,80.0
731,-2.7256896,0.00385046,3.7382236,-0.2623169,-1.6832886,-1.1119263,80.0
732,-3.019187,0.44908857,2.7719631,-0.2623169,-1.6832886,-1.1119263,80.0
733,-3.019187,0.44908857,2.7719631,-0.3430298,-1.358313,-0.9218262,80.0
734,-2.4047418,0.89684415,0.9556564,-0.3430298,-1.358313,-0.9218262,80.0
735,-2.4047418,0.89684415,0.9556564,-0.5957886,-0.9589966,-0.89421386,80.0
736,-1.7764668,0.80486536,0.040758014,-0.5957886,-0.9589966,-0.89421386,80.0
737,-1.7764668,0.80486536,0.040758014,-0.79119873,-0.74447024,-0.9600586,80.0
738,-0.8377872,0.3021443,-1.8528551,-0.79119873,-0.74447024,-0.9600586,80.0
739,-0.8377872,0.3021443,-1.8528551,-1.8670167,0.0361084,-1.2892822,80.0
740,-0.60220003,-0.15680742,-1.789535,-1.8670167,0.0361084,-1.2892822,80.0
741,-0.60220003,-0.15680742,-1.789535,-2.3194337,0.21558838,-1.358313,80.0
742,-0.42096898,-1.4583073,-2.02926,-2.3194337,0.21558838,-1.358313,80.0
743,-0.42096898,-1.4583073,-2.02926,-3.449414,0.8581055,-1.4825684,80.0
744,-0.30734405,-1.7324052,-1.8411325,-3.449414,0.8581055,-1.4825684,80.0
745,-0.30734405,-1.7324052,-1.8411325,-3.708545,1.0790039,-1.4677002,80.0
746,-0.14414184,-3.0899892,-1.3999202,-3.708545,1.0790039,-1.4677002,80.0
747,-0.14414184,-3.0899892,-1.3999202,-4.1184816,1.4337158,-1.5261109,80.0
748,0.0022524502,-3.0433414,-0.9549582,-4.1184816,1.4337158,-1.5261109,80.0
749,0.0022524502,-3.0433414,-0.9549582,-4.082373,1.442212,-1.6185058,80.0
750,0.08489522,-3.8508108,0.33483708,-4.082373,1.442212,-1.6185058,80.0
751,0.08489522,-3.8508108,0.33483708,-3.5471191,0.9802368,-2.0496826,80.0
752,-0.057340167,-3.5188932,0.5599351,-3.5471191,0.9802368,-2.0496826,80.0
753,-0.057340167,-3.5188932,0.5599351,-3.1191285,0.7072998,-2.1452637,80.0
754,-0.5479717,-3.1755152,0.8560413,-3.1191285,0.7072998,-2.1452637,80.0
755,-0.5479717,-3.1755152,0.8560413,-1.6206299,-0.24213867,-2.075171,80.0
756,-0.55040133,-2.5946357,0.64728427,-1.6206299,-0.24213867,-2.075171,80.0
757,-0.55040133,-2.5946357,0.64728427,-1.1958252,-0.5012695,-2.0029542,80.0
758,-0.30792361,-1.708509,0.061723888,-1.1958252,-0.5012695,-2.0029542,80.0
759,-0.30792361,-1.708509,0.061723888,-0.33028564,-1.0163453,-1.7682495,80.0
760,-0.13465676,-1.4818096,0.11113453,-0.33028564,-1.0163453,-1.7682495,80.0
761,-0.13465676,-1.4818096,0.11113453,-0.12531738,-1.1331666,-1.6609863,80.0
762,0.31129315,-1.1816757,0.41833878,-0.12531738,-1.1331666,-1.6609863,80.0
763,0.31129315,-1.1816757,0.41833878,0.1539917,-1.2160034,-1.2308716,80.0
764,0.27044564,-1.0319738,0.6052765,0.1539917,-1.2160034,-1.2308716,80.0
765,0.27044564,-1.0319738,0.6052765,0.14549561,-1.1692749,-1.0715698,80.0
766,-0.005079016,-0.6155937,0.721355,0.14549561,-1.1692749,-1.0715698,80.0
767,-0.005079016,-0.6155937,0.721355,-0.05522461,-1.0609497,-0.7317261,80.0
768,-0.4597273,-0.052179575,0.6777066,-0.05522461,-1.0609497,-0.7317261,80.0
769,-0.4597273,-0.052179575,0.6777066,-0.35471192,-0.94731444,-0.41737062,80.0
770,-0.5980919,0.3434372,0.67680883,-0.35471192,-0.94731444,-0.41737062,80.0
771,-0.5980919,0.3434372,0.67680883,-0.6085327,-0.81987303,-0.1985962,80.0
772,-0.2944159,0.34552598,0.79309505,-0.6085327,-0.81987303,-0.1985962,80.0
773,-0.2944159,0.34552598,0.79309505,-0.76358646,-0.67331547,-0.09770508,80.0
774,0.3686299,-0.3872509,0.99889255,-0.76358646,-0.67331547,-0.09770508,80.0
775,0.3686299,-0.3872509,0.99889255,-0.73597413,-0.4800293,-0.14974366,80.0
776,0.4462589,-0.64629984,0.9254935,-0.73597413,-0.4800293,-0.14974366,80.0
777,0.4462589,-0.64629984,0.9254935,-0.6573853,-0.4428589,-0.1720459,80.0
778,0.8991458,-1.2240956,0.8735857,-0.6573853,-0.4428589,-0.1720459,80.0
779,0.8991458,-1.2240956,0.8735857,-0.26868898,-0.45454103,-0.14974366,80.0
780,0.9712698,-1.0678139,0.79275286,-0.26868898,-0.45454103,-0.14974366,80.0
781,0.9712698,-1.0678139,0.79275286,-0.10195313,-0.42055663,-0.1274414,80.0
782,1.3190446,-0.84112835,0.8073102,-0.10195313,-0.42055663,-0.1274414,80.0
783,1.3190446,-0.84112835,0.8073102,0.22302246,-0.4609131,-0.026550293,80.0
784,1.8311146,-0.5394678,0.7245835,0.22302246,-0.4609131,-0.026550293,80.0
785,1.8311146,-0.5394678,0.7245835,0.56605226,-0.51932377,0.09239502,80.0
786,1.8311146,-0.5394678,0.7245835,0.56605226,-0.51932377,0.09239502,83.0
787,2.4401236,-0.31217718,0.7345618,0.56605226,-0.51932377,0.09239502,83.0
788,2.4401236,-0.31217718,0.7345618,0.991919,-0.4630371,0.21558838,83.0
789,2.1341302,-0.13565493,1.0365753,0.991919,-0.4630371,0.21558838,83.0
790,2.1341302,-0.13565493,1.0365753,1.3838013,-0.37382814,0.3727661,83.0
791,0.812248,0.07911062,1.0686889,1.3838013,-0.37382814,0.3727661,83.0
792,0.812248,0.07911062,1.0686889,1.7427613,-0.2984253,0.58623046,83.0
793,-0.21787739,0.24561262,0.4793408,1.7427613,-0.2984253,0.58623046,83.0
794,-0.21787739,0.24561262,0.4793408,2.2886353,-0.18054199,0.72641605,83.0
795,-0.22251964,0.35739088,-0.3200431,2.2886353,-0.18054199,0.72641605,83.0
796,-0.22251964,0.35739088,-0.3200431,2.8440673,0.08602295,0.7965088,83.0
797,0.3699212,0.5739498,-0.99213076,2.8440673,0.08602295,0.7965088,83.0
798,0.3699212,0.5739498,-0.99213076,3.1509888,0.3971924,0.85491943,83.0
799,0.8605733,0.9946823,-1.4907383,3.1509888,0.3971924,0.85491943,83.0
800,0.8605733,0.9946823,-1.4907383,3.1148803,0.72854006,0.9611206,83.0
801,0.837482,1.5054016,-1.8649051,3.1148803,0.72854006,0.9611206,83.0
802,0.837482,1.5054016,-1.8649051,3.0012453,1.0524536,1.1002442,83.0
803,0.23592806,1.934375,-2.1202567,3.0012453,1.0524536,1.1002442,83.0
804,0.23592806,1.934375,-2.1202567,2.8376954,1.354065,1.2914063,83.0
805,0.23592806,1.934375,-2.1202567,2.4256349,1.5069946,1.5664673,83.0
806,-0.79388714,2.3358302,-2.12278,2.4256349,1.5069946,1.5664673,83.0
807,-1.7613549,2.6181393,-1.5814517,2.4256349,1.5069946,1.5664673,83.0
808,-1.7613549,2.6181393,-1.5814517,1.4815063,1.4761963,1.7852417,83.0
809,-2.276528,2.3059738,-0.73214126,1.4815063,1.4761963,1.7852417,83.0
810,-2.276528,2.3059738,-0.73214126,0.6701294,1.3105224,1.8712647,83.0
811,-2.3108587,1.4206457,-0.22196788,0.6701294,1.3105224,1.8712647,83.0
812,-2.3108587,1.4206457,-0.22196788,0.2548828,1.088562,1.9371094,83.0
813,-2.090313,0.7281792,-0.353795,0.2548828,1.088562,1.9371094,83.0
814,-2.090313,0.7281792,-0.353795,0.16036378,0.903772,1.9498535,83.0
815,-1.8371551,0.52111757,-0.9189491,0.16036378,0.903772,1.9498535,83.0
816,-1.8371551,0.52111757,-0.9189491,0.39082032,0.7975708,1.9286133,83.0
817,-1.60427,0.54671586,-1.4530549,0.39082032,0.7975708,1.9286133,83.0
818,-1.60427,0.54671586,-1.4530549,0.75296634,0.74871826,1.8404664,83.0
819,-1.2999444,0.6114205,-1.6559376,0.75296634,0.74871826,1.8404664,83.0
820,-1.2999444,0.6114205,-1.6559376,1.1459106,0.7062378,1.6716064,83.0
821,-0.8974873,0.76030344,-1.5247746,1.1459106,0.7062378,1.6716064,83.0
822,-0.8974873,0.76030344,-1.5247746,1.3891114,0.6467652,1.4645141,83.0
823,-0.49229407,0.98861384,-1.2321,1.3891114,0.6467652,1.4645141,83.0
824,-0.49229407,0.98861384,-1.2321,1.4230957,0.54375,1.2202514,83.0
825,-0.18117654,1.1135595,-0.90882444,1.4230957,0.54375,1.2202514,83.0
826,-0.18117654,1.1135595,-0.90882444,1.3391968,0.38763428,0.96430665,83.0
827,0.05918479,1.0692167,-0.5446987,1.3391968,0.38763428,0.96430665,83.0
828,0.05918479,1.0692167,-0.5446987,1.2276856,0.15930176,0.72854006,83.0
829,0.3158903,0.91030514,-0.18988514,1.2276856,0.15930176,0.72854006,83.0
830,0.3158903,0.91030514,-0.18988514,1.1023682,-0.057348635,0.47471926,83.0
831,0.6826317,0.76943064,-4.310608E-4,1.1023682,-0.057348635,0.47471926,83.0
832,0.6826317,0.76943064,-4.310608E-4,0.9653687,-0.26868898,0.27293703,83.0
833,1.2546136,0.73954356,0.009908915,0.9653687,-0.26868898,0.27293703,83.0
834,1.2546136,0.73954356,0.009908915,0.8251831,-0.44073486,0.059472658,83.0
835,1.9379439,0.73822904,0.026957989,0.8251831,-0.44073486,0.059472658,83.0
836,1.9379439,0.73822904,0.026957989,0.635083,-0.6085327,-0.16779785,83.0
837,2.4769542,0.6618601,0.19891024,0.635083,-0.6085327,-0.16779785,83.0
838,2.4769542,0.6618601,0.19891024,0.41949463,-0.8007569,-0.38657227,83.0
839,2.6856284,0.48788655,0.49565148,0.41949463,-0.8007569,-0.38657227,83.0
840,2.6856284,0.48788655,0.49565148,0.21983643,-1.0290893,-0.635083,83.0
841,2.4576824,0.18156898,1.0035892,0.21983643,-1.0290893,-0.635083,83.0
842,2.4576824,0.18156898,1.0035892,0.20072022,-1.3179566,-0.8581055,83.0
843,1.9498739,-0.172091,1.6579129,0.20072022,-1.3179566,-0.8581055,83.0
844,1.9498739,-0.172091,1.6579129,0.3727661,-1.6068238,-1.0768799,83.0
845,1.596447,-0.46181822,2.1634765,0.3727661,-1.6068238,-1.0768799,83.0
846,1.596447,-0.46181822,2.1634765,0.5055176,-1.8245362,-1.3816773,83.0
847,1.2712982,-0.6681973,2.6377392,0.5055176,-1.8245362,-1.3816773,83.0
848,1.2712982,-0.6681973,2.6377392,0.7455322,-1.9742798,-1.5112427,83.0
849,0.31169176,-0.7413571,3.2256455,0.7455322,-1.9742798,-1.5112427,83.0
850,0.31169176,-0.7413571,3.2256455,0.9398804,-1.8319702,-1.4167236,83.0
851,-1.3207636,-0.63592017,3.3437855,0.9398804,-1.8319702,-1.4167236,83.0
852,-1.3207636,-0.63592017,3.3437855,1.0545777,-1.4209718,-1.0545777,83.0
853,-2.665156,-0.15659988,2.3139567,1.0545777,-1.4209718,-1.0545777,83.0
854,-2.665156,-0.15659988,2.3139567,0.8973999,-1.0152832,-0.5501221,83.0
855,-2.9080524,0.68064046,0.37659264,0.8973999,-1.0152832,-0.5501221,83.0
856,-2.9080524,0.68064046,0.37659264,0.31966552,-0.47365722,-0.124255374,83.0
857,-2.3684464,1.3214045,-1.4326614,0.31966552,-0.47365722,-0.124255374,83.0
858,-2.3684464,1.3214045,-1.4326614,-0.3971924,0.118945315,0.08920898,83.0
859,-1.7817079,1.3213325,-2.2590685,-0.3971924,0.118945315,0.08920898,83.0
860,-1.7817079,1.3213325,-2.2590685,-1.1883911,0.5809204,0.21983643,83.0
861,-1.3374513,0.70040107,-2.165458,-1.1883911,0.5809204,0.21983643,83.0
862,-1.3374513,0.70040107,-2.165458,-1.905249,0.99298096,0.30161133,83.0
863,-0.9930079,-0.21913481,-1.6499568,-1.905249,0.99298096,0.30161133,83.0
864,-0.9930079,-0.21913481,-1.6499568,-2.3693483,1.4114136,0.33665773,83.0
865,-0.9460421,-1.0402737,-1.0134957,-2.3693483,1.4114136,0.33665773,83.0
866,-0.9460421,-1.0402737,-1.0134957,-2.6783936,1.6907227,0.34940186,83.0
867,-1.1655129,-1.5689865,-0.43763983,-2.6783936,1.6907227,0.34940186,83.0
868,-1.1655129,-1.5689865,-0.43763983,-2.7909667,1.7098389,0.28355715,83.0
869,-1.2862799,-1.8322401,-0.026320338,-2.7909667,1.7098389,0.28355715,83.0
870,-1.2862799,-1.8322401,-0.026320338,-2.619983,1.454956,-0.0010620117,83.0
871,-1.2862799,-1.8322401,-0.026320338,-2.619983,1.454956,-0.0010620117,86.0
872,-1.2139604,-1.8574181,0.20113611,-2.619983,1.454956,-0.0010620117,86.0
873,-1.2139604,-1.8574181,0.20113611,-2.2238526,1.0641358,-0.33984375,86.0
874,-1.1051161,-1.6625581,0.2756428,-2.2238526,1.0641358,-0.33984375,86.0
875,-1.1051161,-1.6625581,0.2756428,-1.5813354,0.58410645,-0.5713623,86.0
876,-0.91988397,-1.1989429,0.1978702,-1.5813354,0.58410645,-0.5713623,86.0
877,-0.91988397,-1.1989429,0.1978702,-0.96643066,0.11257324,-0.6616333,86.0
878,-0.61384916,-0.57722074,-0.053483605,-0.96643066,0.11257324,-0.6616333,86.0
879,-0.61384916,-0.57722074,-0.053483605,-0.5384399,-0.26337892,-0.6860596,86.0
880,-0.2472806,-0.118270755,-0.32373172,-0.5384399,-0.26337892,-0.6860596,86.0
881,-0.2472806,-0.118270755,-0.32373172,-0.2527588,-0.51932377,-0.73597413,86.0
882,-0.2472806,-0.118270755,-0.32373172,-0.15717773,-0.7062378,-0.7614624,86.0
883,0.11939955,0.06850594,-0.34774268,-0.15717773,-0.7062378,-0.7614624,86.0
884,0.60877645,-0.16951165,0.96677655,-0.15717773,-0.7062378,-0.7614624,86.0
885,0.60877645,-0.16951165,0.96677655,-0.1720459,-0.84323734,-0.79226077,86.0
886,0.60877645,-0.16951165,0.96677655,-0.22727051,-0.9345703,-0.8315552,86.0
887,0.60877645,-0.16951165,0.96677655,-0.28674316,-1.0036011,-0.86978763,86.0
888,0.43744838,-0.24598527,1.0506185,-0.28674316,-1.0036011,-0.86978763,86.0
889,0.43744838,-0.24598527,1.0506185,-0.31435546,-1.0503296,-0.93138427,86.0
890,0.46911156,-0.3370226,0.9447917,-0.31435546,-1.0503296,-0.93138427,86.0
891,0.46911156,-0.3370226,0.9447917,-0.31223145,-1.089624,-1.0227174,86.0
892,0.89063346,-0.5153334,0.88388515,-0.31223145,-1.089624,-1.0227174,86.0
893,0.89063346,-0.5153334,0.88388515,-0.22302246,-1.1204224,-1.1437867,86.0
894,1.587812,-0.8071765,1.0275183,-0.22302246,-1.1204224,-1.1437867,86.0
895,1.587812,-0.8071765,1.0275183,-0.07434082,-1.1193603,-1.2574219,86.0
896,2.1931622,-1.1208755,1.2315239,-0.07434082,-1.1193603,-1.2574219,86.0
897,2.1931622,-1.1208755,1.2315239,0.09239502,-1.0938721,-1.3115845,86.0
898,2.5830698,-1.2931482,1.1705707,0.09239502,-1.0938721,-1.3115845,86.0
899,2.5830698,-1.2931482,1.1705707,0.21134034,-1.1013062,-1.2924683,86.0
900,2.830555,-1.2592988,0.96320224,0.21134034,-1.1013062,-1.2924683,86.0
901,2.830555,-1.2592988,0.96320224,0.33665773,-1.0471436,-1.170337,86.0
902,3.0767365,-1.1588795,1.0881765,0.33665773,-1.0471436,-1.170337,86.0
903,3.0767365,-1.1588795,1.0881765,0.5543701,-1.0482056,-1.0439576,86.0
904,3.1780274,-1.1902752,1.7028289,0.5543701,-1.0482056,-1.0439576,86.0
905,3.1780274,-1.1902752,1.7028289,0.8867798,-0.89421386,-0.82836914,86.0
906,2.304031,-1.3637557,2.2181349,0.8867798,-0.89421386,-0.82836914,86.0
907,2.304031,-1.3637557,2.2181349,1.2128174,-0.631897,-0.47896728,86.0
908,0.7596555,-1.3009043,1.6788292,1.2128174,-0.631897,-0.47896728,86.0
909,0.7596555,-1.3009043,1.6788292,1.4751343,-0.4088745,-0.09451904,86.0
910,-0.073794365,-0.76580906,0.2342987,1.4751343,-0.4088745,-0.09451904,86.0
911,-0.073794365,-0.76580906,0.2342987,1.8712647,-0.04460449,0.24744873,86.0
912,0.08097935,-0.07685614,-1.0020752,1.8712647,-0.04460449,0.24744873,86.0
913,0.08097935,-0.07685614,-1.0020752,2.2440307,0.4163086,0.44498292,86.0
914,0.44628978,0.45169878,-1.5012207,2.2440307,0.4163086,0.44498292,86.0
915,0.44628978,0.45169878,-1.5012207,2.2939453,0.8952759,0.6425171,86.0
916,0.33543777,0.90777016,-1.522058,2.2939453,0.8952759,0.6425171,86.0
917,0.33543777,0.90777016,-1.522058,2.084729,1.2914063,0.90058595,86.0
918,-0.45722342,1.3237505,-1.441499,2.084729,1.2914063,0.90058595,86.0
919,-0.45722342,1.3237505,-1.441499,1.7576294,1.634436,1.173523,86.0
920,-1.6896558,1.6314368,-1.2556651,1.7576294,1.634436,1.173523,86.0
921,-1.6896558,1.6314368,-1.2556651,1.3222046,1.8011719,1.4730103,86.0
922,-2.7481847,1.7437116,-0.9399446,1.3222046,1.8011719,1.4730103,86.0
923,-2.7481847,1.7437116,-0.9399446,0.8878418,1.8054199,1.7353271,86.0
924,-3.1639774,1.5867174,-0.6800441,0.8878418,1.8054199,1.7353271,86.0
925,-3.1639774,1.5867174,-0.6800441,0.48427734,1.6832886,1.9179932,86.0
926,-2.9935234,1.2262952,-0.6676315,0.48427734,1.6832886,1.9179932,86.0
927,-2.9935234,1.2262952,-0.6676315,0.20072022,1.5006226,2.0167603,86.0
928,-2.5592353,0.822943,-0.9187366,0.20072022,1.5006226,2.0167603,86.0
929,-2.5592353,0.822943,-0.9187366,0.1720459,1.3179566,2.0241945,86.0
930,-2.084754,0.55116445,-1.2959757,0.1720459,1.3179566,2.0241945,86.0
931,-2.084754,0.55116445,-1.2959757,0.37807617,1.1958252,1.9402955,86.0
932,-2.084754,0.55116445,-1.2959757,0.6956177,1.1108643,1.7448853,86.0
933,-1.6092339,0.51384413,-1.62566,0.6956177,1.1108643,1.7448853,86.0
934,-0.19936228,1.3546666,-2.0265045,0.6956177,1.1108643,1.7448853,86.0
935,-0.19936228,1.3546666,-2.0265045,0.994043,1.0535157,1.5133667,86.0
936,-0.19936228,1.3546666,-2.0265045,1.1352905,0.99085695,1.2935303,86.0
937,-0.19936228,1.3546666,-2.0265045,1.1108643,0.93775636,1.002539,86.0
938,0.21256828,1.4479057,-1.5941162,1.1108643,0.93775636,1.002539,86.0
939,0.21256828,1.4479057,-1.5941162,0.9834229,0.85704345,0.81881106,86.0
940,0.45516205,1.4947381,-1.3480225,0.9834229,0.85704345,0.81881106,86.0
941,0.45516205,1.4947381,-1.3480225,0.725354,0.7890747,0.65632325,86.0
942,0.7338684,1.4526386,-1.3797364,0.725354,0.7890747,0.65632325,86.0
943,0.7338684,1.4526386,-1.3797364,0.4258667,0.72854006,0.47578126,86.0
944,1.144541,1.2980485,-1.4647267,0.4258667,0.72854006,0.47578126,86.0
945,1.144541,1.2980485,-1.4647267,0.14868164,0.6159668,0.26656494,86.0
946,1.5785235,1.0328602,-1.3056071,0.14868164,0.6159668,0.26656494,86.0
947,1.5785235,1.0328602,-1.3056071,-0.10089111,0.47896728,-0.021240234,86.0
948,1.9449356,0.7191714,-0.8916292,-0.10089111,0.47896728,-0.021240234,86.0
949,1.9449356,0.7191714,-0.8916292,-0.41206056,0.26019287,-0.2793091,86.0
950,2.240934,0.48435807,-0.48093033,-0.41206056,0.26019287,-0.2793091,86.0
951,2.240934,0.48435807,-0.48093033,-0.74659425,-0.04885254,-0.51932377,86.0
952,2.3994,0.27567005,-0.19336224,-0.74659425,-0.04885254,-0.51932377,86.0
953,2.3994,0.27567005,-0.19336224,-0.9451904,-0.38232422,-0.7412842,86.0
954,2.382496,-0.018611908,0.081272125,-0.9451904,-0.38232422,-0.7412842,86.0
955,2.382496,-0.018611908,0.081272125,-0.9398804,-0.7540283,-0.9653687,86.0
956,2.2183383,-0.40402532,0.52497864,-0.9398804,-0.7540283,-0.9653687,86.0
957,2.2183383,-0.40402532,0.52497864,-0.7306641,-1.2191895,-1.1586548,86.0
958,1.403821,-0.85250485,1.506726,-0.7306641,-1.2191895,-1.1586548,86.0
959,1.403821,-0.85250485,1.506726,-0.23151855,-1.8001099,-1.2117554,86.0
960,-0.38531733,-1.4045259,2.8850195,-0.23151855,-1.8001099,-1.2117554,86.0
961,-0.38531733,-1.4045259,2.8850195,0.49277344,-2.165442,-1.2053833,86.0
962,-2.1916647,-1.7068604,3.6877763,0.49277344,-2.165442,-1.2053833,86.0
963,-2.1916647,-1.7068604,3.6877763,1.3296387,-2.167566,-1.1066163,86.0
964,-2.954528,-1.2587256,3.142128,1.3296387,-2.167566,-1.1066163,86.0
965,-2.954528,-1.2587256,3.142128,2.0401247,-1.9381714,-0.6616333,86.0
966,-2.636413,-0.10879937,1.36203,2.0401247,-1.9381714,-0.6616333,86.0
967,-2.636413,-0.10879937,1.36203,2.1866822,-1.5547851,-0.12319336,86.0
968,-1.8718624,1.2122891,-0.61713874,2.1866822,-1.5547851,-0.12319336,86.0
969,-1.8718624,1.2122891,-0.61713874,1.6110718,-0.991919,0.23151855,86.0
970,-1.4122849,1.9473948,-1.7116188,1.6110718,-0.991919,0.23151855,86.0
971,-1.4122849,1.9473948,-1.7116188,1.6110718,-0.991919,0.23151855,87.0
972,-1.4122849,1.9473948,-1.7116188,0.5628662,-0.40462646,0.36851808,87.0
973,-1.4840393,1.8729305,-1.5466387,0.5628662,-0.40462646,0.36851808,87.0
974,-1.4840393,1.8729305,-1.5466387,-0.50445557,-0.009558106,0.42374268,87.0
975,-1.7127197,1.2970994,-0.6386416,-0.50445557,-0.009558106,0.42374268,87.0
976,-1.7127197,1.2970994,-0.6386416,-1.3901733,0.31116945,0.43967286,87.0
977,-1.8775733,0.515121,0.22235084,-1.3901733,0.31116945,0.43967286,87.0
978,-1.8775733,0.515121,0.22235084,-2.0125122,0.5586182,0.3695801,87.0
979,-1.9764361,-0.2843387,0.6679442,-2.0125122,0.5586182,0.3695801,87.0
980,-1.9764361,-0.2843387,0.6679442,-2.356604,0.6616333,0.2782471,87.0
981,-1.847079,-1.0254569,0.73730946,-2.356604,0.6616333,0.2782471,87.0
982,-1.847079,-1.0254569,0.73730946,-2.3778443,0.5522461,0.019116212,87.0
983,-1.485903,-1.6608196,0.7004921,-2.3778443,0.5522461,0.019116212,87.0
984,-1.485903,-1.6608196,0.7004921,-2.0741088,0.33028564,-0.3525879,87.0
985,-0.9918108,-1.9601865,0.7399225,-2.0741088,0.33028564,-0.3525879,87.0
986,-0.9918108,-1.9601865,0.7399225,-1.5632813,0.06159668,-0.727478,87.0
987,-0.40853643,-1.7176731,0.7857124,-1.5632813,0.06159668,-0.727478,87.0
988,-0.40853643,-1.7176731,0.7857124,-1.0471436,-0.21134034,-0.86978763,87.0
989,0.16742134,-1.1243949,0.6817804,-1.0471436,-0.21134034,-0.86978763,87.0
990,0.16742134,-1.1243949,0.6817804,-0.61278075,-0.44498292,-0.9505005,87.0
991,0.16742134,-1.1243949,0.6817804,-0.32922363,-0.6265869,-1.0078491,87.0
992,0.6564834,-0.56899834,0.5055317,-0.32922363,-0.6265869,-1.0078491,87.0
993,1.6174719,-0.046580482,1.1179996,-0.32922363,-0.6265869,-1.0078491,87.0
994,1.6174719,-0.046580482,1.1179996,-0.27399904,-0.7540283,-0.97492677,87.0
995,1.6174719,-0.046580482,1.1179996,-0.4078125,-0.81031495,-0.90058595,87.0
996,1.6174719,-0.046580482,1.1179996,-0.5968506,-0.8464233,-0.7742066,87.0
997,1.4611528,-0.12696165,1.1113553,-0.5968506,-0.8464233,-0.7742066,87.0
998,1.4611528,-0.12696165,1.1113553,-0.65632325,-0.8517334,-0.6881836,87.0
999,1.5511,-0.34274364,0.94054914,-0.65632325,-0.8517334,-0.6881836,87.0
1000,1.5511,-0.34274364,0.94054914,-0.5161377,-0.7954468,-0.6701294,87.0
1001,1.8374743,-0.5863409,0.7708353,-0.5161377,-0.7954468,-0.6701294,87.0
1002,1.8374743,-0.5863409,0.7708353,-0.38444826,-0.71367186,-0.7072998,87.0
1003,2.1541348,-0.8003838,0.6260798,-0.38444826,-0.71367186,-0.7072998,87.0
1004,2.1541348,-0.8003838,0.6260798,-0.31223145,-0.6510132,-0.7508423,87.0
1005,2.6365037,-0.97208196,0.40691853,-0.31223145,-0.6510132,-0.7508423,87.0
1006,2.6365037,-0.97208196,0.40691853,-0.23364258,-0.59897465,-0.817749,87.0
1007,3.3015738,-1.1437423,0.27546155,-0.23364258,-0.59897465,-0.817749,87.0
1008,3.3015738,-1.1437423,0.27546155,-0.07327881,-0.5533081,-0.93775636,87.0
1009,3.8758292,-1.3877599,0.5780597,-0.07327881,-0.5533081,-0.93775636,87.0
1010,3.8758292,-1.3877599,0.5780597,0.22196046,-0.4970215,-1.0067872,87.0
1011,3.587663,-1.6589507,1.2708828,0.22196046,-0.4970215,-1.0067872,87.0
1012,3.587663,-1.6589507,1.2708828,0.5766724,-0.35046387,-0.9515625,87.0
1013,1.8740978,-1.8158691,1.5247264,0.5766724,-0.35046387,-0.9515625,87.0
1014,1.8740978,-1.8158691,1.5247264,0.93775636,-0.16142578,-0.60959476,87.0
1015,-0.1333878,-1.588999,0.6673763,0.93775636,-0.16142578,-0.60959476,87.0
1016,-0.1333878,-1.588999,0.6673763,1.4071655,0.058410645,-0.16885987,87.0
1017,-1.0057337,-0.82816935,-0.6713724,1.4071655,0.058410645,-0.16885987,87.0
1018,-1.0057337,-0.82816935,-0.6713724,2.0093262,0.3154175,0.1985962,87.0
1019,-0.58529997,0.22957873,-1.5705819,2.0093262,0.3154175,0.1985962,87.0
1020,-0.58529997,0.22957873,-1.5705819,2.366162,0.7147339,0.48109132,87.0
1021,0.24823952,1.0361166,-1.7501302,2.366162,0.7147339,0.48109132,87.0
1022,0.24823952,1.0361166,-1.7501302,2.165442,1.0556396,0.7327881,87.0
1023,0.5400467,1.2854486,-1.4147403,2.165442,1.0556396,0.7327881,87.0
1024,0.5400467,1.2854486,-1.4147403,1.8394043,1.4114136,0.9717407,87.0
1025,-0.20127559,1.3012714,-0.99385273,1.8394043,1.4114136,0.9717407,87.0
1026,-0.20127559,1.3012714,-0.99385273,1.3158325,1.6206299,1.2414917,87.0
1027,-1.580857,1.4047745,-0.7467668,1.3158325,1.6206299,1.2414917,87.0
1028,-1.580857,1.4047745,-0.7467668,0.7104859,1.6684204,1.532483,87.0
1029,-2.6788216,1.4628822,-0.6887587,0.7104859,1.6684204,1.532483,87.0
1030,-2.6788216,1.4628822,-0.6887587,0.27718505,1.6365601,1.7586914,87.0
1031,-3.0703766,1.315606,-0.85536486,0.27718505,1.6365601,1.7586914,87.0
1032,-3.0703766,1.315606,-0.85536486,0.107263185,1.5866455,1.9541016,87.0
1033,-2.8683496,1.120124,-1.2094018,0.107263185,1.5866455,1.9541016,87.0
1034,-2.8683496,1.120124,-1.2094018,0.016992187,1.5218629,2.1059692,87.0
1035,-2.3871846,0.96406794,-1.5412886,0.016992187,1.5218629,2.1059692,87.0
1036,-2.3871846,0.96406794,-1.5412886,0.118945315,1.4772583,2.1388917,87.0
1037,-1.8967961,0.8775288,-1.6925645,0.118945315,1.4772583,2.1388917,87.0
1038,-1.8967961,0.8775288,-1.6925645,0.2803711,1.4358399,2.0645509,87.0
1039,-1.4773368,0.9178311,-1.6493642,0.2803711,1.4358399,2.0645509,87.0
1040,-1.4773368,0.9178311,-1.6493642,0.38975832,1.3657471,1.9275513,87.0
1041,-1.0452484,0.98897684,-1.5199552,0.38975832,1.3657471,1.9275513,87.0
1042,-1.0452484,0.98897684,-1.5199552,0.58304447,1.2807862,1.7278931,87.0
1043,-0.57543206,1.100642,-1.3718846,0.58304447,1.2807862,1.7278931,87.0
1044,-0.57543206,1.100642,-1.3718846,0.6711914,1.1650269,1.5069946,87.0
1045,-0.1358583,1.225765,-1.2342631,0.6711914,1.1650269,1.5069946,87.0
1046,-0.1358583,1.225765,-1.2342631,0.6701294,1.0301514,1.2468017,87.0
1047,0.12269759,1.2826872,-1.0624471,0.6701294,1.0301514,1.2468017,87.0
1048,0.12269759,1.2826872,-1.0624471,0.59472656,0.87403566,0.9547486,87.0
1049,0.19771862,1.284182,-0.83504057,0.59472656,0.87403566,0.9547486,87.0
1050,0.19771862,1.284182,-0.83504057,0.43011475,0.6924316,0.6786255,87.0
1051,0.3570031,1.2446184,-0.6894314,0.43011475,0.6924316,0.6786255,87.0
1052,0.3570031,1.2446184,-0.6894314,0.21240234,0.51082766,0.40993652,87.0
1053,0.79193795,1.1695962,-0.6431346,0.21240234,0.51082766,0.40993652,87.0
1054,0.79193795,1.1695962,-0.6431346,-0.023364259,0.33665773,0.12213135,87.0
1055,1.3277398,1.0991414,-0.5573909,-0.023364259,0.33665773,0.12213135,87.0
1056,1.3277398,1.0991414,-0.5573909,-0.34940186,0.14761963,-0.14974366,87.0
1057,1.673398,1.0190835,-0.34167695,-0.34940186,0.14761963,-0.14974366,87.0
1058,1.673398,1.0190835,-0.34167695,-0.73809814,-0.09133301,-0.41843262,87.0
1059,1.9295876,0.81770825,-0.06801939,-0.73809814,-0.09133301,-0.41843262,87.0
1060,1.9295876,0.81770825,-0.06801939,-1.0312134,-0.37701416,-0.7954468,87.0
1061,2.3052912,0.41450596,0.30117536,-1.0312134,-0.37701416,-0.7954468,87.0
1062,2.3052912,0.41450596,0.30117536,-1.09281,-0.72641605,-1.1937011,87.0
1063,2.3052912,0.41450596,0.30117536,-1.09281,-0.72641605,-1.1937011,87.0
1064,2.6729684,-0.11498952,0.8772807,-1.09281,-0.72641605,-1.1937011,87.0
1065,2.6729684,-0.11498952,0.8772807,-0.9759888,-1.1501588,-1.6174439,87.0
1066,2.6687946,-0.61358595,1.6425228,-0.9759888,-1.1501588,-1.6174439,87.0
1067,2.6687946,-0.61358595,1.6425228,-0.7827026,-1.6206299,-1.9371094,87.0
1068,1.7617202,-1.1564083,2.5907638,-0.7827026,-1.6206299,-1.9371094,87.0
1069,1.7617202,-1.1564083,2.5907638,-0.5065796,-2.0146363,-2.1155274,87.0
1070,0.015614033,-1.5865405,3.4349036,-0.5065796,-2.0146363,-2.1155274,87.0
1071,0.015614033,-1.5865405,3.4349036,-0.07646485,-2.078357,-2.3417358,87.0
1072,-1.4060636,-1.4867983,3.4807477,-0.07646485,-2.078357,-2.3417358,87.0
1073,-1.4060636,-1.4867983,3.4807477,0.4248047,-1.906311,-2.0295045,87.0
1074,-1.6155735,-0.8743874,2.2808385,0.4248047,-1.906311,-2.0295045,87.0
1075,-1.6155735,-0.8743874,2.2808385,0.85704345,-1.535669,-1.628064,87.0
1076,-0.78832066,-0.024278045,0.21275663,0.85704345,-1.535669,-1.628064,87.0
1077,-0.78832066,-0.024278045,0.21275663,0.65844727,-1.0227174,-1.3158325,87.0
1078,0.13002455,0.578722,-1.6140354,0.65844727,-1.0227174,-1.3158325,87.0
1079,0.13002455,0.578722,-1.6140354,-0.16992188,-0.30267334,-1.1066163,87.0
1080,0.0407629,0.524379,-2.0906425,-0.16992188,-0.30267334,-1.1066163,87.0
1081,0.0407629,0.524379,-2.0906425,-1.3328247,0.19753419,-0.86766356,87.0
1082,-0.9451363,-0.22435665,-1.2800945,-1.3328247,0.19753419,-0.86766356,87.0
1083,-0.9451363,-0.22435665,-1.2800945,-2.176062,0.59260255,-0.6573853,87.0
1084,-2.066949,-1.2318656,-0.21501803,-2.176062,0.59260255,-0.6573853,87.0
1085,-2.066949,-1.2318656,-0.21501803,-2.6029909,0.8729736,-0.39188233,87.0
1086,-2.8500679,-1.8421209,0.3725168,-2.6029909,0.8729736,-0.39188233,87.0
1087,-2.8500679,-1.8421209,0.3725168,-2.642285,0.9345703,-0.16036378,87.0
1088,-3.00846,-1.8536894,0.48077714,-2.642285,0.9345703,-0.16036378,87.0
1089,-3.00846,-1.8536894,0.48077714,-2.3969605,0.813501,-0.10195313,87.0
1090,-2.5763483,-1.5680224,0.41524917,-2.3969605,0.813501,-0.10195313,87.0
1091,-2.5763483,-1.5680224,0.41524917,-2.0677369,0.61278075,-0.14337158,87.0
1092,-1.9158149,-1.2993032,0.25149864,-2.0677369,0.61278075,-0.14337158,87.0
1093,-1.9158149,-1.2993032,0.25149864,-1.7884277,0.3982544,-0.2538208,87.0
1094,-1.3735576,-1.1812882,-0.024301574,-1.7884277,0.3982544,-0.2538208,87.0
1095,-1.3735576,-1.1812882,-0.024301574,-1.5069946,0.17416993,-0.46409914,87.0
1096,-0.92064786,-1.0345447,-0.32427526,-1.5069946,0.17416993,-0.46409914,87.0
1097,-0.92064786,-1.0345447,-0.32427526,-1.2021973,0.0053100586,-0.6138428,87.0
1098,-0.5329051,-0.79169834,-0.4784876,-1.2021973,0.0053100586,-0.6138428,87.0
1099,-0.5329051,-0.79169834,-0.4784876,-0.94731444,-0.13381349,-0.7582764,87.0
1100,-0.24611163,-0.5766814,-0.3333394,-0.94731444,-0.13381349,-0.7582764,87.0
1101,-0.24611163,-0.5766814,-0.3333394,-0.7965088,-0.28780517,-0.87403566,87.0
1102,-0.24611163,-0.5766814,-0.3333394,-0.72641605,-0.45878908,-0.9515625,87.0
1103,-0.0085225105,-0.46064925,0.112954974,-0.72641605,-0.45878908,-0.9515625,87.0
1104,0.5585506,-1.02881,1.3378737,-0.72641605,-0.45878908,-0.9515625,87.0
1105,0.5585506,-1.02881,1.3378737,-0.6510132,-0.6149048,-0.9897949,87.0
1106,0.5585506,-1.02881,1.3378737,-0.49064943,-0.77951664,-1.0046631,87.0
1107,0.5585506,-1.02881,1.3378737,-0.2177124,-0.8995239,-1.0195312,87.0
1108,1.0674459,-1.0426769,1.4011706,-0.2177124,-0.8995239,-1.0195312,87.0
1109,1.0674459,-1.0426769,1.4011706,0.07646485,-1.0205933,-1.0428956,87.0
1110,1.8366106,-1.007457,1.4908706,0.07646485,-1.0205933,-1.0428956,87.0
1111,1.8366106,-1.007457,1.4908706,0.33028564,-1.0609497,-1.0747559,87.0
1112,2.5050185,-0.92074823,1.4294031,0.33028564,-1.0609497,-1.0747559,87.0
1113,2.5050185,-0.92074823,1.4294031,0.39294434,-1.0333375,-1.0343994,87.0
1114,2.9228747,-0.78216743,1.0310957,0.39294434,-1.0333375,-1.0343994,87.0
1115,2.9228747,-0.78216743,1.0310957,0.25594482,-0.97386473,-0.90802,87.0
1116,3.1221743,-0.64843893,0.54329705,0.25594482,-0.97386473,-0.90802,87.0
1117,3.1221743,-0.64843893,0.54329705,0.060534667,-0.82730716,-0.67437744,87.0
1118,3.1546488,-0.63697624,0.51292133,0.060534667,-0.82730716,-0.67437744,87.0
1119,3.1546488,-0.63697624,0.51292133,0.07434082,-0.74022216,-0.4322388,87.0
1120,2.9713142,-0.8148668,1.0949073,0.07434082,-0.74022216,-0.4322388,87.0
1121,2.9713142,-0.8148668,1.0949073,0.36427003,-0.6064087,-0.18372802,87.0
1122,2.1116705,-1.0740368,1.848814,0.36427003,-0.6064087,-0.18372802,87.0
1123,2.1116705,-1.0740368,1.848814,0.8400513,-0.38763428,0.11363526,87.0
1124,0.7141044,-1.1518319,1.8723252,0.8400513,-0.38763428,0.11363526,87.0
1125,0.7141044,-1.1518319,1.8723252,1.4114136,-0.20603028,0.3727661,87.0
1126,-0.08235407,-0.85006666,0.7812097,1.4114136,-0.20603028,0.3727661,87.0
1127,-0.08235407,-0.85006666,0.7812097,1.991272,0.07646485,0.5883545,87.0
1128,0.20611382,-0.29998732,-0.63686085,1.991272,0.07646485,0.5883545,87.0
1129,0.20611382,-0.29998732,-0.63686085,2.4829834,0.4895874,0.6552612,87.0
1130,0.84750843,0.22896767,-1.4710977,2.4829834,0.4895874,0.6552612,87.0
1131,0.84750843,0.22896767,-1.4710977,2.6486573,0.9632446,0.70305175,87.0
1132,0.98072886,0.6758988,-1.7111189,2.6486573,0.9632446,0.70305175,87.0
1133,0.98072886,0.6758988,-1.7111189,2.5987427,1.3838013,0.8581055,87.0
1134,0.29073548,1.0654626,-1.8020983,2.5987427,1.3838013,0.8581055,87.0
1135,0.29073548,1.0654626,-1.8020983,2.4160767,1.7671875,1.0875,87.0
1136,-0.8985884,1.5581074,-1.9204018,2.4160767,1.7671875,1.0875,87.0
1137,-0.8985884,1.5581074,-1.9204018,2.1548219,2.0125122,1.44646,87.0
1138,-1.964354,2.2479997,-1.7637994,2.1548219,2.0125122,1.44646,87.0
1139,-1.964354,2.2479997,-1.7637994,1.4698242,2.084729,1.8808228,87.0
1140,-2.3519886,2.5780873,-1.2122236,1.4698242,2.084729,1.8808228,87.0
1141,-2.3519886,2.5780873,-1.2122236,0.6414551,2.0284424,2.2015502,87.0
1142,-2.0290031,2.0490422,-0.7793981,0.6414551,2.0284424,2.2015502,87.0
1143,-2.0290031,2.0490422,-0.7793981,0.124255374,1.9233032,2.4766114,87.0
1144,-1.465097,1.1684208,-0.9121537,0.124255374,1.9233032,2.4766114,87.0
1145,-1.465097,1.1684208,-0.9121537,-0.014868164,1.7841797,2.6868896,87.0
1146,-1.049409,0.6775589,-1.4773915,-0.014868164,1.7841797,2.6868896,87.0
1147,-1.049409,0.6775589,-1.4773915,0.14549561,1.6779785,2.7729127,87.0
1148,-0.81264734,0.599469,-2.0057902,0.14549561,1.6779785,2.7729127,87.0
1149,-0.81264734,0.599469,-2.0057902,0.54375,1.6015137,2.7421143,87.0
1150,-0.6679646,0.7382788,-2.1874204,0.54375,1.6015137,2.7421143,87.0
1151,-0.6679646,0.7382788,-2.1874204,0.9855469,1.5494751,2.5944946,87.0
1152,-0.6177823,1.0430156,-2.0573459,0.9855469,1.5494751,2.5944946,87.0
1153,-0.6177823,1.0430156,-2.0573459,1.273352,1.4613281,2.4054565,87.0
1154,-0.6500974,1.4334238,-1.7579129,1.273352,1.4613281,2.4054565,87.0
1155,-0.6500974,1.4334238,-1.7579129,1.3126465,1.3211426,2.173938,87.0
1156,-0.7224339,1.6965194,-1.4023509,1.3126465,1.3211426,2.173938,87.0
1157,-0.7224339,1.6965194,-1.4023509,1.2329956,1.1204224,1.903125,87.0
1158,-0.8188651,1.740675,-1.033685,1.2329956,1.1204224,1.903125,87.0
1159,-0.8188651,1.740675,-1.033685,1.1034302,0.8591675,1.634436,87.0
1160,-0.8165301,1.6326646,-0.7122264,1.1034302,0.8591675,1.634436,87.0
1161,-0.8165301,1.6326646,-0.7122264,0.98129886,0.5872925,1.3296387,87.0
1162,-0.48364398,1.497611,-0.5363951,0.98129886,0.5872925,1.3296387,87.0
1163,-0.48364398,1.497611,-0.5363951,0.8889038,0.30267334,1.0280274,87.0
1164,0.16263315,1.406292,-0.48070312,0.8889038,0.30267334,1.0280274,87.0
1165,0.16263315,1.406292,-0.48070312,0.814563,0.026550293,0.6977417,87.0
1166,0.8408487,1.3247528,-0.41775322,0.814563,0.026550293,0.6977417,87.0
1167,0.8408487,1.3247528,-0.41775322,0.68712157,-0.22408448,0.29523927,87.0
1168,1.3652449,1.2744751,-0.29600692,0.68712157,-0.22408448,0.29523927,87.0
1169,1.3652449,1.2744751,-0.29600692,0.37382814,-0.48533937,-0.08071289,87.0
1170,1.6701989,1.2036376,-0.12491608,0.37382814,-0.48533937,-0.08071289,87.0
1171,1.6701989,1.2036376,-0.12491608,-0.058410645,-0.7423462,-0.47896728,87.0
1172,1.7558368,0.9764843,0.102740526,-0.058410645,-0.7423462,-0.47896728,87.0
1173,1.7558368,0.9764843,0.102740526,-0.46728516,-1.0078491,-0.88359374,87.0
1174,1.7729435,0.5809679,0.40555668,-0.46728516,-1.0078491,-0.88359374,87.0
1175,1.7729435,0.5809679,0.40555668,-0.7497803,-1.2797241,-1.2818482,87.0
1176,1.7729435,0.5809679,0.40555668,-0.7497803,-1.2797241,-1.2818482,88.0
1177,1.5723832,0.020438194,0.9836128,-0.7497803,-1.2797241,-1.2818482,88.0
1178,1.5723832,0.020438194,0.9836128,-0.7848267,-1.6057618,-1.5101807,88.0
1179,0.80248666,-0.5896919,1.9441047,-0.7848267,-1.6057618,-1.5101807,88.0
1180,0.80248666,-0.5896919,1.9441047,-0.6425171,-1.8882569,-1.5654052,88.0
1181,-0.080984354,-0.8518195,2.6561503,-0.6425171,-1.8882569,-1.5654052,88.0
1182,-0.080984354,-0.8518195,2.6561503,-0.4980835,-1.9519776,-1.7661256,88.0
1183,-0.32781243,-0.51526904,2.4406674,-0.4980835,-1.9519776,-1.7661256,88.0
1184,-0.32781243,-0.51526904,2.4406674,-0.4333008,-1.8372803,-1.6450561,88.0
1185,0.034112453,0.08546543,1.3847728,-0.4333008,-1.8372803,-1.6450561,88.0
1186,0.034112453,0.08546543,1.3847728,-0.55968016,-1.545227,-1.537793,88.0
1187,0.39844465,0.43560863,0.13646817,-0.55968016,-1.545227,-1.537793,88.0
1188,0.39844465,0.43560863,0.13646817,-0.87403566,-1.0959961,-1.5186768,88.0
1189,0.095257044,0.3192997,-0.500054,-0.87403566,-1.0959961,-1.5186768,88.0
1190,0.095257044,0.3192997,-0.500054,-1.5951416,-0.75509036,-1.4931885,88.0
1191,-0.8076079,-0.36103988,-0.2444036,-1.5951416,-0.75509036,-1.4931885,88.0
1192,-0.8076079,-0.36103988,-0.2444036,-2.261023,-0.5012695,-1.4358399,88.0
1193,-1.7625537,-1.3797622,0.43612993,-2.261023,-0.5012695,-1.4358399,88.0
1194,-1.7625537,-1.3797622,0.43612993,-2.4097047,-0.31116945,-1.44646,88.0
1195,-2.35809,-2.051417,1.0269191,-2.4097047,-0.31116945,-1.44646,88.0
1196,-2.35809,-2.051417,1.0269191,-2.3279297,-0.27506104,-1.4369019,88.0
1197,-2.4204197,-2.2144613,1.3031881,-2.3279297,-0.27506104,-1.4369019,88.0
1198,-2.4204197,-2.2144613,1.3031881,-2.0093262,-0.32178956,-1.448584,88.0
1199,-2.1407304,-2.1496332,1.3001189,-2.0093262,-0.32178956,-1.448584,88.0
1200,-2.1407304,-2.1496332,1.3001189,-1.6684204,-0.44710693,-1.5951416,88.0
1201,-1.6817615,-2.0490155,1.1174023,-1.6684204,-0.44710693,-1.5951416,88.0
1202,-1.6817615,-2.0490155,1.1174023,-1.4188477,-0.5671143,-1.7937378,88.0
1203,-1.1474478,-1.9330236,0.8173715,-1.4188477,-0.5671143,-1.7937378,88.0
1204,-1.1474478,-1.9330236,0.8173715,-1.2850342,-0.6605713,-1.8776368,88.0
1205,-0.61430836,-1.7935137,0.4946931,-1.2850342,-0.6605713,-1.8776368,88.0
1206,-0.61430836,-1.7935137,0.4946931,-1.2075074,-0.7062378,-1.9222412,88.0
1207,-0.07651746,-1.6903529,0.3229884,-1.2075074,-0.7062378,-1.9222412,88.0
1208,-0.07651746,-1.6903529,0.3229884,-1.1575928,-0.7317261,-1.9392334,88.0
1209,0.46949893,-1.6780392,0.39194784,-1.1575928,-0.7317261,-1.9392334,88.0
1210,0.46949893,-1.6780392,0.39194784,-1.1161743,-0.7434082,-1.9137452,88.0
1211,0.9560068,-1.7907102,0.6552331,-1.1161743,-0.7434082,-1.9137452,88.0
1212,0.9560068,-1.7907102,0.6552331,-1.0705079,-0.76464844,-1.8319702,88.0
1213,1.2007674,-1.9137694,0.95922065,-1.0705079,-0.76464844,-1.8319702,88.0
1214,1.2007674,-1.9137694,0.95922065,-1.0322754,-0.7508423,-1.6131958,88.0
1215,1.025299,-1.9616919,1.1497984,-1.0322754,-0.7508423,-1.6131958,88.0
1216,1.025299,-1.9616919,1.1497984,-0.96430665,-0.72323,-1.3391968,88.0
1217,1.025299,-1.9616919,1.1497984,-0.8442993,-0.7317261,-0.99935305,88.0
1218,0.57705075,-1.8569024,1.1422508,-0.8442993,-0.7317261,-0.99935305,88.0
1219,0.36656,-1.5555904,1.0063299,-0.8442993,-0.7317261,-0.99935305,88.0
1220,0.36656,-1.5555904,1.0063299,-0.5915405,-0.6977417,-0.6446411,88.0
1221,0.65545505,-1.1716328,0.8965678,-0.5915405,-0.6977417,-0.6446411,88.0
1222,0.65545505,-1.1716328,0.8965678,-0.2888672,-0.60216063,-0.33771974,88.0
1223,1.1367786,-0.8385391,0.7697811,-0.2888672,-0.60216063,-0.33771974,88.0
1224,1.1367786,-0.8385391,0.7697811,-0.12213135,-0.452417,-0.07540283,88.0
1225,1.4647818,-0.553668,0.471025,-0.12213135,-0.452417,-0.07540283,88.0
1226,1.4647818,-0.553668,0.471025,-0.13168946,-0.32497558,0.18903808,88.0
1227,1.656884,-0.3231957,0.042090893,-0.13168946,-0.32497558,0.18903808,88.0
1228,1.656884,-0.3231957,0.042090893,-0.16567384,-0.1731079,0.362146,88.0
1229,1.8347845,-0.28611994,-0.10181308,-0.16567384,-0.1731079,0.362146,88.0
1230,1.8347845,-0.28611994,-0.10181308,0.029736329,-0.1731079,0.4354248,88.0
1231,2.1080742,-0.49358082,0.3818307,0.029736329,-0.1731079,0.4354248,88.0
1232,2.1080742,-0.49358082,0.3818307,0.5363159,-0.11257324,0.42161867,88.0
1233,1.9927583,-0.6728797,1.2387409,0.5363159,-0.11257324,0.42161867,88.0
1234,1.9927583,-0.6728797,1.2387409,1.174585,-0.029736329,0.5065796,88.0
1235,1.1090746,-0.525877,1.4938982,1.174585,-0.029736329,0.5065796,88.0
1236,1.1090746,-0.525877,1.4938982,1.7671875,0.08814698,0.6287109,88.0
1237,0.2227943,0.026539803,0.70434713,1.7671875,0.08814698,0.6287109,88.0
1238,0.2227943,0.026539803,0.70434713,2.3332398,0.3090454,0.8442993,88.0
1239,-0.05913019,0.8137369,-0.44688606,2.3332398,0.3090454,0.8442993,88.0
1240,-0.05913019,0.8137369,-0.44688606,2.6900756,0.63826907,1.0205933,88.0
1241,-0.014442921,1.1661384,-0.9106705,2.6900756,0.63826907,1.0205933,88.0
1242,-0.014442921,1.1661384,-0.9106705,2.7591064,0.83898926,1.0875,88.0
1243,0.4328425,1.8851933,-1.9112389,2.7591064,0.83898926,1.0875,88.0
1244,0.4328425,1.8851933,-1.9112389,2.6953857,1.4379638,1.2319336,88.0
1245,0.47652292,1.8445315,-1.9771113,2.6953857,1.4379638,1.2319336,88.0
1246,0.47652292,1.8445315,-1.9771113,2.6762695,1.6418701,1.2627319,88.0
1247,-0.052033663,2.0793974,-2.381506,2.6762695,1.6418701,1.2627319,88.0
1248,-0.052033663,2.0793974,-2.381506,2.613611,2.182434,1.5622193,88.0
1249,-0.5806773,2.1291432,-2.326982,2.613611,2.182434,1.5622193,88.0
1250,-0.5806773,2.1291432,-2.326982,2.3810303,2.272705,1.7151489,88.0
1251,-2.4486728,2.794794,-1.6237317,2.3810303,2.272705,1.7151489,88.0
1252,-2.4486728,2.794794,-1.6237317,0.83686525,2.1909301,2.0560548,88.0
1253,-2.334744,2.6019363,-1.2691759,0.83686525,2.1909301,2.0560548,88.0
1254,-2.334744,2.6019363,-1.2691759,0.33984375,2.1187134,2.1452637,88.0
1255,-2.4389987,1.668036,-0.8609462,0.33984375,2.1187134,2.1452637,88.0
1256,-2.4389987,1.668036,-0.8609462,-0.50233155,1.806482,2.4022706,88.0
1257,-1.8847927,1.4148242,-1.0653927,-0.50233155,1.806482,2.4022706,88.0
1258,-1.8847927,1.4148242,-1.0653927,-0.60109866,1.7395753,2.444751,88.0
1259,-1.5867159,0.9129019,-1.8916696,-0.60109866,1.7395753,2.444751,88.0
1260,-1.5867159,0.9129019,-1.8916696,-0.3717041,1.540979,2.453247,88.0
1261,-1.5867159,0.9129019,-1.8916696,-0.13487549,1.5069946,2.3895264,88.0
1262,-1.1688356,0.8982781,-1.9562923,-0.13487549,1.5069946,2.3895264,88.0
1263,-0.41719747,1.2701484,-2.4180977,-0.13487549,1.5069946,2.3895264,88.0
1264,-0.41719747,1.2701484,-2.4180977,0.6064087,1.3954834,2.0932252,88.0
1265,-0.41719747,1.2701484,-2.4180977,0.8336792,1.3476928,1.9594116,88.0
1266,-0.41719747,1.2701484,-2.4180977,1.1650269,1.1384766,1.5526612,88.0
1267,-0.16845037,1.3282647,-2.0112848,1.1650269,1.1384766,1.5526612,88.0
1268,-0.16845037,1.3282647,-2.0112848,1.2064453,1.0450195,1.4092896,88.0
1269,-0.18047562,1.7066425,-1.308259,1.2064453,1.0450195,1.4092896,88.0
1270,-0.18047562,1.7066425,-1.308259,1.0365235,0.6595093,1.0609497,88.0
1271,-0.05689271,1.5684757,-1.0734992,1.0365235,0.6595093,1.0609497,88.0
1272,-0.05689271,1.5684757,-1.0734992,0.9218262,0.52038574,0.93775636,88.0
1273,0.4747251,1.5818315,-0.7809918,0.9218262,0.52038574,0.93775636,88.0
1274,0.4747251,1.5818315,-0.7809918,0.5671143,0.083898924,0.4895874,88.0
1275,0.6640818,1.3411977,-0.5714364,0.5671143,0.083898924,0.4895874,88.0
1276,0.6640818,1.3411977,-0.5714364,0.42905274,-0.0722168,0.33028564,88.0
1277,1.2636752,1.2686126,-0.08783746,0.42905274,-0.0722168,0.33028564,88.0
1278,1.2636752,1.2686126,-0.08783746,0.42905274,-0.0722168,0.33028564,90.0
1279,1.2636752,1.2686126,-0.08783746,-0.06690674,-0.5533081,-0.1720459,90.0
1280,1.2089015,1.048008,0.11155391,-0.06690674,-0.5533081,-0.1720459,90.0
1281,1.2089015,1.048008,0.11155391,-0.24213867,-0.7104859,-0.38551027,90.0
1282,1.9060984,0.74573064,0.43237066,-0.24213867,-0.7104859,-0.38551027,90.0
1283,1.9060984,0.74573064,0.43237066,-0.5586182,-1.1629028,-1.0428956,90.0
1284,1.7373055,0.41974115,0.6079328,-0.5586182,-1.1629028,-1.0428956,90.0
1285,1.7373055,0.41974115,0.6079328,-0.63720703,-1.3094605,-1.260608,90.0
1286,1.8547735,-0.16962695,1.1815,-0.63720703,-1.3094605,-1.260608,90.0
1287,1.8547735,-0.16962695,1.1815,-0.7848267,-1.807544,-1.7597535,90.0
1288,1.1059136,-0.5559406,1.5901585,-0.7848267,-1.807544,-1.7597535,90.0
1289,1.1059136,-0.5559406,1.5901585,-0.72323,-1.9625977,-1.812854,90.0
1290,-0.90633345,-1.2927873,2.7969315,-0.72323,-1.9625977,-1.812854,90.0
1291,-0.90633345,-1.2927873,2.7969315,-0.37489015,-2.1558838,-2.0677369,90.0
1292,-1.3582332,-1.239296,2.7583947,-0.37489015,-2.1558838,-2.0677369,90.0
1293,-1.3582332,-1.239296,2.7583947,-0.28461915,-2.1813722,-2.005078,90.0
1294,-1.0714133,-0.5296571,1.7174214,-0.28461915,-2.1813722,-2.005078,90.0
1295,-1.0714133,-0.5296571,1.7174214,0.012744141,-1.8861328,-1.7055908,90.0
1296,-0.49319017,-0.47829127,1.0221672,0.012744141,-1.8861328,-1.7055908,90.0
1297,-0.49319017,-0.47829127,1.0221672,0.095581055,-1.717273,-1.6546143,90.0
1298,0.732401,-0.30775523,-0.54985666,0.095581055,-1.717273,-1.6546143,90.0
1299,0.732401,-0.30775523,-0.54985666,-0.20603028,-1.0301514,-1.5760254,90.0
1300,0.48004925,-0.43140912,-0.4246632,-0.20603028,-1.0301514,-1.5760254,90.0
1301,0.48004925,-0.43140912,-0.4246632,-0.6595093,-0.8750977,-1.5123047,90.0
1302,-1.0993469,-0.84201455,0.31084323,-0.6595093,-0.8750977,-1.5123047,90.0
1303,-1.0993469,-0.84201455,0.31084323,-1.7480713,-0.45878908,-1.2807862,90.0
1304,-1.5628881,-1.0162507,0.55729276,-1.7480713,-0.45878908,-1.2807862,90.0
1305,-1.5628881,-1.0162507,0.55729276,-2.0443726,-0.36002198,-1.1894531,90.0
1306,-2.7613702,-1.6110841,0.78182054,-2.0443726,-0.36002198,-1.1894531,90.0
1307,-2.7613702,-1.6110841,0.78182054,-2.4925416,-0.24957275,-1.0588257,90.0
1308,-2.409975,-1.5854616,0.6800951,-2.4925416,-0.24957275,-1.0588257,90.0
1309,-2.409975,-1.5854616,0.6800951,-2.4585571,-0.2548828,-0.97280276,90.0
1310,-1.9004409,-1.7502296,0.56364393,-2.4585571,-0.2548828,-0.97280276,90.0
1311,-1.9004409,-1.7502296,0.56364393,-2.3056276,-0.2782471,-0.9600586,90.0
1312,-1.2432288,-1.9821296,0.509277,-2.3056276,-0.2782471,-0.9600586,90.0
1313,-1.2432288,-1.9821296,0.509277,-2.0496826,-0.3419678,-1.0163453,90.0
1314,-0.6928008,-2.1387799,0.4613523,-2.0496826,-0.3419678,-1.0163453,90.0
1315,-0.6928008,-2.1387799,0.4613523,-1.7321411,-0.42799073,-1.1469727,90.0
1316,-0.26573968,-2.0324228,0.40957254,-1.7321411,-0.42799073,-1.1469727,90.0
1317,-0.26573968,-2.0324228,0.40957254,-1.4029175,-0.5320679,-1.2329956,90.0
1318,0.33683455,-1.6179183,0.5702606,-1.4029175,-0.5320679,-1.2329956,90.0
1319,0.33683455,-1.6179183,0.5702606,-1.0556396,-0.6488892,-1.2945923,90.0
1320,0.4030614,-1.4205432,0.69289064,-1.0556396,-0.6488892,-1.2945923,90.0
1321,0.4030614,-1.4205432,0.69289064,-0.9759888,-0.6860596,-1.2924683,90.0
1322,0.3849247,-1.2809658,0.956522,-0.9759888,-0.6860596,-1.2924683,90.0
1323,0.3849247,-1.2809658,0.956522,-0.8442993,-0.7497803,-1.2255615,90.0
1324,0.3849247,-1.2809658,0.956522,-0.68924564,-0.7954468,-1.0981201,90.0
1325,0.15972203,-1.2525804,1.107344,-0.68924564,-0.7954468,-1.0981201,90.0
1326,0.84160817,-1.5624282,1.7716906,-0.68924564,-0.7954468,-1.0981201,90.0
1327,0.84160817,-1.5624282,1.7716906,-0.46834716,-0.8326172,-0.9228882,90.0
1328,0.84160817,-1.5624282,1.7716906,-0.14868164,-0.83049315,-0.7720825,90.0
1329,0.84160817,-1.5624282,1.7716906,0.16354981,-0.7742066,-0.634021,90.0
1330,1.4757036,-1.285465,1.5130434,0.16354981,-0.7742066,-0.634021,90.0
1331,1.4757036,-1.285465,1.5130434,0.362146,-0.6605713,-0.49383545,90.0
1332,2.0113978,-0.92940974,1.0215919,0.362146,-0.6605713,-0.49383545,90.0
1333,2.0113978,-0.92940974,1.0215919,0.35152587,-0.47896728,-0.29311523,90.0
1334,2.4962034,-0.5629616,0.43800116,0.35152587,-0.47896728,-0.29311523,90.0
1335,2.4962034,-0.5629616,0.43800116,0.2177124,-0.3430298,-0.10301514,90.0
1336,3.076821,-0.3686552,0.35147524,0.2177124,-0.3430298,-0.10301514,90.0
1337,3.076821,-0.3686552,0.35147524,0.18054199,-0.115759276,0.24638672,90.0
1338,2.6835272,-0.33573222,0.5544958,0.18054199,-0.115759276,0.24638672,90.0
1339,2.6835272,-0.33573222,0.5544958,0.27506104,-0.06584473,0.35152587,90.0
1340,2.241353,-0.44457436,1.1412895,0.27506104,-0.06584473,0.35152587,90.0
1341,2.241353,-0.44457436,1.1412895,0.6775635,0.12531738,0.6085327,90.0
1342,1.062577,-0.40528107,1.1943669,0.6775635,0.12531738,0.6085327,90.0
1343,1.062577,-0.40528107,1.1943669,1.1289185,0.32816163,0.85598147,90.0
1344,0.013245106,-0.033624172,0.38053012,1.1289185,0.32816163,0.85598147,90.0
1345,0.013245106,-0.033624172,0.38053012,1.6121339,0.51932377,1.1119263,90.0
1346,-0.224267,0.56799793,-0.6757395,1.6121339,0.51932377,1.1119263,90.0
1347,-0.224267,0.56799793,-0.6757395,2.0167603,0.8612915,1.2712281,90.0
1348,0.05448532,1.2018836,-1.3336337,2.0167603,0.8612915,1.2712281,90.0
1349,0.05448532,1.2018836,-1.3336337,2.1909301,1.1629028,1.3753052,90.0
1350,0.4789765,1.7383869,-1.6021974,2.1909301,1.1629028,1.3753052,90.0
1351,0.4789765,1.7383869,-1.6021974,2.171814,1.4995606,1.4677002,90.0
1352,0.4932518,2.0403557,-1.7125685,2.171814,1.4995606,1.4677002,90.0
1353,0.4932518,2.0403557,-1.7125685,2.0008302,1.7947998,1.5484132,90.0
1354,-0.13343811,2.070334,-1.8649035,2.0008302,1.7947998,1.5484132,90.0
1355,-0.13343811,2.070334,-1.8649035,1.9116211,2.0008302,1.6917847,90.0
1356,-1.195044,2.0995898,-1.9864541,1.9116211,2.0008302,1.6917847,90.0
1357,-1.195044,2.0995898,-1.9864541,1.6949707,2.1006591,1.899939,90.0
1358,-2.1406057,2.2941008,-1.7794466,1.6949707,2.1006591,1.899939,90.0
1359,-2.1406057,2.2941008,-1.7794466,0.93775636,2.0199463,2.0560548,90.0
1360,-2.5025601,2.2346826,-1.3277442,0.93775636,2.0199463,2.0560548,90.0
1361,-2.5025601,2.2346826,-1.3277442,0.26656494,1.8755127,2.1027832,90.0
1362,-2.351743,1.7073748,-1.1183112,0.26656494,1.8755127,2.1027832,90.0
1363,-2.351743,1.7073748,-1.1183112,-0.16992188,1.6854126,2.1431396,90.0
1364,-2.0161967,1.1525087,-1.3369585,-0.16992188,1.6854126,2.1431396,90.0
1365,-2.0161967,1.1525087,-1.3369585,-0.23682861,1.5420411,2.1134033,90.0
1366,-1.6255062,0.8751198,-1.7015982,-0.23682861,1.5420411,2.1134033,90.0
1367,-1.6255062,0.8751198,-1.7015982,-0.040356446,1.4326538,2.0199463,90.0
1368,-1.1383078,0.7449689,-1.8599479,-0.040356446,1.4326538,2.0199463,90.0
1369,-1.1383078,0.7449689,-1.8599479,0.32603762,1.3657471,1.8362182,90.0
1370,-1.1383078,0.7449689,-1.8599479,0.6573853,1.3222046,1.5962037,90.0
1371,-0.69062674,0.64588976,-1.7840889,0.6573853,1.3222046,1.5962037,90.0
1372,-0.33198136,1.6660283,-1.927918,0.6573853,1.3222046,1.5962037,90.0
1373,-0.33198136,1.6660283,-1.927918,0.7688965,1.2372437,1.4199097,90.0
1374,-0.33198136,1.6660283,-1.927918,0.7317261,1.1427246,1.1979493,90.0
1375,-0.33198136,1.6660283,-1.927918,0.5957886,0.99298096,1.0407715,90.0
1376,-0.25340247,1.6538432,-1.5492435,0.5957886,0.99298096,1.0407715,90.0
1377,-0.25340247,1.6538432,-1.5492435,0.39082032,0.80394286,0.8485474,90.0
1378,-0.07425518,1.4900057,-1.191714,0.39082032,0.80394286,0.8485474,90.0
1379,-0.07425518,1.4900057,-1.191714,0.20496826,0.55543214,0.66269535,90.0
1380,0.22318862,1.2557497,-0.87573457,0.20496826,0.55543214,0.66269535,90.0
1381,0.22318862,1.2557497,-0.87573457,0.20496826,0.55543214,0.66269535,91.0
1382,0.22318862,1.2557497,-0.87573457,0.04248047,0.3058594,0.37382814,91.0
1383,0.5283434,1.0536721,-0.54392266,0.04248047,0.3058594,0.37382814,91.0
1384,0.5283434,1.0536721,-0.54392266,-0.13381349,-0.0063720704,0.07540283,91.0
1385,0.76372695,0.8865657,-0.19015527,-0.13381349,-0.0063720704,0.07540283,91.0
1386,0.76372695,0.8865657,-0.19015527,-0.24532472,-0.34833986,-0.27718505,91.0
1387,1.091255,0.7131343,0.13769507,-0.24532472,-0.34833986,-0.27718505,91.0
1388,1.091255,0.7131343,0.13769507,-0.3069214,-0.70092773,-0.72960204,91.0
1389,1.5533751,0.4358759,0.46921372,-0.3069214,-0.70092773,-0.72960204,91.0
1390,1.5533751,0.4358759,0.46921372,-0.27293703,-1.0683838,-1.1894531,91.0
1391,1.8748169,0.06619334,0.842937,-0.27293703,-1.0683838,-1.1894531,91.0
1392,1.8748169,0.06619334,0.842937,-0.24213867,-1.4326538,-1.6174439,91.0
1393,1.9417237,-0.32015324,1.2285244,-0.24213867,-1.4326538,-1.6174439,91.0
1394,1.9417237,-0.32015324,1.2285244,-0.19647217,-1.7735596,-1.9402955,91.0
1395,1.3909645,-0.77617884,1.8012645,-0.19647217,-1.7735596,-1.9402955,91.0
1396,1.3909645,-0.77617884,1.8012645,-0.06584473,-2.0454347,-2.0326905,91.0
1397,0.23614812,-1.0886798,2.3997884,-0.06584473,-2.0454347,-2.0326905,91.0
1398,0.23614812,-1.0886798,2.3997884,0.121069334,-2.1399536,-2.2164185,91.0
1399,-0.5239477,-0.8826747,2.5256658,0.121069334,-2.1399536,-2.2164185,91.0
1400,-0.5239477,-0.8826747,2.5256658,0.22196046,-2.1495118,-2.075171,91.0
1401,-0.3287406,-0.4534788,1.9307133,0.22196046,-2.1495118,-2.075171,91.0
1402,-0.3287406,-0.4534788,1.9307133,0.3430298,-1.8956909,-1.8574585,91.0
1403,0.4117756,-0.19046879,0.8844389,0.3430298,-1.8956909,-1.8574585,91.0
1404,0.4117756,-0.19046879,0.8844389,0.26019287,-1.5505371,-1.7055908,91.0
1405,0.9063735,-0.07200408,0.028669238,0.26019287,-1.5505371,-1.7055908,91.0
1406,0.9063735,-0.07200408,0.028669238,-0.25700685,-1.0651978,-1.5611572,91.0
1407,0.43442488,-0.19373608,-0.11049968,-0.25700685,-1.0651978,-1.5611572,91.0
1408,0.43442488,-0.19373608,-0.11049968,-1.1565307,-0.6839356,-1.3689331,91.0
1409,-0.89926195,-0.67381215,0.36140496,-1.1565307,-0.6839356,-1.3689331,91.0
1410,-0.89926195,-0.67381215,0.36140496,-1.8447144,-0.37595215,-1.1979493,91.0
1411,-2.295899,-1.295898,0.8438847,-1.8447144,-0.37595215,-1.1979493,91.0
1412,-2.295899,-1.295898,0.8438847,-2.261023,-0.18585205,-1.0099732,91.0
1413,-3.0354373,-1.733801,0.9441019,-2.261023,-0.18585205,-1.0099732,91.0
1414,-3.0354373,-1.733801,0.9441019,-2.3682861,-0.081774905,-0.89421386,91.0
1415,-2.9260063,-1.8273485,0.7113851,-2.3682861,-0.081774905,-0.89421386,91.0
1416,-2.9260063,-1.8273485,0.7113851,-2.270581,-0.026550293,-0.7604004,91.0
1417,-2.4296844,-1.7868667,0.3825724,-2.270581,-0.026550293,-0.7604004,91.0
1418,-2.4296844,-1.7868667,0.3825724,-2.163318,0.009558106,-0.7412842,91.0
1419,-1.9478369,-1.8130138,0.13757646,-2.163318,0.009558106,-0.7412842,91.0
1420,-1.9478369,-1.8130138,0.13757646,-1.989148,-0.011682129,-0.78376466,91.0
1421,-1.4396293,-1.8434775,0.0695827,-1.989148,-0.011682129,-0.78376466,91.0
1422,-1.4396293,-1.8434775,0.0695827,-1.7416992,-0.05522461,-0.9388184,91.0
1423,-0.8637762,-1.8067889,0.20401824,-1.7416992,-0.05522461,-0.9388184,91.0
1424,-0.8637762,-1.8067889,0.20401824,-1.4443359,-0.121069334,-1.0683838,91.0
1425,-0.30554736,-1.6312221,0.43768966,-1.4443359,-0.121069334,-1.0683838,91.0
1426,-0.30554736,-1.6312221,0.43768966,-1.2149414,-0.19434814,-1.1629028,91.0
1427,0.08974171,-1.3647189,0.60641396,-1.2149414,-0.19434814,-1.1629028,91.0
1428,0.08974171,-1.3647189,0.60641396,-1.1044922,-0.271875,-1.1533448,91.0
1429,0.23203504,-1.1459378,0.60872746,-1.1044922,-0.271875,-1.1533448,91.0
1430,0.23203504,-1.1459378,0.60872746,-1.0120972,-0.31116945,-1.0556396,91.0
1431,0.11314273,-0.9888816,0.49014354,-1.0120972,-0.31116945,-1.0556396,91.0
1432,0.11314273,-0.9888816,0.49014354,-0.9717407,-0.34727785,-0.87615967,91.0
1433,0.11314273,-0.9888816,0.49014354,-0.83898926,-0.42161867,-0.72323,91.0
1434,0.06312156,-0.8855877,0.33627987,-0.83898926,-0.42161867,-0.72323,91.0
1435,2.727841,1.1912124,-0.7716011,-0.83898926,-0.42161867,-0.72323,91.0
1436,2.727841,1.1912124,-0.7716011,-0.5214478,-0.45454103,-0.60322267,91.0
1437,2.727841,1.1912124,-0.7716011,-0.19753419,-0.4991455,-0.56817627,91.0
1438,2.727841,1.1912124,-0.7716011,0.07327881,-0.5246338,-0.5363159,91.0
1439,3.0425756,0.76079464,-0.51356995,0.07327881,-0.5246338,-0.5363159,91.0
1440,3.0425756,0.76079464,-0.51356995,0.23682861,-0.5214478,-0.41206056,91.0
1441,3.161807,0.6110039,-0.47402734,0.23682861,-0.5214478,-0.41206056,91.0
1442,3.161807,0.6110039,-0.47402734,0.37489015,-0.51082766,-0.26868898,91.0
1443,3.0890405,0.5995209,-0.40446597,0.37489015,-0.51082766,-0.26868898,91.0
1444,3.0890405,0.5995209,-0.40446597,0.45772704,-0.4800293,-0.007434082,91.0
1445,3.0329146,0.64604735,-0.2040171,0.45772704,-0.4800293,-0.007434082,91.0
1446,3.0329146,0.64604735,-0.2040171,0.6149048,-0.4088745,0.27506104,91.0
1447,2.7105846,0.7074019,0.1506291,0.6149048,-0.4088745,0.27506104,91.0
1448,2.7105846,0.7074019,0.1506291,0.8612915,-0.20072022,0.5777344,91.0
1449,1.3089583,0.7100499,0.29831094,0.8612915,-0.20072022,0.5777344,91.0
1450,1.3089583,0.7100499,0.29831094,1.1533448,0.03186035,0.90908206,91.0
1451,-0.24769425,0.70558876,-0.12595087,1.1533448,0.03186035,0.90908206,91.0
1452,-0.24769425,0.70558876,-0.12595087,1.5431031,0.18691407,1.1469727,91.0
1453,-0.7176013,0.8246761,-0.8273476,1.5431031,0.18691407,1.1469727,91.0
1454,-0.7176013,0.8246761,-0.8273476,1.9434814,0.4609131,1.3137085,91.0
1455,-0.18094134,1.0659177,-1.3657355,1.9434814,0.4609131,1.3137085,91.0
1456,-0.18094134,1.0659177,-1.3657355,2.2238526,0.7604004,1.3944215,91.0
1457,0.6483135,1.3684813,-1.6363506,2.2238526,0.7604004,1.3944215,91.0
1458,0.6483135,1.3684813,-1.6363506,2.2769532,1.0821899,1.4772583,91.0
1459,0.9369736,1.6722143,-1.7477036,2.2769532,1.0821899,1.4772583,91.0
1460,0.9369736,1.6722143,-1.7477036,2.080481,1.355127,1.5877075,91.0
1461,0.38466167,1.8290068,-1.7862366,2.080481,1.355127,1.5877075,91.0
1462,0.38466167,1.8290068,-1.7862366,1.7809937,1.5239868,1.7140869,91.0
1463,-0.5520241,1.8255346,-1.8101783,1.7809937,1.5239868,1.7140869,91.0
1464,-0.5520241,1.8255346,-1.8101783,1.5208008,1.6110718,1.9211792,91.0
1465,-1.3431575,1.847537,-1.7837994,1.5208008,1.6110718,1.9211792,91.0
1466,-1.3431575,1.847537,-1.7837994,1.1204224,1.5993897,2.1017213,91.0
1467,-1.6720846,1.8399925,-1.5992074,1.1204224,1.5993897,2.1017213,91.0
1468,-1.6720846,1.8399925,-1.5992074,0.62552494,1.5080566,2.1728761,91.0
1469,-1.5825408,1.5303192,-1.3248615,0.62552494,1.5080566,2.1728761,91.0
1470,-1.5825408,1.5303192,-1.3248615,0.24638672,1.3625611,2.1781862,91.0
1471,-1.3679613,1.0031004,-1.1564589,0.24638672,1.3625611,2.1781862,91.0
1472,-1.3679613,1.0031004,-1.1564589,0.07965088,1.1862671,2.1017213,91.0
1473,-1.3679613,1.0031004,-1.1564589,0.07965088,1.1862671,2.1017213,93.0
1474,-1.1387416,0.55186987,-1.1799033,0.07965088,1.1862671,2.1017213,93.0
1475,-1.1387416,0.55186987,-1.1799033,0.21877442,1.0397094,1.9307374,93.0
1476,-0.8696847,0.29831958,-1.275136,0.21877442,1.0397094,1.9307374,93.0
1477,-0.8696847,0.29831958,-1.275136,0.52250975,0.9218262,1.6939087,93.0
1478,-0.54679763,0.2015953,-1.2847695,0.52250975,0.9218262,1.6939087,93.0
1479,-0.54679763,0.2015953,-1.2847695,0.85598147,0.83898926,1.4156617,93.0
1480,-0.23320222,0.31658626,-1.2284384,0.85598147,0.83898926,1.4156617,93.0
1481,-0.23320222,0.31658626,-1.2284384,0.9696167,0.7593384,1.1512207,93.0
1482,-0.0064347982,0.58754635,-1.111547,0.9696167,0.7593384,1.1512207,93.0
1483,-0.0064347982,0.58754635,-1.111547,0.9133301,0.65632325,0.9345703,93.0
1484,0.16550648,0.7725394,-0.91228485,0.9133301,0.65632325,0.9345703,93.0
1485,0.16550648,0.7725394,-0.91228485,0.82836914,0.5511841,0.73809814,93.0
1486,0.3999834,0.82162046,-0.730072,0.82836914,0.5511841,0.73809814,93.0
1487,0.3999834,0.82162046,-0.730072,0.6690674,0.4354248,0.542688,93.0
1488,0.81363904,0.79004765,-0.64034414,0.6690674,0.4354248,0.542688,93.0
1489,0.81363904,0.79004765,-0.64034414,0.4598511,0.30373535,0.30161133,93.0
1490,1.4152057,0.7309518,-0.57847404,0.4598511,0.30373535,0.30161133,93.0
1491,1.4152057,0.7309518,-0.57847404,0.19647217,0.15930176,0.023364259,93.0
1492,1.9328971,0.67904854,-0.44473743,0.19647217,0.15930176,0.023364259,93.0
1493,1.9328971,0.67904854,-0.44473743,-0.15717773,-0.039294433,-0.23789063,93.0
1494,2.191972,0.5909686,-0.289042,-0.15717773,-0.039294433,-0.23789063,93.0
1495,2.191972,0.5909686,-0.289042,-0.54906005,-0.24532472,-0.542688,93.0
1496,2.4204478,0.3793912,-0.18883848,-0.54906005,-0.24532472,-0.542688,93.0
1497,2.4204478,0.3793912,-0.18883848,-0.78376466,-0.49383545,-0.90802,93.0
1498,2.6374083,0.014523506,-0.006441593,-0.78376466,-0.49383545,-0.90802,93.0
1499,2.6374083,0.014523506,-0.006441593,-0.8496094,-0.7614624,-1.2149414,93.0
1500,2.6393213,-0.32943344,0.34892368,-0.8496094,-0.7614624,-1.2149414,93.0
1501,2.6393213,-0.32943344,0.34892368,-0.8485474,-1.0981201,-1.5271729,93.0
1502,2.1225533,-0.64357615,0.9231572,-0.8485474,-1.0981201,-1.5271729,93.0
1503,2.1225533,-0.64357615,0.9231572,-0.71367186,-1.5197388,-1.6801026,93.0
1504,0.6249962,-0.9577317,1.7826056,-0.71367186,-1.5197388,-1.6801026,93.0
1505,0.6249962,-0.9577317,1.7826056,-0.4333008,-1.8765748,-1.6110718,93.0
1506,-1.353775,-1.2103384,2.432652,-0.4333008,-1.8765748,-1.6110718,93.0
1507,-1.353775,-1.2103384,2.432652,-0.11682129,-1.9445435,-1.6599244,93.0
1508,-2.3955083,-0.9983978,2.235001,-0.11682129,-1.9445435,-1.6599244,93.0
1509,-2.3955083,-0.9983978,2.235001,0.37595215,-1.8797607,-1.4623902,93.0
1510,-1.9953618,-0.26486826,1.2499151,0.37595215,-1.8797607,-1.4623902,93.0
1511,-1.9953618,-0.26486826,1.2499151,0.5628662,-1.6408081,-1.2850342,93.0
1512,-1.0230474,0.40217996,0.15963674,0.5628662,-1.6408081,-1.2850342,93.0
1513,-1.0230474,0.40217996,0.15963674,0.29311523,-1.2627319,-1.1671509,93.0
1514,-0.5766411,0.6173861,-0.26311088,0.29311523,-1.2627319,-1.1671509,93.0
1515,-0.5766411,0.6173861,-0.26311088,-0.4991455,-0.85598147,-1.1204224,93.0
1516,-1.0525236,0.34262705,0.07469201,-0.4991455,-0.85598147,-1.1204224,93.0
1517,-1.0525236,0.34262705,0.07469201,-1.4974365,-0.542688,-1.0057251,93.0
1518,-1.6586571,0.5913868,0.75402856,-1.4974365,-0.542688,-1.0057251,93.0
1519,-1.6586571,0.5913868,0.75402856,-2.1431396,-0.31329346,-0.92501223,93.0
1520,-2.5258758,-0.070750475,1.2280033,-2.1431396,-0.31329346,-0.92501223,93.0
1521,-2.5258758,-0.070750475,1.2280033,-2.4022706,-0.15186767,-0.8230591,93.0
1522,-2.875498,-0.5002403,1.3627129,-2.4022706,-0.15186767,-0.8230591,93.0
1523,-2.875498,-0.5002403,1.3627129,-2.3268678,-0.0722168,-0.81987303,93.0
1524,-2.6913042,-0.7501435,1.2126312,-2.3268678,-0.0722168,-0.81987303,93.0
1525,-2.6913042,-0.7501435,1.2126312,-2.1367676,-0.04991455,-0.84323734,93.0
1526,-2.210734,-0.89063,0.9800904,-2.1367676,-0.04991455,-0.84323734,93.0
1527,-2.210734,-0.89063,0.9800904,-1.9402955,-0.06265869,-0.83049315,93.0
1528,-1.6692219,-0.97497964,0.77097416,-1.9402955,-0.06265869,-0.83049315,93.0
1529,-1.6692219,-0.97497964,0.77097416,-1.721521,-0.098767094,-0.9547486,93.0
1530,-1.1007217,-0.8823643,0.5912545,-1.721521,-0.098767094,-0.9547486,93.0
1531,-1.1007217,-0.8823643,0.5912545,-1.5091187,-0.13275146,-1.0407715,93.0
1532,-0.50740844,-0.71190953,0.5284357,-1.5091187,-0.13275146,-1.0407715,93.0
1533,-0.50740844,-0.71190953,0.5284357,-1.3731812,-0.17841797,-1.1172364,93.0
1534,0.048846185,-0.60932255,0.71574175,-1.3731812,-0.17841797,-1.1172364,93.0
1535,0.048846185,-0.60932255,0.71574175,-1.2627319,-0.25594482,-1.174585,93.0
1536,0.42932355,-0.5333321,1.0241804,-1.2627319,-0.25594482,-1.174585,93.0
1537,0.42932355,-0.5333321,1.0241804,-1.2372437,-0.33878174,-1.1512207,93.0
1538,0.4515521,-0.5522883,1.1789513,-1.2372437,-0.33878174,-1.1512207,93.0
1539,0.4515521,-0.5522883,1.1789513,-1.1990112,-0.41949463,-1.0588257,93.0
1540,0.2400991,-0.6381686,1.1103729,-1.1990112,-0.41949463,-1.0588257,93.0
1541,0.2400991,-0.6381686,1.1103729,-1.0705079,-0.4970215,-0.9281983,93.0
1542,0.18972334,-0.7505617,0.9786792,-1.0705079,-0.4970215,-0.9281983,93.0
1543,0.18972334,-0.7505617,0.9786792,-0.7688965,-0.5766724,-0.815625,93.0
1544,0.539242,-0.8646339,0.95516014,-0.7688965,-0.5766724,-0.815625,93.0
1545,0.539242,-0.8646339,0.95516014,-0.31860352,-0.6117188,-0.72960204,93.0
1546,1.1327243,-0.86476624,1.0214036,-0.31860352,-0.6117188,-0.72960204,93.0
1547,1.1327243,-0.86476624,1.0214036,0.0053100586,-0.6202149,-0.62764895,93.0
1548,1.6803615,-0.69834375,0.95116824,0.0053100586,-0.6202149,-0.62764895,93.0
1549,1.6803615,-0.69834375,0.95116824,0.13275146,-0.57561034,-0.5214478,93.0
1550,2.12405,-0.4485309,0.5896211,0.13275146,-0.57561034,-0.5214478,93.0
1551,2.12405,-0.4485309,0.5896211,0.07115479,-0.5586182,-0.38232422,93.0
1552,2.5158293,-0.25231838,0.31566662,0.07115479,-0.5586182,-0.38232422,93.0
1553,2.5158293,-0.25231838,0.31566662,0.04991455,-0.46622315,-0.22302246,93.0
1554,2.7580492,-0.25793386,0.6019962,0.04991455,-0.46622315,-0.22302246,93.0
1555,2.7580492,-0.25793386,0.6019962,0.16779785,-0.4322388,-0.078588866,93.0
1556,2.5490663,-0.47891784,1.3090627,0.16779785,-0.4322388,-0.078588866,93.0
1557,2.5490663,-0.47891784,1.3090627,0.5384399,-0.27293703,0.11469727,93.0
1558,1.4646802,-0.6423384,1.6299162,0.5384399,-0.27293703,0.11469727,93.0
1559,1.4646802,-0.6423384,1.6299162,1.0195312,-0.04460449,0.41737062,93.0
1560,0.27445412,-0.38392687,0.87323236,1.0195312,-0.04460449,0.41737062,93.0
1561,0.27445412,-0.38392687,0.87323236,1.4963745,0.15080567,0.70092773,93.0
1562,0.08925319,0.23695028,-0.53444636,1.4963745,0.15080567,0.70092773,93.0
1563,0.08925319,0.23695028,-0.53444636,1.9562256,0.57242435,0.9685547,93.0
1564,0.6547766,0.90853,-1.675311,1.9562256,0.57242435,0.9685547,93.0
1565,0.6547766,0.90853,-1.675311,2.1070313,1.0163453,1.1172364,93.0
1566,1.221551,1.4488211,-2.1999655,2.1070313,1.0163453,1.1172364,93.0
1567,1.221551,1.4488211,-2.1999655,1.9371094,1.4730103,1.2722901,93.0
1568,1.1606269,1.7531974,-2.231762,1.9371094,1.4730103,1.2722901,93.0
1569,1.1606269,1.7531974,-2.231762,1.5569092,1.8468384,1.453894,93.0
1570,0.24996138,1.7741034,-2.097751,1.5569092,1.8468384,1.453894,93.0
1571,0.24996138,1.7741034,-2.097751,1.1512207,2.092163,1.6662964,93.0
1572,-0.9946475,1.5762286,-1.9902003,1.1512207,2.092163,1.6662964,93.0
1573,-0.9946475,1.5762286,-1.9902003,0.8772217,2.2047365,1.9094971,93.0
1574,-0.9946475,1.5762286,-1.9902003,0.8772217,2.2047365,1.9094971,93.0
1575,-1.9148221,1.3628261,-1.8642672,0.8772217,2.2047365,1.9094971,93.0
1576,-1.9148221,1.3628261,-1.8642672,0.6414551,2.151636,2.1144655,93.0
1577,-2.27927,1.2299461,-1.6107864,0.6414551,2.151636,2.1144655,93.0
1578,-2.27927,1.2299461,-1.6107864,0.26762697,1.9753418,2.2164185,93.0
1579,-2.155972,0.99457717,-1.3415833,0.26762697,1.9753418,2.2164185,93.0
1580,-2.155972,0.99457717,-1.3415833,-0.023364259,1.7374512,2.2408447,93.0
1581,-1.775034,0.62525177,-1.256238,-0.023364259,1.7374512,2.2408447,93.0
1582,-1.775034,0.62525177,-1.256238,-0.053100586,1.4942505,2.2100465,93.0
1583,-1.2592728,0.3590393,-1.3881202,-0.053100586,1.4942505,2.2100465,93.0
1584,-1.2592728,0.3590393,-1.3881202,0.19753419,1.3137085,2.1080933,93.0
1585,-0.72292113,0.2962036,-1.608531,0.19753419,1.3137085,2.1080933,93.0
1586,-0.72292113,0.2962036,-1.608531,0.58198243,1.2149414,1.9445435,93.0
1587,-0.25465524,0.3654542,-1.7491906,0.58198243,1.2149414,1.9445435,93.0
1588,-0.25465524,0.3654542,-1.7491906,0.9366943,1.1416626,1.7501954,93.0
1589,-0.25465524,0.3654542,-1.7491906,1.1013062,1.0651978,1.5813354,93.0
1590,0.16205955,0.52688503,-1.7111201,1.1013062,1.0651978,1.5813354,93.0
1591,0.90006995,1.3646598,-1.4113035,1.1013062,1.0651978,1.5813354,93.0
1592,0.90006995,1.3646598,-1.4113035,1.0970582,0.96430665,1.3657471,93.0
1593,0.90006995,1.3646598,-1.4113035,0.9759888,0.8262451,1.1724609,93.0
1594,0.90006995,1.3646598,-1.4113035,0.7678345,0.6605713,0.9717407,93.0
1595,0.72005606,1.0917277,-1.1290426,0.7678345,0.6605713,0.9717407,93.0
1596,1.5768504,1.1360044,-0.97967434,0.7678345,0.6605713,0.9717407,93.0
1597,1.5768504,1.1360044,-0.97967434,0.51082766,0.47684327,0.72004396,93.0
1598,1.5768504,1.1360044,-0.97967434,0.2814331,0.24851075,0.45560303,93.0
1599,1.5768504,1.1360044,-0.97967434,0.05628662,0.012744141,0.1263794,93.0
