,accx,accy,accz,gyrox,gyroy,gyroz,heart rate
0,walk,walk,walk,walk,walk,walk,walk
1,7.67218,-57.290504,35.6594,0.0,0.0,0.0,0.0
2,7.67218,-57.290504,35.6594,-0.04248047,0.08496094,-0.11682129,0.0
3,6.0045776,-45.96872,28.433563,-0.04248047,0.08496094,-0.11682129,0.0
4,6.0045776,-45.96872,28.433563,-0.008496094,0.087084964,-0.093457036,0.0
5,4.8083253,-36.77346,22.798475,-0.008496094,0.087084964,-0.093457036,0.0
6,4.8083253,-36.77346,22.798475,-0.0361084,0.09133301,-0.093457036,0.0
7,3.9456105,-29.363472,18.465405,-0.0361084,0.09133301,-0.093457036,0.0
8,3.9456105,-29.363472,18.465405,-0.04991455,0.0541626,-0.058410645,0.0
9,3.1659608,-23.474602,14.809105,-0.04991455,0.0541626,-0.058410645,0.0
10,3.1659608,-23.474602,14.809105,-0.012744141,0.038232423,-0.04141846,0.0
11,2.5109425,-18.69511,11.726898,-0.012744141,0.038232423,-0.04141846,0.0
12,2.5109425,-18.69511,11.726898,0.019116212,0.06159668,-0.004248047,0.0
13,1.9934096,-14.94973,9.319958,0.019116212,0.06159668,-0.004248047,0.0
14,1.9934096,-14.94973,9.319958,0.025488282,0.06265869,0.019116212,0.0
15,1.5760508,-12.024895,7.400093,0.025488282,0.06265869,0.019116212,0.0
16,1.5760508,-12.024895,7.400093,0.10513916,0.053100586,0.0031860352,0.0
17,1.271925,-9.629646,5.9641647,0.10513916,0.053100586,0.0031860352,0.0
18,1.271925,-9.629646,5.9641647,0.11363526,0.03079834,0.014868164,0.0
19,1.0666857,-7.5974426,4.9102745,0.11363526,0.03079834,0.014868164,0.0
20,1.0666857,-7.5974426,4.9102745,0.095581055,0.0021240234,0.0021240234,0.0
21,1.0666857,-7.5974426,4.9102745,0.08283692,0.0,-0.010620117,0.0
22,0.85334873,-6.0449753,3.958519,0.08283692,0.0,-0.010620117,0.0
23,0.65295506,-4.7953415,3.1548882,0.08283692,0.0,-0.010620117,0.0
24,0.65295506,-4.7953415,3.1548882,0.04141846,0.014868164,-0.039294433,0.0
25,0.523756,-3.8209305,2.5130348,0.04141846,0.014868164,-0.039294433,0.0
26,0.523756,-3.8209305,2.5130348,0.021240234,0.019116212,-0.039294433,0.0
27,0.443614,-2.994156,2.048771,0.021240234,0.019116212,-0.039294433,0.0
28,0.443614,-2.994156,2.048771,0.013806152,0.0180542,-0.052038576,0.0
29,0.3650837,-2.367836,1.6824341,0.013806152,0.0180542,-0.052038576,0.0
30,0.3650837,-2.367836,1.6824341,0.004248047,0.027612304,-0.06690674,0.0
31,0.29062653,-1.9173126,1.3937111,0.004248047,0.027612304,-0.06690674,0.0
32,0.29062653,-1.9173126,1.3937111,-0.050976563,0.04460449,-0.050976563,0.0
33,0.2303772,-1.5632553,1.097023,-0.050976563,0.04460449,-0.050976563,0.0
34,0.2303772,-1.5632553,1.097023,-0.046728518,0.039294433,-0.040356446,0.0
35,0.2303772,-1.5632553,1.097023,-0.046728518,0.039294433,-0.040356446,121.0
36,0.12770939,-1.3370285,0.79029846,-0.046728518,0.039294433,-0.040356446,121.0
37,0.12770939,-1.3370285,0.79029846,0.04141846,0.015930176,-0.025488282,121.0
38,0.087225914,-1.0690536,0.6194229,0.04141846,0.015930176,-0.025488282,121.0
39,0.087225914,-1.0690536,0.6194229,0.057348635,0.0053100586,-0.021240234,121.0
40,0.06594753,-0.79867554,0.505352,0.057348635,0.0053100586,-0.021240234,121.0
41,0.06594753,-0.79867554,0.505352,0.047790527,-0.010620117,-0.004248047,121.0
42,0.079003334,-0.580307,0.44317627,0.047790527,-0.010620117,-0.004248047,121.0
43,0.079003334,-0.580307,0.44317627,0.004248047,-0.010620117,0.0053100586,121.0
44,0.08977795,-0.47589874,0.38314056,0.004248047,-0.010620117,0.0053100586,121.0
45,0.08977795,-0.47589874,0.38314056,-0.0010620117,-0.0180542,-0.008496094,121.0
46,0.080672264,-0.4178238,0.29884338,-0.0010620117,-0.0180542,-0.008496094,121.0
47,0.080672264,-0.4178238,0.29884338,-0.007434082,-0.0063720704,-0.043542482,121.0
48,0.080672264,-0.4178238,0.29884338,-0.013806152,-0.013806152,-0.07646485,121.0
49,0.043590546,-0.37124634,0.16540527,-0.013806152,-0.013806152,-0.07646485,121.0
50,0.01800251,-0.30513763,0.10615158,-0.013806152,-0.013806152,-0.07646485,121.0
51,0.01800251,-0.30513763,0.10615158,-0.0010620117,-0.025488282,-0.083898924,121.0
52,0.0050268173,-0.2523117,0.05752945,-0.0010620117,-0.025488282,-0.083898924,121.0
53,0.0050268173,-0.2523117,0.05752945,0.025488282,-0.04141846,-0.08283692,121.0
54,0.0305233,-0.20185089,0.031288147,0.025488282,-0.04141846,-0.08283692,121.0
55,0.0305233,-0.20185089,0.031288147,-0.0031860352,-0.023364259,-0.012744141,121.0
56,0.07129383,-0.24809265,-0.0057907104,-0.0031860352,-0.023364259,-0.012744141,121.0
57,0.07129383,-0.24809265,-0.0057907104,-0.04141846,-0.06478272,0.23364258,121.0
58,0.06300449,-0.51257324,-0.039531708,-0.04141846,-0.06478272,0.23364258,121.0
59,0.06300449,-0.51257324,-0.039531708,0.33878174,-0.16461182,0.2803711,121.0
60,-0.030248642,-0.59197235,-0.037254333,0.33878174,-0.16461182,0.2803711,121.0
61,-0.030248642,-0.59197235,-0.037254333,0.4715332,-0.20603028,0.15505372,121.0
62,0.0021076202,-0.14444733,0.016426086,0.4715332,-0.20603028,0.15505372,121.0
63,0.0021076202,-0.14444733,0.016426086,0.038232423,-0.038232423,0.18797608,121.0
64,0.0978775,0.26333618,0.03716278,0.038232423,-0.038232423,0.18797608,121.0
65,0.0978775,0.26333618,0.03716278,-0.046728518,-0.010620117,0.16036378,121.0
66,0.0978775,0.26333618,0.03716278,-0.078588866,0.008496094,0.13912354,121.0
67,0.09174156,0.26950836,0.051689148,-0.078588866,0.008496094,0.13912354,121.0
68,0.01825428,0.091934204,0.08703232,-0.078588866,0.008496094,0.13912354,121.0
69,0.01825428,0.091934204,0.08703232,-0.09770508,0.0180542,0.13275146,121.0
70,-0.078658104,-0.068481445,0.10792923,-0.09770508,0.0180542,0.13275146,121.0
71,-0.078658104,-0.068481445,0.10792923,-0.010620117,-0.004248047,0.1178833,121.0
72,-0.10118294,-0.0692749,0.117874146,-0.010620117,-0.004248047,0.1178833,121.0
73,-0.10118294,-0.0692749,0.117874146,0.0063720704,-0.0010620117,0.07115479,121.0
74,-0.052248,0.02999115,0.088695526,0.0063720704,-0.0010620117,0.07115479,121.0
75,-0.052248,0.02999115,0.088695526,-0.05522461,0.0031860352,0.03717041,121.0
76,-0.03526783,0.047660828,0.018505096,-0.05522461,0.0031860352,0.03717041,121.0
77,-0.03526783,0.047660828,0.018505096,-0.035046387,-0.016992187,0.0053100586,121.0
78,-0.0253582,-0.02859497,-0.024673462,-0.035046387,-0.016992187,0.0053100586,121.0
79,-0.0253582,-0.02859497,-0.024673462,0.045666505,-0.05522461,0.0021240234,121.0
80,0.012562752,-0.060768127,-0.022338867,0.045666505,-0.05522461,0.0021240234,121.0
81,0.012562752,-0.060768127,-0.022338867,0.06478272,-0.06690674,0.004248047,121.0
82,0.03937149,-0.024116516,-0.028076172,0.06478272,-0.06690674,0.004248047,121.0
83,0.03937149,-0.024116516,-0.028076172,0.06265869,-0.06159668,-0.0063720704,121.0
84,0.076711655,0.003189087,-0.039600372,0.06265869,-0.06159668,-0.0063720704,121.0
85,0.076711655,0.003189087,-0.039600372,0.06159668,-0.059472658,-0.021240234,121.0
86,0.11034393,0.009460449,-0.04106903,0.06159668,-0.059472658,-0.021240234,121.0
87,0.11034393,0.009460449,-0.04106903,0.022302246,-0.045666505,-0.020178223,121.0
88,0.11958599,-0.022911072,-0.04812622,0.022302246,-0.045666505,-0.020178223,121.0
89,0.11958599,-0.022911072,-0.04812622,0.0010620117,-0.027612304,-0.045666505,121.0
90,0.12038803,-0.06843567,-0.06370926,0.0010620117,-0.027612304,-0.045666505,121.0
91,0.12038803,-0.06843567,-0.06370926,-0.009558106,-0.013806152,-0.0637207,121.0
92,0.12038803,-0.06843567,-0.06370926,-0.08920898,0.013806152,-0.07434082,121.0
93,0.10661316,-0.055984497,-0.07118225,-0.08920898,0.013806152,-0.07434082,121.0
94,0.061572075,-0.044639587,-0.08770752,-0.08920898,0.013806152,-0.07434082,121.0
95,0.061572075,-0.044639587,-0.08770752,-0.098767094,0.021240234,-0.07752686,121.0
96,0.04452133,-0.08948517,-0.10926819,-0.098767094,0.021240234,-0.07752686,121.0
97,0.04452133,-0.08948517,-0.10926819,-0.040356446,-0.0010620117,-0.081774905,121.0
98,0.1002903,-0.08893585,-0.11148834,-0.040356446,-0.0010620117,-0.081774905,121.0
99,0.1002903,-0.08893585,-0.11148834,-0.078588866,0.009558106,-0.0998291,121.0
100,0.15497589,-0.011482239,-0.12564087,-0.078588866,0.009558106,-0.0998291,121.0
101,0.15497589,-0.011482239,-0.12564087,-0.21877442,0.07115479,-0.14549561,121.0
102,0.18630981,0.06364441,-0.18156815,-0.21877442,0.07115479,-0.14549561,121.0
103,0.18630981,0.06364441,-0.18156815,-0.34727785,0.14018555,-0.18903808,121.0
104,0.35604286,0.104408264,-0.3915329,-0.34727785,0.14018555,-0.18903808,121.0
105,0.35604286,0.104408264,-0.3915329,-0.635083,0.2814331,-0.32603762,121.0
106,0.3598709,0.10488129,-0.4122467,-0.635083,0.2814331,-0.32603762,121.0
107,0.3598709,0.10488129,-0.4122467,-0.7742066,0.31329346,-0.3462158,121.0
108,0.26579,-0.049468994,-0.53632736,-0.7742066,0.31329346,-0.3462158,121.0
109,0.26579,-0.049468994,-0.53632736,-0.8230591,0.27718505,-0.32497558,121.0
110,0.06492615,-0.24832916,-0.5151367,-0.8230591,0.27718505,-0.32497558,121.0
111,0.06492615,-0.24832916,-0.5151367,-0.6117188,0.1529297,-0.29736328,121.0
112,0.07817459,-0.20492554,-0.35003662,-0.6117188,0.1529297,-0.29736328,121.0
113,0.07817459,-0.20492554,-0.35003662,-0.5256958,0.07752686,-0.29736328,121.0
114,0.28529358,0.042396545,-0.2187767,-0.5256958,0.07752686,-0.29736328,121.0
115,0.28529358,0.042396545,-0.2187767,-0.6531372,0.08071289,-0.36533204,121.0
116,0.44962215,0.23499298,-0.21120453,-0.6531372,0.08071289,-0.36533204,121.0
117,0.44962215,0.23499298,-0.21120453,-0.8336792,0.13275146,-0.42905274,121.0
118,0.44794273,0.27342987,-0.2934265,-0.8336792,0.13275146,-0.42905274,121.0
119,0.44794273,0.27342987,-0.2934265,-0.9398804,0.16673584,-0.452417,121.0
120,0.28577137,0.27304077,-0.39762115,-0.9398804,0.16673584,-0.452417,121.0
121,0.28577137,0.27304077,-0.39762115,-1.0046631,0.19222413,-0.4598511,121.0
122,0.07152462,0.33518982,-0.5025482,-1.0046631,0.19222413,-0.4598511,121.0
123,0.07152462,0.33518982,-0.5025482,-1.1034302,0.23682861,-0.4619751,121.0
124,-0.04617405,0.41672516,-0.58332825,-1.1034302,0.23682861,-0.4619751,121.0
125,-0.04617405,0.41672516,-0.58332825,-1.2276856,0.2516968,-0.48109132,121.0
126,-0.06461334,0.42747498,-0.5771866,-1.2276856,0.2516968,-0.48109132,121.0
127,-0.06461334,0.42747498,-0.5771866,-1.3360108,0.23364258,-0.4885254,121.0
128,-0.07666588,0.3916855,-0.4895935,-1.3360108,0.23364258,-0.4885254,121.0
129,-0.07666588,0.3916855,-0.4895935,-1.4443359,0.22514649,-0.4885254,121.0
130,-0.15654755,0.3689499,-0.43412018,-1.4443359,0.22514649,-0.4885254,121.0
131,-0.15654755,0.3689499,-0.43412018,-1.5632813,0.18691407,-0.48321533,121.0
132,-0.3191223,0.33590698,-0.41079712,-1.5632813,0.18691407,-0.48321533,121.0
133,-0.3191223,0.33590698,-0.41079712,-1.4900025,0.06265869,-0.46622315,121.0
134,-0.43319035,0.3556137,-0.28975677,-1.4900025,0.06265869,-0.46622315,121.0
135,-0.43319035,0.3556137,-0.28975677,-1.3869873,-0.07327881,-0.44710693,121.0
136,-0.35827065,0.500412,-0.06840134,-1.3869873,-0.07327881,-0.44710693,121.0
137,-0.35827065,0.500412,-0.06840134,-1.3869873,-0.07327881,-0.44710693,121.0
138,-0.35827065,0.500412,-0.06840134,-1.3912354,-0.16248779,-0.47578126,121.0
139,-0.15808868,0.65784454,0.13167953,-1.3912354,-0.16248779,-0.47578126,121.0
140,-0.15808868,0.65784454,0.13167953,-1.4772583,-0.21240234,-0.5363159,121.0
141,-0.0069150925,0.6610184,0.22502136,-1.4772583,-0.21240234,-0.5363159,121.0
142,-0.0069150925,0.6610184,0.22502136,-1.5229248,-0.24107666,-0.58198243,121.0
143,0.011936188,0.49315643,0.21406174,-1.5229248,-0.24107666,-0.58198243,121.0
144,0.011936188,0.49315643,0.21406174,-1.4114136,-0.3069214,-0.6244629,121.0
145,-0.01779461,0.37847137,0.15911865,-1.4114136,-0.3069214,-0.6244629,121.0
146,-0.01779461,0.37847137,0.15911865,-1.3753052,-0.3451538,-0.67437744,121.0
147,-0.0051412582,0.46338654,0.12031174,-1.3753052,-0.3451538,-0.67437744,121.0
148,-0.0051412582,0.46338654,0.12031174,-1.4804443,-0.32072756,-0.7391602,121.0
149,0.053491592,0.60230255,0.083797455,-1.4804443,-0.32072756,-0.7391602,121.0
150,0.053491592,0.60230255,0.083797455,-1.6578003,-0.25594482,-0.81668705,121.0
151,0.13666534,0.5825958,0.06706238,-1.6578003,-0.25594482,-0.81668705,121.0
152,0.13666534,0.5825958,0.06706238,-1.7055908,-0.22302246,-0.8602295,121.0
153,0.2235899,0.448555,0.08441162,-1.7055908,-0.22302246,-0.8602295,121.0
154,0.2235899,0.448555,0.08441162,-1.6885986,-0.17841797,-0.9154541,121.0
155,0.32597923,0.42739868,0.103443146,-1.6885986,-0.17841797,-0.9154541,121.0
156,0.32597923,0.42739868,0.103443146,-1.8500245,-0.04460449,-0.99298096,121.0
157,0.38362217,0.6136246,0.041900635,-1.8500245,-0.04460449,-0.99298096,121.0
158,0.38362217,0.6136246,0.041900635,-2.253589,0.15080567,-1.1055542,121.0
159,0.26263428,0.7314606,-0.042930603,-2.253589,0.15080567,-1.1055542,121.0
160,0.26263428,0.7314606,-0.042930603,-2.608301,0.2803711,-1.1108643,121.0
161,0.05821514,0.5384598,0.03383255,-2.608301,0.2803711,-1.1108643,121.0
162,0.05821514,0.5384598,0.03383255,-2.4734254,0.29948732,-1.0917481,121.0
163,0.019130707,0.21282196,0.2771263,-2.4734254,0.29948732,-1.0917481,121.0
164,0.019130707,0.21282196,0.2771263,-2.253589,0.33240968,-0.97067875,121.0
165,0.14056015,0.073776245,0.4452629,-2.253589,0.33240968,-0.97067875,121.0
166,0.14056015,0.073776245,0.4452629,-2.3226197,0.48427734,-0.93775636,121.0
167,0.2361908,-0.016036987,0.36954117,-2.3226197,0.48427734,-0.93775636,121.0
168,0.2361908,-0.016036987,0.36954117,-2.5201538,0.5564942,-0.8729736,121.0
169,0.23956299,-0.31628418,0.28856277,-2.5201538,0.5564942,-0.8729736,121.0
170,0.23956299,-0.31628418,0.28856277,-2.3098755,0.42055663,-0.8485474,121.0
171,0.18011475,-0.6175537,0.5155792,-2.3098755,0.42055663,-0.8485474,121.0
172,0.18011475,-0.6175537,0.5155792,-1.991272,0.26444092,-0.7476563,121.0
173,0.021678925,-0.66760254,0.9398804,-1.991272,0.26444092,-0.7476563,121.0
174,0.021678925,-0.66760254,0.9398804,-1.807544,0.26550293,-0.70092773,121.0
175,-0.094472885,-0.54416656,1.1304588,-1.807544,0.26550293,-0.70092773,121.0
176,-0.094472885,-0.54416656,1.1304588,-1.7077149,0.3090454,-0.67331547,121.0
177,-0.0127363205,-0.43193817,1.0074921,-1.7077149,0.3090454,-0.67331547,121.0
178,-0.0127363205,-0.43193817,1.0074921,-1.5346069,0.25700685,-0.6796875,121.0
179,0.163517,-0.3419037,0.9387703,-1.5346069,0.25700685,-0.6796875,121.0
180,0.163517,-0.3419037,0.9387703,-1.350879,0.20921631,-0.7338501,121.0
181,0.15235901,-0.22080994,1.0734901,-1.350879,0.20921631,-0.7338501,121.0
182,0.15235901,-0.22080994,1.0734901,-1.2882203,0.26019287,-0.72641605,121.0
183,-0.07904053,-0.10562897,1.1267967,-1.2882203,0.26019287,-0.72641605,121.0
184,-0.07904053,-0.10562897,1.1267967,-1.1639649,0.32603762,-0.68287355,121.0
185,-0.2567501,0.06354523,0.97119904,-1.1639649,0.32603762,-0.68287355,121.0
186,-0.2567501,0.06354523,0.97119904,-1.0705079,0.35471192,-0.6510132,121.0
187,-0.28182793,0.37449646,0.7411423,-1.0705079,0.35471192,-0.6510132,121.0
188,-0.28182793,0.37449646,0.7411423,-1.1267945,0.3791382,-0.64995116,121.0
189,-0.41948128,0.6515274,0.5491867,-1.1267945,0.3791382,-0.64995116,121.0
190,-0.41948128,0.6515274,0.5491867,-1.3275146,0.4322388,-0.6446411,121.0
191,-0.8548107,0.687912,0.42936325,-1.3275146,0.4322388,-0.6446411,121.0
192,-0.8548107,0.687912,0.42936325,-1.4071655,0.4258667,-0.58304447,121.0
193,-1.395958,0.5178604,0.414402,-1.4071655,0.4258667,-0.58304447,121.0
194,-1.395958,0.5178604,0.414402,-1.2786621,0.36745605,-0.45666504,121.0
195,-1.708087,0.41801453,0.48590088,-1.2786621,0.36745605,-0.45666504,121.0
196,-1.708087,0.41801453,0.48590088,-1.1267945,0.33240968,-0.37807617,121.0
197,-1.6815577,0.5130844,0.5064812,-1.1267945,0.33240968,-0.37807617,121.0
198,-1.6815577,0.5130844,0.5064812,-1.1013062,0.35046387,-0.36639404,121.0
199,-1.4892645,0.5697708,0.41581726,-1.1013062,0.35046387,-0.36639404,121.0
200,-1.4892645,0.5697708,0.41581726,-1.0577637,0.31435546,-0.38763428,121.0
201,-1.3013849,0.42118835,0.3792839,-1.0577637,0.31435546,-0.38763428,121.0
202,-1.3013849,0.42118835,0.3792839,-0.8867798,0.24532472,-0.4056885,121.0
203,-1.1059513,0.16654205,0.5222473,-0.8867798,0.24532472,-0.4056885,121.0
204,-1.1059513,0.16654205,0.5222473,-0.6605713,0.18585205,-0.36851808,121.0
205,-0.8638263,0.0476532,0.71360016,-0.6605713,0.18585205,-0.36851808,121.0
206,-0.8638263,0.0476532,0.71360016,-0.5341919,0.1985962,-0.3525879,121.0
207,-0.56855106,0.13890076,0.7352371,-0.5341919,0.1985962,-0.3525879,121.0
208,-0.56855106,0.13890076,0.7352371,-0.5787964,0.24851075,-0.35046387,121.0
209,-0.2691717,0.25559998,0.5640793,-0.5787964,0.24851075,-0.35046387,121.0
210,-0.2691717,0.25559998,0.5640793,-0.6690674,0.3079834,-0.33771974,121.0
211,6.67572E-6,0.23713684,0.3879547,-0.6690674,0.3079834,-0.33771974,121.0
212,6.67572E-6,0.23713684,0.3879547,-0.66481936,0.33878174,-0.31116945,121.0
213,0.23350143,0.13061523,0.3256607,-0.66481936,0.33878174,-0.31116945,121.0
214,0.23350143,0.13061523,0.3256607,-0.60216063,0.34940186,-0.24320069,121.0
215,0.43122244,0.07836151,0.35230255,-0.60216063,0.34940186,-0.24320069,121.0
216,0.43122244,0.07836151,0.35230255,-0.5787964,0.3706421,-0.17629395,121.0
217,0.5991163,0.14086151,0.37172318,-0.5787964,0.3706421,-0.17629395,121.0
218,0.5991163,0.14086151,0.37172318,-0.6435791,0.39613038,-0.124255374,121.0
219,0.73177147,0.28030396,0.33335114,-0.6435791,0.39613038,-0.124255374,121.0
220,0.73177147,0.28030396,0.33335114,-0.813501,0.44710693,-0.121069334,121.0
221,0.8581228,0.37947845,0.32276917,-0.813501,0.44710693,-0.121069334,121.0
222,0.8581228,0.37947845,0.32276917,-1.0513916,0.52888185,-0.16248779,121.0
223,1.0070915,0.34309387,0.41431808,-1.0513916,0.52888185,-0.16248779,121.0
224,1.0070915,0.34309387,0.41431808,-1.2595459,0.631897,-0.20496826,121.0
225,1.1173801,0.20947266,0.49353027,-1.2595459,0.631897,-0.20496826,121.0
226,1.1173801,0.20947266,0.49353027,-1.4613281,0.7476563,-0.30054933,121.0
227,1.1274977,0.119522095,0.43368912,-1.4613281,0.7476563,-0.30054933,121.0
228,1.1274977,0.119522095,0.43368912,-1.7926759,0.87615967,-0.47684327,121.0
229,0.8641205,0.020179749,0.24814606,-1.7926759,0.87615967,-0.47684327,121.0
230,0.8641205,0.020179749,0.24814606,-2.1293335,0.90270996,-0.55968016,121.0
231,0.2341919,-0.2814865,0.04737854,-2.1293335,0.90270996,-0.55968016,121.0
232,0.2341919,-0.2814865,0.04737854,-1.9753418,0.75721437,-0.58410645,121.0
233,-0.2668457,-0.5627289,0.019569397,-1.9753418,0.75721437,-0.58410645,121.0
234,-0.2668457,-0.5627289,0.019569397,-1.5728394,0.5299439,-0.72216797,121.0
235,-0.044262886,-0.45175934,0.22525024,-1.5728394,0.5299439,-0.72216797,121.0
236,-0.044262886,-0.45175934,0.22525024,-1.6238159,0.4163086,-0.9897949,121.0
237,0.46543217,-0.07685089,0.64738464,-1.6238159,0.4163086,-0.9897949,121.0
238,0.46543217,-0.07685089,0.64738464,-2.1038454,0.39400634,-1.2340577,121.0
239,0.21301937,0.10700989,1.0684814,-2.1038454,0.39400634,-1.2340577,121.0
240,0.21301937,0.10700989,1.0684814,-2.6645875,0.540564,-1.3922974,121.0
241,-0.89874935,-0.06907654,1.1273193,-2.6645875,0.540564,-1.3922974,121.0
242,-0.89874935,-0.06907654,1.1273193,-2.7867188,0.632959,-1.3859253,121.0
243,-1.9585991,-0.3515854,0.7405281,-2.7867188,0.632959,-1.3859253,121.0
244,-1.9585991,-0.3515854,0.7405281,-2.3884645,0.5734863,-1.3062744,121.0
245,-2.161069,-0.51651764,0.23347473,-2.3884645,0.5734863,-1.3062744,121.0
246,-2.161069,-0.51651764,0.23347473,-1.6206299,0.33771974,-1.3370727,121.0
247,-2.161069,-0.51651764,0.23347473,-1.6206299,0.33771974,-1.3370727,117.0
248,-1.4941139,-0.49919128,-0.03750229,-1.6206299,0.33771974,-1.3370727,117.0
249,-1.4941139,-0.49919128,-0.03750229,-0.7858887,-0.011682129,-1.3731812,117.0
250,-0.5776887,-0.31804657,0.019058228,-0.7858887,-0.011682129,-1.3731812,117.0
251,-0.5776887,-0.31804657,0.019058228,-0.22833252,-0.2793091,-1.3668091,117.0
252,0.024189472,-0.07209778,0.26182938,-0.22833252,-0.2793091,-1.3668091,117.0
253,0.024189472,-0.07209778,0.26182938,0.118945315,-0.45347902,-1.3105224,117.0
254,0.20163918,0.15267181,0.48942947,0.118945315,-0.45347902,-1.3105224,117.0
255,0.20163918,0.15267181,0.48942947,0.42055663,-0.5150757,-1.1841431,117.0
256,0.047773838,0.38258362,0.511734,0.42055663,-0.5150757,-1.1841431,117.0
257,0.047773838,0.38258362,0.511734,0.61278075,-0.5076416,-1.0227174,117.0
258,-0.34714508,0.69487,0.2434082,0.61278075,-0.5076416,-1.0227174,117.0
259,-0.34714508,0.69487,0.2434082,0.53950197,-0.4354248,-0.8889038,117.0
260,-0.84832144,0.96958923,-0.18281555,0.53950197,-0.4354248,-0.8889038,117.0
261,-0.84832144,0.96958923,-0.18281555,0.36427003,-0.37489015,-0.7805786,117.0
262,-1.3113842,1.0713425,-0.47486877,0.36427003,-0.37489015,-0.7805786,117.0
263,-1.3113842,1.0713425,-0.47486877,0.3462158,-0.41418457,-0.67225343,117.0
264,-1.5713487,1.0229111,-0.46561432,0.3462158,-0.41418457,-0.67225343,117.0
265,-1.5713487,1.0229111,-0.46561432,0.47896728,-0.4598511,-0.5586182,117.0
266,-1.5122795,0.86792755,-0.2974167,0.47896728,-0.4598511,-0.5586182,117.0
267,-1.5122795,0.86792755,-0.2974167,0.68287355,-0.48640138,-0.4364868,117.0
268,-1.1961155,0.6516266,-0.2127533,0.68287355,-0.48640138,-0.4364868,117.0
269,-1.1961155,0.6516266,-0.2127533,0.92076415,-0.5129517,-0.34090576,117.0
270,-0.7933059,0.50614166,-0.3158188,0.92076415,-0.5129517,-0.34090576,117.0
271,-0.7933059,0.50614166,-0.3158188,1.0567017,-0.5171997,-0.2888672,117.0
272,-0.44087029,0.4655304,-0.5227623,1.0567017,-0.5171997,-0.2888672,117.0
273,-0.44087029,0.4655304,-0.5227623,1.080066,-0.4630371,-0.28568116,117.0
274,-0.1844101,0.43904114,-0.6633644,1.080066,-0.4630371,-0.28568116,117.0
275,-0.1844101,0.43904114,-0.6633644,1.0991821,-0.40993652,-0.2824951,117.0
276,-0.02455473,0.35451508,-0.720253,1.0991821,-0.40993652,-0.2824951,117.0
277,-0.02455473,0.35451508,-0.720253,1.1533448,-0.36320803,-0.2623169,117.0
278,0.23501968,0.22022247,-0.75345993,1.1533448,-0.36320803,-0.2623169,117.0
279,0.23501968,0.22022247,-0.75345993,1.2383057,-0.30054933,-0.270813,117.0
280,0.7703767,0.07520294,-0.7748642,1.2383057,-0.30054933,-0.270813,117.0
281,0.7703767,0.07520294,-0.7748642,1.2977784,-0.23151855,-0.26019287,117.0
282,1.4411058,-0.07376099,-0.8338928,1.2977784,-0.23151855,-0.26019287,117.0
283,1.4411058,-0.07376099,-0.8338928,1.359375,-0.1985962,-0.18903808,117.0
284,2.0681314,-0.23783112,-1.0090714,1.359375,-0.1985962,-0.18903808,117.0
285,2.0681314,-0.23783112,-1.0090714,1.4230957,-0.15611573,-0.09133301,117.0
286,3.0362682,-0.54676056,-1.1076355,1.4230957,-0.15611573,-0.09133301,117.0
287,3.0362682,-0.54676056,-1.1076355,1.7597535,-0.050976563,0.05628662,117.0
288,4.58214,-0.9040222,-0.76831055,1.7597535,-0.050976563,0.05628662,117.0
289,4.58214,-0.9040222,-0.76831055,2.167566,-0.24213867,0.31435546,117.0
290,5.4196672,-0.75795746,-0.23147964,2.167566,-0.24213867,0.31435546,117.0
291,5.4196672,-0.75795746,-0.23147964,1.8808228,-0.35789797,0.6977417,117.0
292,4.084257,-0.17571259,-0.17999649,1.8808228,-0.35789797,0.6977417,117.0
293,4.084257,-0.17571259,-0.17999649,1.7746216,-0.30161133,1.1278565,117.0
294,1.4872293,0.39852142,-0.7010803,1.7746216,-0.30161133,1.1278565,117.0
295,1.4872293,0.39852142,-0.7010803,2.1325195,-0.33771974,1.5569092,117.0
296,-0.3265133,0.93559265,-1.3760872,2.1325195,-0.33771974,1.5569092,117.0
297,-0.3265133,0.93559265,-1.3760872,2.247217,-0.26444092,1.9902099,117.0
298,-0.7699137,1.2514648,-1.9073372,2.247217,-0.26444092,1.9902099,117.0
299,-0.7699137,1.2514648,-1.9073372,1.8670167,-0.083898924,2.1611938,117.0
300,-0.58282566,1.0177994,-2.1379051,1.8670167,-0.083898924,2.1611938,117.0
301,-0.58282566,1.0177994,-2.1379051,1.44115,0.07646485,2.077295,117.0
302,-0.4809332,0.40518188,-2.064083,1.44115,0.07646485,2.077295,117.0
303,-0.4809332,0.40518188,-2.064083,1.2298096,0.16673584,1.9774659,117.0
304,-0.65321636,-0.2012558,-1.8192139,1.2298096,0.16673584,1.9774659,117.0
305,-0.65321636,-0.2012558,-1.8192139,1.2043213,0.18903808,1.8372803,117.0
306,-1.0295315,-0.6043625,-1.587841,1.2043213,0.18903808,1.8372803,117.0
307,-1.0295315,-0.6043625,-1.587841,1.2839721,0.22408448,1.62594,117.0
308,-1.4321089,-0.7819748,-1.4697495,1.2839721,0.22408448,1.62594,117.0
309,-1.4321089,-0.7819748,-1.4697495,1.4167236,0.26550293,1.447522,117.0
310,-1.6738615,-0.7551727,-1.4002266,1.4167236,0.26550293,1.447522,117.0
311,-1.6738615,-0.7551727,-1.4002266,1.4953126,0.33028564,1.2478638,117.0
312,-1.61238,-0.60839844,-1.286869,1.4953126,0.33028564,1.2478638,117.0
313,-1.61238,-0.60839844,-1.286869,1.5006226,0.41737062,1.002539,117.0
314,-1.2322264,-0.4969101,-1.1426544,1.5006226,0.41737062,1.002539,117.0
315,-1.2322264,-0.4969101,-1.1426544,1.4995606,0.49277344,0.721106,117.0
316,-0.6547022,-0.49520874,-1.0164299,1.4995606,0.49277344,0.721106,117.0
317,-0.6547022,-0.49520874,-1.0164299,1.5558472,0.5363159,0.4088745,117.0
318,-0.06366634,-0.5610962,-0.9175148,1.5558472,0.5363159,0.4088745,117.0
319,-0.06366634,-0.5610962,-0.9175148,1.5951416,0.56180423,0.10301514,117.0
320,0.39003372,-0.5579071,-0.8019562,1.5951416,0.56180423,0.10301514,117.0
321,0.39003372,-0.5579071,-0.8019562,1.539917,0.5979126,-0.18160401,117.0
322,0.6868925,-0.42848969,-0.6328354,1.539917,0.5979126,-0.18160401,117.0
323,0.6868925,-0.42848969,-0.6328354,1.3869873,0.6680054,-0.39506838,117.0
324,0.94331264,-0.26496887,-0.3860321,1.3869873,0.6680054,-0.39506838,117.0
325,0.94331264,-0.26496887,-0.3860321,1.1692749,0.7582764,-0.51826173,117.0
326,1.2849121,-0.12067413,-0.09236908,1.1692749,0.7582764,-0.51826173,117.0
327,1.2849121,-0.12067413,-0.09236908,0.83049315,0.81668705,-0.5331299,117.0
328,1.6183224,0.09831238,0.14109421,0.83049315,0.81668705,-0.5331299,117.0
329,1.6183224,0.09831238,0.14109421,0.23682861,0.89102787,-0.4980835,117.0
330,1.7181196,0.42515564,0.22664261,0.23682861,0.89102787,-0.4980835,117.0
331,1.7181196,0.42515564,0.22664261,-0.56605226,0.9547486,-0.40144044,117.0
332,1.4755449,0.68813324,0.21731186,-0.56605226,0.9547486,-0.40144044,117.0
333,1.4755449,0.68813324,0.21731186,-1.355127,0.94412845,-0.22833252,117.0
334,1.0459023,0.692482,0.2283783,-1.355127,0.94412845,-0.22833252,117.0
335,1.0459023,0.692482,0.2283783,-1.9371094,0.7582764,-0.045666505,117.0
336,0.88957787,0.4738617,0.40535736,-1.9371094,0.7582764,-0.045666505,117.0
337,0.88957787,0.4738617,0.40535736,-2.4043946,0.42692873,0.081774905,117.0
338,0.8908005,0.2099762,0.8390198,-2.4043946,0.42692873,0.081774905,117.0
339,0.8908005,0.2099762,0.8390198,-2.8621216,0.0010620117,0.31860352,117.0
340,0.13264751,-0.07645416,1.3934937,-2.8621216,0.0010620117,0.31860352,117.0
341,0.13264751,-0.07645416,1.3934937,-3.079834,-0.362146,0.635083,117.0
342,-1.1913671,-0.7230072,1.8350601,-3.079834,-0.362146,0.635083,117.0
343,-1.1913671,-0.7230072,1.8350601,-2.356604,-0.540564,0.903772,117.0
344,-1.6193533,-1.6609726,2.0367355,-2.356604,-0.540564,0.903772,117.0
345,-1.6193533,-1.6609726,2.0367355,-0.62764895,-0.9409424,0.99298096,117.0
346,-0.9788933,-1.7710495,1.8688507,-0.62764895,-0.9409424,0.99298096,117.0
347,-0.9788933,-1.7710495,1.8688507,0.811377,-1.3158325,0.83474123,117.0
348,-0.9788933,-1.7710495,1.8688507,0.811377,-1.3158325,0.83474123,115.0
349,-0.27705956,-0.67622375,1.3436775,0.811377,-1.3158325,0.83474123,115.0
350,-0.27705956,-0.67622375,1.3436775,1.6068238,-1.5346069,0.6000366,115.0
351,0.052962303,0.6223984,0.810112,1.6068238,-1.5346069,0.6000366,115.0
352,0.052962303,0.6223984,0.810112,2.0252564,-1.5845215,0.2516968,115.0
353,0.107530594,1.3872147,0.51327515,2.0252564,-1.5845215,0.2516968,115.0
354,0.107530594,1.3872147,0.51327515,1.7841797,-1.442212,-0.060534667,115.0
355,-0.060899734,1.6298523,0.2393341,1.7841797,-1.442212,-0.060534667,115.0
356,-0.060899734,1.6298523,0.2393341,1.0556396,-1.1480347,-0.2347046,115.0
357,-0.45527554,1.6334457,-0.22940826,1.0556396,-1.1480347,-0.2347046,115.0
358,-0.45527554,1.6334457,-0.22940826,0.22833252,-0.81987303,-0.41418457,115.0
359,-1.0255728,1.4599152,-0.6796684,0.22833252,-0.81987303,-0.41418457,115.0
360,-1.0255728,1.4599152,-0.6796684,-0.38869628,-0.5777344,-0.62552494,115.0
361,-1.5826292,1.0393143,-0.78650665,-0.38869628,-0.5777344,-0.62552494,115.0
362,-1.5826292,1.0393143,-0.78650665,-0.56180423,-0.43754885,-0.76677245,115.0
363,-1.8234882,0.4568634,-0.58870316,-0.56180423,-0.43754885,-0.76677245,115.0
364,-1.8234882,0.4568634,-0.58870316,-0.28461915,-0.4725952,-0.8050049,115.0
365,-1.678627,0.030845642,-0.38866425,-0.28461915,-0.4725952,-0.8050049,115.0
366,-1.678627,0.030845642,-0.38866425,0.15611573,-0.57242435,-0.7519043,115.0
367,-1.3143129,-0.10630798,-0.35686493,0.15611573,-0.57242435,-0.7519043,115.0
368,-1.3143129,-0.10630798,-0.35686493,0.5586182,-0.66481936,-0.6637573,115.0
369,-0.8204813,-0.11097717,-0.44270706,0.5586182,-0.66481936,-0.6637573,115.0
370,-0.8204813,-0.11097717,-0.44270706,0.8007569,-0.7349121,-0.64995116,115.0
371,-0.26839733,-0.12860107,-0.46728897,0.8007569,-0.7349121,-0.64995116,115.0
372,-0.26839733,-0.12860107,-0.46728897,0.83049315,-0.7805786,-0.6573853,115.0
373,0.13407326,-0.2084732,-0.3785553,0.83049315,-0.7805786,-0.6573853,115.0
374,0.13407326,-0.2084732,-0.3785553,0.6552612,-0.7497803,-0.67650145,115.0
375,0.24339104,-0.36867523,-0.28735352,0.6552612,-0.7497803,-0.67650145,115.0
376,0.24339104,-0.36867523,-0.28735352,0.51082766,-0.7338501,-0.71579593,115.0
377,0.16685677,-0.5613632,-0.3127098,0.51082766,-0.7338501,-0.71579593,115.0
378,0.16685677,-0.5613632,-0.3127098,0.50445557,-0.7412842,-0.76464844,115.0
379,0.18656158,-0.670578,-0.42826843,0.50445557,-0.7412842,-0.76464844,115.0
380,0.18656158,-0.670578,-0.42826843,0.62340087,-0.74871826,-0.80394286,115.0
381,0.40613365,-0.6970062,-0.48457336,0.62340087,-0.74871826,-0.80394286,115.0
382,0.40613365,-0.6970062,-0.48457336,0.83686525,-0.7614624,-0.77526855,115.0
383,0.6542406,-0.6774368,-0.42718506,0.83686525,-0.7614624,-0.77526855,115.0
384,0.6542406,-0.6774368,-0.42718506,1.0078491,-0.727478,-0.7327881,115.0
385,0.9091587,-0.64391327,-0.34013748,1.0078491,-0.727478,-0.7327881,115.0
386,0.9091587,-0.64391327,-0.34013748,1.1257324,-0.6053467,-0.6074707,115.0
387,1.4186354,-0.67237854,-0.29795074,1.1257324,-0.6053467,-0.6074707,115.0
388,1.4186354,-0.67237854,-0.29795074,1.2712281,-0.4258667,-0.4619751,115.0
389,2.3915005,-0.66072845,-0.27539825,1.2712281,-0.4258667,-0.4619751,115.0
390,2.3915005,-0.66072845,-0.27539825,1.2967163,-0.26337892,-0.32816163,115.0
391,3.3323536,-0.47545624,-0.2198906,1.2967163,-0.26337892,-0.32816163,115.0
392,3.3323536,-0.47545624,-0.2198906,1.0535157,-0.08814698,-0.11151123,115.0
393,3.0337658,-0.18070984,-0.30196,1.0535157,-0.08814698,-0.11151123,115.0
394,3.0337658,-0.18070984,-0.30196,0.73809814,0.045666505,0.21240234,115.0
395,1.2546129,0.12617493,-0.75813293,0.73809814,0.045666505,0.21240234,115.0
396,1.2546129,0.12617493,-0.75813293,0.64995116,0.18797608,0.5851685,115.0
397,-0.34734726,0.33587646,-1.3725204,0.64995116,0.18797608,0.5851685,115.0
398,-0.34734726,0.33587646,-1.3725204,0.7954468,0.33028564,0.93563235,115.0
399,-0.52851295,0.3629532,-1.6484184,0.7954468,0.33028564,0.93563235,115.0
400,-0.52851295,0.3629532,-1.6484184,0.98129886,0.3802002,1.2468017,115.0
401,0.10488701,0.22212219,-1.4901123,0.98129886,0.3802002,1.2468017,115.0
402,0.10488701,0.22212219,-1.4901123,0.8623535,0.48640138,1.3976074,115.0
403,0.47820854,0.010414124,-1.2799225,0.8623535,0.48640138,1.3976074,115.0
404,0.47820854,0.010414124,-1.2799225,0.4619751,0.62127686,1.4039795,115.0
405,0.1628151,-0.14183044,-1.194252,0.4619751,0.62127686,1.4039795,115.0
406,0.1628151,-0.14183044,-1.194252,-0.08920898,0.7519043,1.4358399,115.0
407,-0.62290955,-0.20406342,-1.1239204,-0.08920898,0.7519043,1.4358399,115.0
408,-0.62290955,-0.20406342,-1.1239204,-0.6605713,0.82836914,1.5069946,115.0
409,-1.364234,-0.2517624,-0.99105453,-0.6605713,0.82836914,1.5069946,115.0
410,-1.364234,-0.2517624,-0.99105453,-1.1533448,0.8666016,1.62594,115.0
411,-1.7429619,-0.3213272,-0.80757904,-1.1533448,0.8666016,1.62594,115.0
412,-1.7429619,-0.3213272,-0.80757904,-1.5197388,0.8379273,1.7491333,115.0
413,-1.7743502,-0.36840057,-0.60448456,-1.5197388,0.8379273,1.7491333,115.0
414,-1.7743502,-0.36840057,-0.60448456,-1.8277222,0.7582764,1.8468384,115.0
415,-1.6420145,-0.4600296,-0.41244507,-1.8277222,0.7582764,1.8468384,115.0
416,-1.6420145,-0.4600296,-0.41244507,-2.0316284,0.6467652,1.897815,115.0
417,-1.4167614,-0.75562286,-0.28050232,-2.0316284,0.6467652,1.897815,115.0
418,-1.4167614,-0.75562286,-0.28050232,-1.9594116,0.47365722,1.8627685,115.0
419,-1.0538559,-1.2553406,-0.2181282,-1.9594116,0.47365722,1.8627685,115.0
420,-1.0538559,-1.2553406,-0.2181282,-1.5303589,0.26550293,1.7363892,115.0
421,-0.4996891,-1.7901459,-0.17221832,-1.5303589,0.26550293,1.7363892,115.0
422,-0.4996891,-1.7901459,-0.17221832,-0.7434082,0.090270996,1.5282348,115.0
423,0.20585155,-2.2254028,-0.08368683,-0.7434082,0.090270996,1.5282348,115.0
424,0.20585155,-2.2254028,-0.08368683,0.33665773,-0.050976563,1.2765381,115.0
425,0.8400965,-2.4091415,0.04863739,0.33665773,-0.050976563,1.2765381,115.0
426,0.8400965,-2.4091415,0.04863739,1.3891114,-0.18266602,1.0375855,115.0
427,1.255744,-2.1597366,0.13908386,1.3891114,-0.18266602,1.0375855,115.0
428,1.255744,-2.1597366,0.13908386,2.005078,-0.20390625,0.82836914,115.0
429,1.5459528,-1.5369568,0.12528229,2.005078,-0.20390625,0.82836914,115.0
430,1.5459528,-1.5369568,0.12528229,2.252527,-0.15823975,0.6680054,115.0
431,1.8825378,-0.779068,0.019950867,2.252527,-0.15823975,0.6680054,115.0
432,1.8825378,-0.779068,0.019950867,2.1293335,-0.16992188,0.58410645,115.0
433,2.2271614,0.0037231445,-0.13516235,2.1293335,-0.16992188,0.58410645,115.0
434,2.2271614,0.0037231445,-0.13516235,1.536731,-0.10089111,0.54906005,115.0
435,2.4187288,0.82689667,-0.2807846,1.536731,-0.10089111,0.54906005,115.0
436,2.4187288,0.82689667,-0.2807846,0.6138428,-0.022302246,0.33665773,115.0
437,2.6899033,1.7515793,-0.41420364,0.6138428,-0.022302246,0.33665773,115.0
438,2.6899033,1.7515793,-0.41420364,-0.5065796,0.06584473,-0.25806886,115.0
439,3.0662537,2.1495667,-0.32497787,-0.5065796,0.06584473,-0.25806886,115.0
440,3.0662537,2.1495667,-0.32497787,-1.4581422,0.093457036,-0.76464844,115.0
441,2.3683958,1.0808945,0.24670792,-1.4581422,0.093457036,-0.76464844,115.0
442,2.3683958,1.0808945,0.24670792,-1.4687623,0.02442627,-0.8209351,115.0
443,0.028347015,-0.7025986,1.0453262,-1.4687623,0.02442627,-0.8209351,115.0
444,0.028347015,-0.7025986,1.0453262,-0.49383545,-0.41312256,-0.9281983,115.0
445,-2.0536041,-1.2845764,1.5242615,-0.49383545,-0.41312256,-0.9281983,115.0
446,-2.0536041,-1.2845764,1.5242615,0.270813,-0.4885254,-1.0057251,115.0
447,-1.8319826,-0.32180023,1.422657,0.270813,-0.4885254,-1.0057251,115.0
448,-1.8319826,-0.32180023,1.422657,0.58410645,-0.49383545,-1.1087402,115.0
449,-1.8319826,-0.32180023,1.422657,0.58410645,-0.49383545,-1.1087402,114.0
450,-0.22717094,0.80744934,0.99621964,0.58410645,-0.49383545,-1.1087402,114.0
451,-0.22717094,0.80744934,0.99621964,0.5140137,-0.42905274,-1.1841431,114.0
452,0.6256609,1.170433,0.47927475,0.5140137,-0.42905274,-1.1841431,114.0
453,0.6256609,1.170433,0.47927475,0.22408448,-0.2516968,-1.3922974,114.0
454,0.37805557,1.0752487,-0.036834717,0.22408448,-0.2516968,-1.3922974,114.0
455,0.37805557,1.0752487,-0.036834717,-0.36533204,-0.04991455,-1.545227,114.0
456,-0.32676697,1.0987625,-0.30649567,-0.36533204,-0.04991455,-1.545227,114.0
457,-0.32676697,1.0987625,-0.30649567,-1.2021973,0.2357666,-1.6089478,114.0
458,-1.1609135,1.226677,-0.18803024,-1.2021973,0.2357666,-1.6089478,114.0
459,-1.1609135,1.226677,-0.18803024,-1.897815,0.48746338,-1.6546143,114.0
460,-1.982954,1.2326355,0.13047028,-1.897815,0.48746338,-1.6546143,114.0
461,-1.982954,1.2326355,0.13047028,-2.2684572,0.63933104,-1.6747925,114.0
462,-2.5288563,1.1411743,0.37437057,-2.2684572,0.63933104,-1.6747925,114.0
463,-2.5288563,1.1411743,0.37437057,-2.450061,0.7497803,-1.6747925,114.0
464,-2.6781511,1.0916977,0.45344925,-2.450061,0.7497803,-1.6747925,114.0
465,-2.6781511,1.0916977,0.45344925,-2.6380372,0.8602295,-1.6652344,114.0
466,-2.496622,1.1108322,0.4449234,-2.6380372,0.8602295,-1.6652344,114.0
467,-2.496622,1.1108322,0.4449234,-2.9959352,1.0195312,-1.6705445,114.0
468,-2.1717243,0.9775543,0.4502144,-2.9959352,1.0195312,-1.6705445,114.0
469,-2.1717243,0.9775543,0.4502144,-3.4048097,1.179895,-1.6673584,114.0
470,-1.9306774,0.55031586,0.54885864,-3.4048097,1.179895,-1.6673584,114.0
471,-1.9306774,0.55031586,0.54885864,-3.522693,1.2478638,-1.629126,114.0
472,-1.8485212,0.032218933,0.7213974,-3.522693,1.2478638,-1.629126,114.0
473,-1.8485212,0.032218933,0.7213974,-3.3124146,1.2234375,-1.5643433,114.0
474,-1.7858849,-0.3166046,0.89720917,-3.3124146,1.2234375,-1.5643433,114.0
475,-1.7858849,-0.3166046,0.89720917,-2.9683228,1.1522827,-1.5006226,114.0
476,-1.6011076,-0.47135925,1.001934,-2.9683228,1.1522827,-1.5006226,114.0
477,-1.6011076,-0.47135925,1.001934,-2.4872315,1.0280274,-1.4443359,114.0
478,-1.2989278,-0.5463486,1.0569572,-2.4872315,1.0280274,-1.4443359,114.0
479,-1.2989278,-0.5463486,1.0569572,-1.8340943,0.7827026,-1.4613281,114.0
480,-0.967536,-0.5380707,1.2416344,-1.8340943,0.7827026,-1.4613281,114.0
481,-0.967536,-0.5380707,1.2416344,-1.2499878,0.55543214,-1.4963745,114.0
482,-0.5957694,-0.41255188,1.5967407,-1.2499878,0.55543214,-1.4963745,114.0
483,-0.5957694,-0.41255188,1.5967407,-0.95368654,0.44604492,-1.4560181,114.0
484,0.040010452,-0.29618073,1.8129005,-0.95368654,0.44604492,-1.4560181,114.0
485,0.040010452,-0.29618073,1.8129005,-0.81243896,0.42905274,-1.4188477,114.0
486,1.2302628,-0.3682785,1.8047981,-0.81243896,0.42905274,-1.4188477,114.0
487,1.2302628,-0.3682785,1.8047981,-0.5543701,0.42692873,-1.3328247,114.0
488,2.5448427,-0.44423676,1.7139282,-0.5543701,0.42692873,-1.3328247,114.0
489,2.5448427,-0.44423676,1.7139282,-0.44604492,0.26762697,-1.0439576,114.0
490,3.1035986,-0.24198914,1.3815536,-0.44604492,0.26762697,-1.0439576,114.0
491,3.1035986,-0.24198914,1.3815536,-0.65632325,0.18479005,-0.68924564,114.0
492,3.0015802,-0.011436462,0.856781,-0.65632325,0.18479005,-0.68924564,114.0
493,3.0015802,-0.011436462,0.856781,-0.5936646,0.11682129,-0.35046387,114.0
494,2.830451,0.12247467,0.67713547,-0.5936646,0.11682129,-0.35046387,114.0
495,2.830451,0.12247467,0.67713547,-0.38869628,-0.09451904,0.19434814,114.0
496,2.4981375,0.5033493,0.94185257,-0.38869628,-0.09451904,0.19434814,114.0
497,2.4981375,0.5033493,0.94185257,-0.47684327,-0.24957275,0.73809814,114.0
498,1.717638,1.0552444,1.1815338,-0.47684327,-0.24957275,0.73809814,114.0
499,1.717638,1.0552444,1.1815338,-0.8496094,-0.26125488,1.2276856,114.0
500,0.6362438,1.2548981,1.1702156,-0.8496094,-0.26125488,1.2276856,114.0
501,0.6362438,1.2548981,1.1702156,-1.2170655,-0.23895264,1.6939087,114.0
502,-0.3252821,0.885643,1.0534668,-1.2170655,-0.23895264,1.6939087,114.0
503,-0.3252821,0.885643,1.0534668,-1.4018555,-0.19541016,2.0603027,114.0
504,-0.9026451,0.20925903,0.8957138,-1.4018555,-0.19541016,2.0603027,114.0
505,-0.9026451,0.20925903,0.8957138,-1.3965454,-0.17841797,2.3204956,114.0
506,-1.2199917,-0.4408722,0.61040497,-1.3965454,-0.17841797,2.3204956,114.0
507,-1.2199917,-0.4408722,0.61040497,-1.3445069,-0.2347046,2.4351928,114.0
508,-1.4982958,-0.96463776,0.21997833,-1.3445069,-0.2347046,2.4351928,114.0
509,-1.4982958,-0.96463776,0.21997833,-1.2053833,-0.26019287,2.4171388,114.0
510,-1.4213419,-1.2799149,0.014362335,-1.2053833,-0.26019287,2.4171388,114.0
511,-1.4213419,-1.2799149,0.014362335,-1.0567017,-0.3079834,2.3619142,114.0
512,-1.9427013,-1.6800003,-0.41841888,-1.0567017,-0.3079834,2.3619142,114.0
513,-1.9427013,-1.6800003,-0.41841888,-0.51826173,-0.40356445,2.0624268,114.0
514,-1.6403913,-1.6803665,-0.45127487,-0.51826173,-0.40356445,2.0624268,114.0
515,-1.6403913,-1.6803665,-0.45127487,-0.3451538,-0.3982544,1.9328613,114.0
516,-1.4730797,-1.373146,-0.4347,-0.3451538,-0.3982544,1.9328613,114.0
517,-1.4730797,-1.373146,-0.4347,0.039294433,-0.30373535,1.4623902,114.0
518,-1.1867275,-1.131218,-0.35261917,0.039294433,-0.30373535,1.4623902,114.0
519,-1.1867275,-1.131218,-0.35261917,0.1263794,-0.23258057,1.273352,114.0
520,-1.1516161,-0.62312317,-0.22366333,0.1263794,-0.23258057,1.273352,114.0
521,-1.1516161,-0.62312317,-0.22366333,0.24851075,-0.033984374,0.632959,114.0
522,-0.9918127,-0.47962952,-0.17299652,0.24851075,-0.033984374,0.632959,114.0
523,-0.9918127,-0.47962952,-0.17299652,0.27293703,0.02442627,0.3982544,114.0
524,-1.0107718,-0.40647125,-0.09489441,0.27293703,0.02442627,0.3982544,114.0
525,-1.0107718,-0.40647125,-0.09489441,0.4067505,0.20072022,-0.2538208,114.0
526,-0.84327316,-0.2954178,-0.018295288,0.4067505,0.20072022,-0.2538208,114.0
527,-0.84327316,-0.2954178,-0.018295288,0.4725952,0.26125488,-0.452417,114.0
528,-0.23011208,-0.24337006,0.09622955,0.4725952,0.26125488,-0.452417,114.0
529,-0.23011208,-0.24337006,0.09622955,0.57454836,0.45878908,-1.1820191,114.0
530,0.12544441,-0.01978302,0.1312561,0.57454836,0.45878908,-1.1820191,114.0
531,0.12544441,-0.01978302,0.1312561,0.53737795,0.5278198,-1.4687623,114.0
532,2.0425549,-0.084503174,0.3318596,0.53737795,0.5278198,-1.4687623,114.0
533,2.0425549,-0.084503174,0.3318596,0.49489745,0.74022216,-2.4107666,114.0
534,2.4301252,0.1023407,0.59200287,0.49489745,0.74022216,-2.4107666,114.0
535,2.4301252,0.1023407,0.59200287,0.544812,0.72004396,-2.5870607,114.0
536,3.87037,-0.059814453,1.7352829,0.544812,0.72004396,-2.5870607,114.0
537,3.87037,-0.059814453,1.7352829,0.26019287,0.62977296,-2.3948364,114.0
538,3.0016308,0.18988037,1.778202,0.26019287,0.62977296,-2.3948364,114.0
539,3.0016308,0.18988037,1.778202,0.18160401,0.6180908,-2.2206666,114.0
540,1.568883,0.48026276,1.8034477,0.18160401,0.6180908,-2.2206666,114.0
541,1.568883,0.48026276,1.8034477,0.29630128,0.4694092,-1.7289551,114.0
542,0.07834911,1.1439972,1.3825417,0.29630128,0.4694092,-1.7289551,114.0
543,0.07834911,1.1439972,1.3825417,0.38763428,0.18479005,-0.99722904,114.0
544,-0.8713541,2.0721588,0.7334366,0.38763428,0.18479005,-0.99722904,114.0
545,-0.8713541,2.0721588,0.7334366,0.36851808,-0.02442627,-0.37382814,114.0
546,-1.2355843,2.628601,0.3312683,0.36851808,-0.02442627,-0.37382814,114.0
547,-1.2355843,2.628601,0.3312683,0.5883545,-0.16567384,0.0010620117,114.0
548,-1.4103298,2.5655136,0.5771713,0.5883545,-0.16567384,0.0010620117,114.0
549,-1.4103298,2.5655136,0.5771713,-0.019116212,-0.095581055,0.17841797,114.0
550,-1.2896042,1.929802,0.5694618,-0.019116212,-0.095581055,0.17841797,114.0
551,-1.2896042,1.929802,0.5694618,-0.36108398,0.0053100586,0.1539917,114.0
552,-1.841217,0.59272766,0.2920227,-0.36108398,0.0053100586,0.1539917,114.0
553,-1.841217,0.59272766,0.2920227,-1.0620117,0.1901001,-0.06159668,114.0
554,-1.8359251,0.0096588135,0.18085861,-1.0620117,0.1901001,-0.06159668,114.0
555,-1.8359251,0.0096588135,0.18085861,-1.2096313,0.2538208,-0.10407715,114.0
556,-2.176772,-0.7240143,-0.0096206665,-1.2096313,0.2538208,-0.10407715,114.0
557,-2.176772,-0.7240143,-0.0096206665,-1.3243287,0.30373535,-0.10301514,114.0
558,-2.3413687,-1.0346222,-0.10256958,-1.3243287,0.30373535,-0.10301514,114.0
559,-2.3413687,-1.0346222,-0.10256958,-1.0651978,0.26868898,-0.06265869,114.0
560,-2.2274895,-1.0236664,-0.17606354,-1.0651978,0.26868898,-0.06265869,114.0
561,-2.2274895,-1.0236664,-0.17606354,-0.3982544,0.13381349,-0.053100586,114.0
562,-1.7971287,-0.75286865,-0.25782013,-0.3982544,0.13381349,-0.053100586,114.0
563,-1.7971287,-0.75286865,-0.25782013,0.42799073,-0.08814698,-0.0637207,114.0
564,-1.7971287,-0.75286865,-0.25782013,0.42799073,-0.08814698,-0.0637207,113.0
565,-1.2027178,-0.3399582,-0.22711945,0.42799073,-0.08814698,-0.0637207,113.0
566,-1.2027178,-0.3399582,-0.22711945,1.0620117,-0.38975832,-0.095581055,113.0
567,-0.772892,0.035491943,-0.050312042,1.0620117,-0.38975832,-0.095581055,113.0
568,-0.772892,0.035491943,-0.050312042,1.4857544,-0.6074707,-0.14230958,113.0
569,-0.48391438,0.13114166,0.24539566,1.4857544,-0.6074707,-0.14230958,113.0
570,-0.48391438,0.13114166,0.24539566,1.9307374,-0.72641605,-0.24213867,113.0
571,-0.12150669,0.14024353,0.4231224,1.9307374,-0.72641605,-0.24213867,113.0
572,-0.12150669,0.14024353,0.4231224,2.1442018,-0.83686525,-0.29630128,113.0
573,0.16451311,0.2973175,0.29442978,2.1442018,-0.83686525,-0.29630128,113.0
574,0.16451311,0.2973175,0.29442978,2.0390625,-0.86978763,-0.30479738,113.0
575,0.23753071,0.44422913,-0.15792465,2.0390625,-0.86978763,-0.30479738,113.0
576,0.23753071,0.44422913,-0.15792465,1.9902099,-0.89102787,-0.38444826,113.0
577,0.25140142,0.40543365,-0.7032051,1.9902099,-0.89102787,-0.38444826,113.0
578,0.25140142,0.40543365,-0.7032051,2.1123414,-0.903772,-0.45347902,113.0
579,0.48354292,0.2791214,-1.1618347,2.1123414,-0.903772,-0.45347902,113.0
580,0.48354292,0.2791214,-1.1618347,2.355542,-0.9218262,-0.52250975,113.0
581,0.88984966,0.27308655,-1.512661,2.355542,-0.9218262,-0.52250975,113.0
582,0.88984966,0.27308655,-1.512661,2.4649293,-0.8867798,-0.58623046,113.0
583,1.1343894,0.41469574,-1.7487755,2.4649293,-0.8867798,-0.58623046,113.0
584,1.1343894,0.41469574,-1.7487755,2.3353639,-0.7391602,-0.6180908,113.0
585,1.0675087,0.54826355,-1.9214706,2.3353639,-0.7391602,-0.6180908,113.0
586,1.0675087,0.54826355,-1.9214706,2.1091554,-0.5883545,-0.63720703,113.0
587,0.95782757,0.59059906,-2.1182327,2.1091554,-0.5883545,-0.63720703,113.0
588,0.95782757,0.59059906,-2.1182327,1.811792,-0.4343628,-0.5883545,113.0
589,1.1800685,0.49378967,-2.260418,1.811792,-0.4343628,-0.5883545,113.0
590,1.1800685,0.49378967,-2.260418,1.5749635,-0.31223145,-0.4258667,113.0
591,2.0084105,0.045837402,-2.0571022,1.5749635,-0.31223145,-0.4258667,113.0
592,2.0084105,0.045837402,-2.0571022,1.7480713,-0.11044922,-0.21983643,113.0
593,3.2704496,-0.6521988,-1.4214287,1.7480713,-0.11044922,-0.21983643,113.0
594,3.2704496,-0.6521988,-1.4214287,2.2217286,-0.13275146,0.1263794,113.0
595,3.7655907,-0.7997589,-1.0647774,2.2217286,-0.13275146,0.1263794,113.0
596,3.7655907,-0.7997589,-1.0647774,1.9710938,-0.2357666,0.63720703,113.0
597,2.5622892,-0.23217773,-1.5207062,1.9710938,-0.2357666,0.63720703,113.0
598,2.5622892,-0.23217773,-1.5207062,1.5993897,-0.19647217,1.1172364,113.0
599,0.8241844,0.3519287,-2.212719,1.5993897,-0.19647217,1.1172364,113.0
600,0.8241844,0.3519287,-2.212719,1.8925049,-0.31116945,1.5261109,113.0
601,0.17807293,0.643837,-2.3817253,1.8925049,-0.31116945,1.5261109,113.0
602,0.17807293,0.643837,-2.3817253,2.2142944,-0.43967286,1.9084351,113.0
603,0.5002823,0.6973419,-2.072239,2.2142944,-0.43967286,1.9084351,113.0
604,0.5002823,0.6973419,-2.072239,2.1420777,-0.42692873,2.1325195,113.0
605,0.8205023,0.45289612,-1.7606087,2.1420777,-0.42692873,2.1325195,113.0
606,0.8205023,0.45289612,-1.7606087,1.812854,-0.33665773,2.1261475,113.0
607,0.5855026,-0.116127014,-1.6478539,1.812854,-0.33665773,2.1261475,113.0
608,0.5855026,-0.116127014,-1.6478539,1.4984986,-0.22302246,2.083667,113.0
609,-0.21119976,-0.810379,-1.6281471,1.4984986,-0.22302246,2.083667,113.0
610,-0.21119976,-0.810379,-1.6281471,1.3742431,-0.1529297,2.0464966,113.0
611,-1.042654,-1.3689804,-1.626358,1.3742431,-0.1529297,2.0464966,113.0
612,-1.042654,-1.3689804,-1.626358,1.3976074,-0.06584473,2.0114503,113.0
613,-1.3125172,-1.5673065,-1.6545753,1.3976074,-0.06584473,2.0114503,113.0
614,-1.3125172,-1.5673065,-1.6545753,1.4570801,-0.010620117,1.9445435,113.0
615,-1.0086937,-1.3820648,-1.6851578,1.4570801,-0.010620117,1.9445435,113.0
616,-1.0086937,-1.3820648,-1.6851578,1.4761963,0.014868164,1.8468384,113.0
617,-0.6321993,-1.0302887,-1.620697,1.4761963,0.014868164,1.8468384,113.0
618,-0.6321993,-1.0302887,-1.620697,1.5282348,0.046728518,1.713025,113.0
619,-0.42383862,-0.830101,-1.4699593,1.5282348,0.046728518,1.713025,113.0
620,-0.42383862,-0.830101,-1.4699593,1.6206299,0.07965088,1.5038086,113.0
621,-0.42383862,-0.830101,-1.4699593,1.6206299,0.07965088,1.5038086,113.0
622,-0.18727684,-0.8452072,-1.2821808,1.6206299,0.07965088,1.5038086,113.0
623,-0.18727684,-0.8452072,-1.2821808,1.6142578,0.12213135,1.268042,113.0
624,0.10219288,-0.9563904,-1.0282822,1.6142578,0.12213135,1.268042,113.0
625,0.10219288,-0.9563904,-1.0282822,1.5123047,0.19116211,1.0120972,113.0
626,0.3339758,-1.0763931,-0.7426338,1.5123047,0.19116211,1.0120972,113.0
627,0.3339758,-1.0763931,-0.7426338,1.4039795,0.27612305,0.7582764,113.0
628,0.54198456,-1.1933289,-0.47086334,1.4039795,0.27612305,0.7582764,113.0
629,0.54198456,-1.1933289,-0.47086334,1.4071655,0.38763428,0.540564,113.0
630,0.7997246,-1.2291641,-0.1941719,1.4071655,0.38763428,0.540564,113.0
631,0.7997246,-1.2291641,-0.1941719,1.4931885,0.49171144,0.43117675,113.0
632,1.0399628,-1.0537186,0.054416656,1.4931885,0.49171144,0.43117675,113.0
633,1.0399628,-1.0537186,0.054416656,1.3838013,0.5787964,0.38444826,113.0
634,1.1802244,-0.6523514,0.18846893,1.3838013,0.5787964,0.38444826,113.0
635,1.1802244,-0.6523514,0.18846893,0.9281983,0.541626,0.31966552,113.0
636,1.2722073,-0.18364716,0.2683525,0.9281983,0.541626,0.31966552,113.0
637,1.2722073,-0.18364716,0.2683525,0.15611573,0.60216063,0.28780517,113.0
638,1.321147,0.10810852,0.51436615,0.15611573,0.60216063,0.28780517,113.0
639,1.321147,0.10810852,0.51436615,-0.57242435,0.5479981,0.31116945,113.0
640,1.3341389,0.06678772,0.99583435,-0.57242435,0.5479981,0.31116945,113.0
641,1.3341389,0.06678772,0.99583435,-1.0036011,0.44179687,0.30373535,113.0
642,1.5743065,-0.284935,1.4518929,-1.0036011,0.44179687,0.30373535,113.0
643,1.5743065,-0.284935,1.4518929,-1.177771,0.27399904,0.27293703,113.0
644,1.9564056,-0.61917114,1.5484276,-1.177771,0.27399904,0.27293703,113.0
645,1.9564056,-0.61917114,1.5484276,-1.4390259,-0.007434082,0.24851075,113.0
646,1.5346432,-0.6661148,1.5153275,-1.4390259,-0.007434082,0.24851075,113.0
647,1.5346432,-0.6661148,1.5153275,-1.722583,-0.1529297,0.31860352,113.0
648,-0.07421398,-0.71003723,1.8147621,-1.722583,-0.1529297,0.31860352,113.0
649,-0.07421398,-0.71003723,1.8147621,-1.1501588,-0.1985962,0.45454103,113.0
650,-1.7974205,-0.88230896,2.1300087,-1.1501588,-0.1985962,0.45454103,113.0
651,-1.7974205,-0.88230896,2.1300087,-0.19328614,-0.37701416,0.5607422,113.0
652,-2.539609,-0.7506943,1.8688622,-0.19328614,-0.37701416,0.5607422,113.0
653,-2.539609,-0.7506943,1.8688622,0.2538208,-0.4800293,0.66269535,113.0
654,-2.2895603,-0.3047943,1.0999222,0.2538208,-0.4800293,0.66269535,113.0
655,-2.2895603,-0.3047943,1.0999222,0.3345337,-0.49383545,0.5979126,113.0
656,-1.6248732,0.015647888,0.37437057,0.3345337,-0.49383545,0.5979126,113.0
657,-1.6248732,0.015647888,0.37437057,0.47365722,-0.5299439,0.4248047,113.0
658,-0.9737749,0.10910034,-0.0512619,0.47365722,-0.5299439,0.4248047,113.0
659,-0.9737749,0.10910034,-0.0512619,0.6149048,-0.60109866,0.27293703,113.0
660,-0.5110998,0.19541931,-0.25408173,0.6149048,-0.60109866,0.27293703,113.0
661,-0.5110998,0.19541931,-0.25408173,0.5341919,-0.53950197,0.18479005,113.0
662,-0.3744316,0.37420654,-0.34048462,0.5341919,-0.53950197,0.18479005,113.0
663,-0.3744316,0.37420654,-0.34048462,0.25806886,-0.3462158,0.06690674,113.0
664,-0.5491066,0.59334564,-0.31933594,0.25806886,-0.3462158,0.06690674,113.0
665,-0.5491066,0.59334564,-0.31933594,-0.1444336,-0.09239502,-0.087084964,113.0
666,-0.8698883,0.7523575,-0.24275208,-0.1444336,-0.09239502,-0.087084964,113.0
667,-0.8698883,0.7523575,-0.24275208,-0.58198243,0.10620117,-0.21452637,113.0
668,-1.22262,0.7590027,-0.2620468,-0.58198243,0.10620117,-0.21452637,113.0
669,-1.22262,0.7590027,-0.2620468,-0.97386473,0.20496826,-0.35683593,113.0
670,-1.476778,0.64217377,-0.37574005,-0.97386473,0.20496826,-0.35683593,113.0
671,-1.476778,0.64217377,-0.37574005,-1.3009644,0.270813,-0.5278198,113.0
672,-1.5204477,0.43019867,-0.47437286,-1.3009644,0.270813,-0.5278198,113.0
673,-1.5204477,0.43019867,-0.47437286,-1.4443359,0.2803711,-0.6977417,113.0
674,-9.050599,-0.21857452,-7.0586243,-1.4443359,0.2803711,-0.6977417,113.0
675,-9.050599,-0.21857452,-7.0586243,-1.3848633,0.24638672,-0.8581055,113.0
676,-7.0916758,-0.3544159,-5.7478294,-1.3848633,0.24638672,-0.8581055,113.0
677,-7.0916758,-0.3544159,-5.7478294,-1.2053833,0.18372802,-1.0089111,113.0
678,-5.4380255,-0.43659973,-4.6344833,-1.2053833,0.18372802,-1.0089111,113.0
679,-5.4380255,-0.43659973,-4.6344833,-1.0057251,0.0998291,-1.1682129,113.0
680,-4.231866,-0.43321228,-3.6543045,-1.0057251,0.0998291,-1.1682129,113.0
681,-4.231866,-0.43321228,-3.6543045,-0.8092529,0.022302246,-1.2988404,113.0
682,-3.48216,-0.40905762,-2.8135414,-0.8092529,0.022302246,-1.2988404,113.0
683,-3.48216,-0.40905762,-2.8135414,-0.5341919,-0.08814698,-1.4018555,113.0
684,-2.9450421,-0.38684845,-2.1784096,-0.5341919,-0.08814698,-1.4018555,113.0
685,-2.9450421,-0.38684845,-2.1784096,-0.2081543,-0.19434814,-1.4889405,113.0
686,-2.254508,-0.37993622,-1.7436066,-0.2081543,-0.19434814,-1.4889405,113.0
687,-2.254508,-0.37993622,-1.7436066,0.15823975,-0.29948732,-1.5951416,113.0
688,-1.4180595,-0.41687775,-1.4066162,0.15823975,-0.29948732,-1.5951416,113.0
689,-1.4180595,-0.41687775,-1.4066162,0.46834716,-0.40037844,-1.6397461,113.0
690,-0.5746698,-0.4949417,-1.0918465,0.46834716,-0.40037844,-1.6397461,113.0
691,-0.5746698,-0.4949417,-1.0918465,0.68074954,-0.46834716,-1.628064,113.0
692,0.17848438,-0.5860367,-0.7232933,0.68074954,-0.46834716,-1.628064,113.0
693,0.17848438,-0.5860367,-0.7232933,0.6966797,-0.46622315,-1.5675293,113.0
694,0.801601,-0.5771942,-0.32966232,0.6966797,-0.46622315,-1.5675293,113.0
695,0.801601,-0.5771942,-0.32966232,0.46409914,-0.42374268,-1.4305298,113.0
696,1.5024136,-0.45341492,-0.085739136,0.46409914,-0.42374268,-1.4305298,113.0
697,1.5024136,-0.45341492,-0.085739136,0.09239502,-0.26868898,-1.354065,113.0
698,2.5709252,-0.43003845,0.17438889,0.09239502,-0.26868898,-1.354065,113.0
699,2.5709252,-0.43003845,0.17438889,-0.121069334,-0.13275146,-1.2765381,113.0
700,3.1053119,-0.38991547,0.56764984,-0.121069334,-0.13275146,-1.2765381,113.0
701,3.1053119,-0.38991547,0.56764984,-0.5501221,-0.1263794,-0.904834,113.0
702,1.7889371,-0.021247864,0.5064621,-0.5501221,-0.1263794,-0.904834,113.0
703,1.7889371,-0.021247864,0.5064621,-1.0970582,-0.010620117,-0.4980835,113.0
704,-0.3799219,0.4929428,-0.13542938,-1.0970582,-0.010620117,-0.4980835,113.0
705,-0.3799219,0.4929428,-0.13542938,-1.2935303,0.15080567,-0.06478272,113.0
706,-1.2688546,0.80526733,-0.5237236,-1.2935303,0.15080567,-0.06478272,113.0
707,-1.2688546,0.80526733,-0.5237236,-1.080066,0.15823975,0.36639404,113.0
708,-0.7172687,0.9042969,-0.33664322,-1.080066,0.15823975,0.36639404,113.0
709,-0.7172687,0.9042969,-0.33664322,-0.82730716,0.1083252,0.7604004,113.0
710,0.07336521,0.9179077,-0.19330215,-0.82730716,0.1083252,0.7604004,113.0
711,0.07336521,0.9179077,-0.19330215,-0.87403566,0.20496826,0.9855469,113.0
712,0.45261312,0.87939453,-0.47327042,-0.87403566,0.20496826,0.9855469,113.0
713,0.45261312,0.87939453,-0.47327042,-1.179895,0.33984375,1.0567017,113.0
714,0.40458322,0.8705063,-0.8596573,-1.179895,0.33984375,1.0567017,113.0
715,0.40458322,0.8705063,-0.8596573,-1.535669,0.42055663,1.1214844,113.0
716,-0.015713215,0.9522171,-0.9782295,-1.535669,0.42055663,1.1214844,113.0
717,-0.015713215,0.9522171,-0.9782295,-1.8330323,0.45772704,1.26167,113.0
718,-0.5890598,1.0407791,-0.8167763,-1.8330323,0.45772704,1.26167,113.0
719,-0.5890598,1.0407791,-0.8167763,-1.8680786,0.43011475,1.4358399,113.0
720,-0.9987502,1.0530243,-0.5216713,-1.8680786,0.43011475,1.4358399,113.0
721,-0.9987502,1.0530243,-0.5216713,-1.6811646,0.31860352,1.5781494,113.0
722,-1.1358043,1.0685272,-0.21483612,-1.6811646,0.31860352,1.5781494,113.0
723,-1.1358043,1.0685272,-0.21483612,-1.4560181,0.21134034,1.6854126,113.0
724,-1.0678964,1.0819702,0.020915985,-1.4560181,0.21134034,1.6854126,113.0
725,-1.0678964,1.0819702,0.020915985,-1.2138795,0.16673584,1.7406372,113.0
726,-0.9219563,0.9814224,0.12928009,-1.2138795,0.16673584,1.7406372,113.0
727,-0.9219563,0.9814224,0.12928009,-0.9239502,0.12000733,1.6609863,113.0
728,-0.773234,0.76942444,0.08823776,-0.9239502,0.12000733,1.6609863,113.0
729,-0.773234,0.76942444,0.08823776,-0.5809204,0.093457036,1.4836304,113.0
730,-0.6175374,0.5806656,-0.05683899,-0.5809204,0.093457036,1.4836304,113.0
731,-0.6175374,0.5806656,-0.05683899,-0.22089843,0.06903076,1.2744141,113.0
732,-0.42148352,0.4845047,-0.18593597,-0.22089843,0.06903076,1.2744141,113.0
733,-0.42148352,0.4845047,-0.18593597,0.04248047,0.07646485,0.9876709,113.0
734,-0.17026782,0.43348694,-0.20458221,0.04248047,0.07646485,0.9876709,113.0
735,-0.17026782,0.43348694,-0.20458221,0.24638672,0.14230958,0.6881836,113.0
736,0.058805227,0.37321472,-0.13924026,0.24638672,0.14230958,0.6881836,113.0
737,0.058805227,0.37321472,-0.13924026,0.3812622,0.19116211,0.3982544,113.0
738,0.26572096,0.3741455,-0.077552795,0.3812622,0.19116211,0.3982544,113.0
739,0.26572096,0.3741455,-0.077552795,0.3462158,0.3069214,0.08496094,113.0
740,0.5399816,0.4752426,-0.03866577,0.3462158,0.3069214,0.08496094,113.0
741,0.5399816,0.4752426,-0.03866577,0.12956543,0.44923097,-0.26975098,113.0
742,0.905728,0.58167267,0.037269592,0.12956543,0.44923097,-0.26975098,113.0
743,0.905728,0.58167267,0.037269592,-0.23682861,0.62764895,-0.634021,113.0
744,1.2888768,0.55750275,0.21770477,-0.23682861,0.62764895,-0.634021,113.0
745,1.2888768,0.55750275,0.21770477,-0.6414551,0.83898926,-0.97386473,113.0
746,1.5972269,0.42531586,0.44638062,-0.6414551,0.83898926,-0.97386473,113.0
747,1.5972269,0.42531586,0.44638062,-1.0651978,1.0269654,-1.2956543,113.0
748,1.936717,0.31651306,0.4948349,-1.0651978,1.0269654,-1.2956543,113.0
749,1.936717,0.31651306,0.4948349,-1.5080566,1.2329956,-1.7427613,113.0
750,2.6760092,0.24597168,0.30516815,-1.5080566,1.2329956,-1.7427613,113.0
751,2.6760092,0.24597168,0.30516815,-1.8425903,1.3126465,-2.3587282,113.0
752,3.4939933,0.24900818,0.22080612,-1.8425903,1.3126465,-2.3587282,113.0
753,3.4939933,0.24900818,0.22080612,-2.3980224,1.3328247,-2.7028198,113.0
754,3.1539717,0.17569733,0.50421906,-2.3980224,1.3328247,-2.7028198,113.0
755,3.1539717,0.17569733,0.50421906,-2.805835,1.3901733,-2.8323853,113.0
756,1.3010097,-0.10002136,1.0131912,-2.805835,1.3901733,-2.8323853,113.0
757,1.3010097,-0.10002136,1.0131912,-2.5636964,1.176709,-2.71875,113.0
758,-0.89023495,-0.19239807,1.4537888,-2.5636964,1.176709,-2.71875,113.0
759,-0.89023495,-0.19239807,1.4537888,-1.7916138,0.79013675,-2.252527,113.0
760,-2.1540093,0.22916412,1.5739441,-1.7916138,0.79013675,-2.252527,113.0
761,-2.1540093,0.22916412,1.5739441,-0.7582764,0.45560303,-1.7703736,113.0
762,-2.097475,0.9877472,1.3566399,-0.7582764,0.45560303,-1.7703736,113.0
763,-2.097475,0.9877472,1.3566399,-0.007434082,0.23045655,-1.4029175,113.0
764,-1.3567276,1.7266235,0.8772049,-0.007434082,0.23045655,-1.4029175,113.0
765,-1.3567276,1.7266235,0.8772049,0.2177124,0.08496094,-0.998291,113.0
766,-0.835443,2.2547226,0.2725525,0.2177124,0.08496094,-0.998291,113.0
767,-0.835443,2.2547226,0.2725525,-0.16248779,0.14230958,-0.6881836,113.0
768,-0.7520213,2.4960785,-0.21867752,-0.16248779,0.14230958,-0.6881836,113.0
769,-0.7520213,2.4960785,-0.21867752,-0.9589966,0.38551027,-0.5055176,113.0
770,-0.8154478,2.4245987,-0.4059105,-0.9589966,0.38551027,-0.5055176,113.0
771,-0.8154478,2.4245987,-0.4059105,-1.9073731,0.67225343,-0.452417,113.0
772,-0.9543967,2.086235,-0.28680038,-1.9073731,0.67225343,-0.452417,113.0
773,-0.9543967,2.086235,-0.28680038,-2.6327271,0.81031495,-0.43011475,113.0
774,-0.9543967,2.086235,-0.28680038,-2.6327271,0.81031495,-0.43011475,110.0
775,-1.2071819,1.6313629,0.036197662,-2.6327271,0.81031495,-0.43011475,110.0
776,-1.2071819,1.6313629,0.036197662,-3.0968263,0.8772217,-0.42692873,110.0
777,-1.4467635,1.2005157,0.450943,-3.0968263,0.8772217,-0.42692873,110.0
778,-1.4467635,1.2005157,0.450943,-3.2911744,0.8814697,-0.41949463,110.0
779,-1.5478649,0.82336426,0.85189056,-3.2911744,0.8814697,-0.41949463,110.0
780,-1.5478649,0.82336426,0.85189056,-3.1541748,0.80394286,-0.4067505,110.0
781,-1.4521347,0.53074646,1.1610909,-3.1541748,0.80394286,-0.4067505,110.0
782,-1.4521347,0.53074646,1.1610909,-2.8440673,0.6977417,-0.42799073,110.0
783,-1.1779187,0.38427734,1.3662758,-2.8440673,0.6977417,-0.42799073,110.0
784,-1.1779187,0.38427734,1.3662758,-2.5679443,0.5851685,-0.5140137,110.0
785,-0.811732,0.3431511,1.5296059,-2.5679443,0.5851685,-0.5140137,110.0
786,-0.811732,0.3431511,1.5296059,-2.3651001,0.5065796,-0.6839356,110.0
787,-0.4765585,0.25247574,1.7640152,-2.3651001,0.5065796,-0.6839356,110.0
788,-0.4765585,0.25247574,1.7640152,-2.1314576,0.4609131,-0.89102787,110.0
789,-0.35502613,0.029640198,2.080513,-2.1314576,0.4609131,-0.89102787,110.0
790,-0.35502613,0.029640198,2.080513,-1.8255981,0.3982544,-1.1087402,110.0
791,-0.5689452,-0.1355896,2.255352,-1.8255981,0.3982544,-1.1087402,110.0
792,-0.5689452,-0.1355896,2.255352,-1.535669,0.2899292,-1.3381348,110.0
793,-0.98531973,-0.06465149,2.1692123,-1.535669,0.2899292,-1.3381348,110.0
794,-0.98531973,-0.06465149,2.1692123,-1.2489258,0.16354981,-1.5250489,110.0
795,-1.2970204,0.04755783,1.9414482,-1.2489258,0.16354981,-1.5250489,110.0
796,-1.2970204,0.04755783,1.9414482,-0.84748536,0.04885254,-1.6578003,110.0
797,-1.2689885,-0.055591583,1.7524757,-0.84748536,0.04885254,-1.6578003,110.0
798,-1.2689885,-0.055591583,1.7524757,-0.32603762,-0.078588866,-1.7523193,110.0
799,-0.89791787,-0.2796898,1.6303864,-0.32603762,-0.078588866,-1.7523193,110.0
800,-0.89791787,-0.2796898,1.6303864,0.14761963,-0.16036378,-1.7629395,110.0
801,-0.31784606,-0.4705429,1.4645767,0.14761963,-0.16036378,-1.7629395,110.0
802,-0.31784606,-0.4705429,1.4645767,0.53100586,-0.18797608,-1.7289551,110.0
803,0.33882618,-0.5721359,1.1932297,0.53100586,-0.18797608,-1.7289551,110.0
804,0.33882618,-0.5721359,1.1932297,0.75615233,-0.22302246,-1.632312,110.0
805,1.0257974,-0.5468216,0.8361397,0.75615233,-0.22302246,-1.632312,110.0
806,1.0257974,-0.5468216,0.8361397,0.7678345,-0.22514649,-1.5027466,110.0
807,1.8339436,-0.56438446,0.64611053,0.7678345,-0.22514649,-1.5027466,110.0
808,1.8339436,-0.56438446,0.64611053,0.81668705,-0.15186767,-1.270166,110.0
809,2.1720865,-0.5979843,0.8182564,0.81668705,-0.15186767,-1.270166,110.0
810,2.1720865,-0.5979843,0.8182564,0.74659425,-0.16036378,-0.7317261,110.0
811,1.0752914,-0.20115662,0.8929863,0.74659425,-0.16036378,-0.7317261,110.0
812,1.0752914,-0.20115662,0.8929863,0.29099122,-0.14761963,-0.12319336,110.0
813,-0.67149305,0.5519409,0.4525833,0.29099122,-0.14761963,-0.12319336,110.0
814,-0.67149305,0.5519409,0.4525833,-0.050976563,-0.016992187,0.4704712,110.0
815,-1.1206295,1.0806046,-0.10737991,-0.050976563,-0.016992187,0.4704712,110.0
816,-1.1206295,1.0806046,-0.10737991,0.007434082,-0.0021240234,1.0343994,110.0
817,-0.007380098,1.3421326,-0.30578995,0.007434082,-0.0021240234,1.0343994,110.0
818,-0.007380098,1.3421326,-0.30578995,0.06584473,-0.09451904,1.5823975,110.0
819,1.2898601,1.403553,-0.22851944,0.06584473,-0.09451904,1.5823975,110.0
820,1.2898601,1.403553,-0.22851944,-0.1539917,-0.039294433,2.0273805,110.0
821,1.8686557,1.1421814,-0.09825516,-0.1539917,-0.039294433,2.0273805,110.0
822,1.8686557,1.1421814,-0.09825516,-0.44710693,0.033984374,2.2833252,110.0
823,1.777261,0.7099457,0.021652222,-0.44710693,0.033984374,2.2833252,110.0
824,1.777261,0.7099457,0.021652222,-0.727478,0.06265869,2.51803,110.0
825,1.2638254,0.36660004,0.12264252,-0.727478,0.06265869,2.51803,110.0
826,1.2638254,0.36660004,0.12264252,-0.9589966,0.07115479,2.7782228,110.0
827,0.6572397,0.10977173,0.19960403,-0.9589966,0.07115479,2.7782228,110.0
828,0.6572397,0.10977173,0.19960403,-0.9589966,0.035046387,3.0044312,110.0
829,0.37958813,-0.0960083,0.23675537,-0.9589966,0.035046387,3.0044312,110.0
830,0.37958813,-0.0960083,0.23675537,-0.724292,-0.047790527,3.1509888,110.0
831,0.53482294,-0.18859863,0.19615555,-0.724292,-0.047790527,3.1509888,110.0
832,0.53482294,-0.18859863,0.19615555,-0.42161867,-0.11151123,3.1870973,110.0
833,0.8677876,-0.15979004,0.07108688,-0.42161867,-0.11151123,3.1870973,110.0
834,0.8677876,-0.15979004,0.07108688,-0.13168946,-0.12850343,3.1031983,110.0
835,1.0926552,-0.12513351,-0.1213913,-0.13168946,-0.12850343,3.1031983,110.0
836,1.0926552,-0.12513351,-0.1213913,0.11257324,-0.07115479,2.913098,110.0
837,1.1889801,-0.14167023,-0.3432312,0.11257324,-0.07115479,2.913098,110.0
838,1.1889801,-0.14167023,-0.3432312,0.26125488,0.021240234,2.6061769,110.0
839,1.2330201,-0.17632294,-0.5467682,0.26125488,0.021240234,2.6061769,110.0
840,1.2330201,-0.17632294,-0.5467682,0.29948732,0.12319336,2.2376587,110.0
841,1.1467309,-0.15039444,-0.6944809,0.29948732,0.12319336,2.2376587,110.0
842,1.1467309,-0.15039444,-0.6944809,0.26762697,0.2538208,1.8871949,110.0
843,0.86862993,-0.069767,-0.7580757,0.26762697,0.2538208,1.8871949,110.0
844,0.86862993,-0.069767,-0.7580757,0.24107666,0.4056885,1.531421,110.0
845,0.64006996,0.023704529,-0.72192764,0.24107666,0.4056885,1.531421,110.0
846,0.64006996,0.023704529,-0.72192764,0.16354981,0.58410645,1.1607789,110.0
847,0.6256423,0.19099426,-0.6146507,0.16354981,0.58410645,1.1607789,110.0
848,0.6256423,0.19099426,-0.6146507,-0.052038576,0.7688965,0.8262451,110.0
849,0.5835581,0.42461014,-0.49585724,-0.052038576,0.7688965,0.8262451,110.0
850,0.5835581,0.42461014,-0.49585724,-0.42161867,0.9398804,0.47790527,110.0
851,0.29820633,0.59840393,-0.3600769,-0.42161867,0.9398804,0.47790527,110.0
852,0.29820633,0.59840393,-0.3600769,-0.8517334,1.1119263,0.08496094,110.0
853,-0.07737732,0.4719391,-0.1120491,-0.8517334,1.1119263,0.08496094,110.0
854,-0.07737732,0.4719391,-0.1120491,-1.0981201,1.26698,-0.33028564,110.0
855,-0.3172121,-0.014453888,0.28212357,-1.0981201,1.26698,-0.33028564,110.0
856,-0.3172121,-0.014453888,0.28212357,-1.002539,1.358313,-0.7625244,110.0
857,-0.23077154,-0.57334137,0.6730614,-1.002539,1.358313,-0.7625244,110.0
858,-0.23077154,-0.57334137,0.6730614,-0.68499756,1.3997315,-1.2552979,110.0
859,0.47302437,-0.77887726,0.766819,-0.68499756,1.3997315,-1.2552979,110.0
860,0.47302437,-0.77887726,0.766819,-0.5968506,1.5218629,-2.0411866,110.0
861,1.7465348,-0.60105896,0.6359863,-0.5968506,1.5218629,-2.0411866,110.0
862,1.7465348,-0.60105896,0.6359863,-0.8442993,1.6153198,-2.8270752,110.0
863,2.6594348,-0.44335938,0.7087059,-0.8442993,1.6153198,-2.8270752,110.0
864,2.6594348,-0.44335938,0.7087059,-1.4188477,1.6641724,-3.1998413,110.0
865,2.3320036,-0.5917244,1.0914917,-1.4188477,1.6641724,-3.1998413,110.0
866,2.3320036,-0.5917244,1.0914917,-1.8733886,1.7268311,-3.4950807,110.0
867,1.1590476,-0.8035927,1.6330681,-1.8733886,1.7268311,-3.4950807,110.0
868,1.1590476,-0.8035927,1.6330681,-2.1367676,1.6758546,-3.5651734,110.0
869,0.052628517,-0.72112274,2.2412796,-2.1367676,1.6758546,-3.5651734,110.0
870,0.052628517,-0.72112274,2.2412796,-2.0560548,1.4655762,-3.2115235,110.0
871,-0.7174063,-0.32704163,2.71175,-2.0560548,1.4655762,-3.2115235,110.0
872,-0.7174063,-0.32704163,2.71175,-1.6822265,1.1490967,-2.72406,110.0
873,-1.5057979,0.18400574,2.7939224,-1.6822265,1.1490967,-2.72406,110.0
874,-1.5057979,0.18400574,2.7939224,-1.2999023,0.8782837,-2.2015502,110.0
875,-2.5079951,0.6010132,2.4040108,-1.2999023,0.8782837,-2.2015502,110.0
876,-2.5079951,0.6010132,2.4040108,-1.2999023,0.8782837,-2.2015502,110.0
877,-2.5079951,0.6010132,2.4040108,-0.67225343,0.61278075,-1.537793,110.0
878,-3.2714472,0.9207382,1.7615776,-0.67225343,0.61278075,-1.537793,110.0
879,-3.2714472,0.9207382,1.7615776,0.124255374,0.39506838,-0.8857178,110.0
880,-3.1612618,1.3660469,1.0302086,0.124255374,0.39506838,-0.8857178,110.0
881,-3.1612618,1.3660469,1.0302086,0.31329346,0.31966552,-0.4725952,110.0
882,-2.2350032,1.8138199,0.2608719,0.31329346,0.31966552,-0.4725952,110.0
883,-2.2350032,1.8138199,0.2608719,-0.36851808,0.4428589,-0.26444092,110.0
884,-1.3949485,1.8129959,-0.31713486,-0.36851808,0.4428589,-0.26444092,110.0
885,-1.3949485,1.8129959,-0.31713486,-1.4315919,0.67437744,-0.29311523,110.0
886,-1.3698528,1.208992,-0.45171738,-1.4315919,0.67437744,-0.29311523,110.0
887,-1.3698528,1.208992,-0.45171738,-2.2450929,0.7890747,-0.4248047,110.0
888,-1.9305991,0.3388977,-0.1432457,-2.2450929,0.7890747,-0.4248047,110.0
889,-1.9305991,0.3388977,-0.1432457,-2.788843,0.85491943,-0.6053467,110.0
890,-2.5106413,-0.4230957,0.40262604,-2.788843,0.85491943,-0.6053467,110.0
891,-2.5106413,-0.4230957,0.40262604,-3.0925782,0.8973999,-0.7943848,110.0
892,-2.8141527,-1.0203133,0.93971634,-3.0925782,0.8973999,-0.7943848,110.0
893,-2.8141527,-1.0203133,0.93971634,-3.0246093,0.8973999,-0.97067875,110.0
894,-2.8515787,-1.5176163,1.3076935,-3.0246093,0.8973999,-0.97067875,110.0
895,-2.8515787,-1.5176163,1.3076935,-2.623169,0.86341554,-1.1841431,110.0
896,-2.7445931,-1.8811569,1.5070572,-2.623169,0.86341554,-1.1841431,110.0
897,-2.7445931,-1.8811569,1.5070572,-2.095349,0.8496094,-1.4305298,110.0
898,-2.629952,-2.0235672,1.5728569,-2.095349,0.8496094,-1.4305298,110.0
899,-2.629952,-2.0235672,1.5728569,-1.6546143,0.8506714,-1.6578003,110.0
900,-2.5313053,-1.8904343,1.4799156,-1.6546143,0.8506714,-1.6578003,110.0
901,-2.5313053,-1.8904343,1.4799156,-1.351941,0.8219971,-1.8914429,110.0
902,-2.3451614,-1.5398788,1.2691498,-1.351941,0.8219971,-1.8914429,110.0
903,-2.3451614,-1.5398788,1.2691498,-1.178833,0.7742066,-2.1643798,110.0
904,-1.8920226,-1.2356491,1.030899,-1.178833,0.7742066,-2.1643798,110.0
905,-1.8920226,-1.2356491,1.030899,-1.0598878,0.7317261,-2.434131,110.0
906,-1.0738597,-1.2412643,0.86079407,-1.0598878,0.7317261,-2.434131,110.0
907,-1.0738597,-1.2412643,0.86079407,-0.98129886,0.6988037,-2.6380372,110.0
908,0.22256517,-1.6679382,0.7956314,-0.98129886,0.6988037,-2.6380372,110.0
909,0.22256517,-1.6679382,0.7956314,-0.8209351,0.74659425,-2.8164551,110.0
910,2.133594,-2.3632584,0.8970871,-0.8209351,0.74659425,-2.8164551,110.0
911,2.133594,-2.3632584,0.8970871,-0.5033936,0.635083,-2.9056642,110.0
912,3.6556544,-2.702652,1.0948563,-0.5033936,0.635083,-2.9056642,110.0
913,3.6556544,-2.702652,1.0948563,-0.8092529,0.4056885,-2.53396,110.0
914,2.6640134,-2.411255,1.0071716,-0.8092529,0.4056885,-2.53396,110.0
915,2.6640134,-2.411255,1.0071716,-1.4199097,0.29311523,-1.9392334,110.0
916,-0.53214383,-2.0309677,0.741272,-1.4199097,0.29311523,-1.9392334,110.0
917,-0.53214383,-2.0309677,0.741272,-1.0715698,0.095581055,-1.1321045,110.0
918,-2.6468945,-1.6306076,0.9736328,-1.0715698,0.095581055,-1.1321045,110.0
919,-2.6468945,-1.6306076,0.9736328,0.24744873,-0.22196046,-0.115759276,110.0
920,-1.9558334,-0.53305817,1.6363907,0.24744873,-0.22196046,-0.115759276,110.0
921,-1.9558334,-0.53305817,1.6363907,1.0620117,-0.5299439,0.69349366,110.0
922,-0.16216445,1.146637,1.8181076,1.0620117,-0.5299439,0.69349366,110.0
923,-0.16216445,1.146637,1.8181076,0.80819094,-0.58304447,1.1990112,110.0
924,0.5859666,2.1804962,1.2305984,0.80819094,-0.58304447,1.1990112,110.0
925,0.5859666,2.1804962,1.2305984,0.16248779,-0.45560303,1.5590333,110.0
926,0.129601,2.0396118,0.4026413,0.16248779,-0.45560303,1.5590333,110.0
927,0.129601,2.0396118,0.4026413,-0.37595215,-0.38975832,1.812854,110.0
928,-0.5379207,1.3502426,-0.19178009,-0.37595215,-0.38975832,1.812854,110.0
929,-0.5379207,1.3502426,-0.19178009,-0.82836914,-0.30161133,2.0581787,110.0
930,-0.7845237,0.70189667,-0.42943954,-0.82836914,-0.30161133,2.0581787,110.0
931,-0.7845237,0.70189667,-0.42943954,-1.174585,-0.22833252,2.2546508,110.0
932,-0.6346259,0.26542664,-0.4003029,-1.174585,-0.22833252,2.2546508,110.0
933,-0.6346259,0.26542664,-0.4003029,-1.2351197,-0.24320069,2.4150147,110.0
934,-0.26675844,0.03704834,-0.26552963,-1.2351197,-0.24320069,2.4150147,110.0
935,-0.26675844,0.03704834,-0.26552963,-0.97280276,-0.31435546,2.4893556,110.0
936,0.19757962,-0.031044006,-0.110774994,-0.97280276,-0.31435546,2.4893556,110.0
937,0.19757962,-0.031044006,-0.110774994,-0.47471926,-0.3812622,2.4967897,110.0
938,0.6653757,0.0121154785,0.053520203,-0.47471926,-0.3812622,2.4967897,110.0
939,0.6653757,0.0121154785,0.053520203,0.078588866,-0.39613038,2.438379,110.0
940,1.0047004,0.16451263,0.19356155,0.078588866,-0.39613038,2.438379,110.0
941,1.0047004,0.16451263,0.19356155,0.45772704,-0.34090576,2.3226197,110.0
942,1.1712408,0.41371155,0.25162506,0.45772704,-0.34090576,2.3226197,110.0
943,1.1712408,0.41371155,0.25162506,0.53100586,-0.2166504,2.1261475,110.0
944,1.1988579,0.6533661,0.22029114,0.53100586,-0.2166504,2.1261475,110.0
945,1.1988579,0.6533661,0.22029114,0.35152587,-0.060534667,1.8808228,110.0
946,1.1462201,0.74768066,0.13095856,0.35152587,-0.060534667,1.8808228,110.0
947,1.1462201,0.74768066,0.13095856,0.12531738,0.06903076,1.622754,110.0
948,1.0417564,0.7035904,-0.03050232,0.12531738,0.06903076,1.622754,110.0
949,1.0417564,0.7035904,-0.03050232,-0.028674318,0.15080567,1.3317627,110.0
950,0.9157294,0.6443939,-0.2696991,-0.028674318,0.15080567,1.3317627,110.0
951,0.9157294,0.6443939,-0.2696991,-0.09664307,0.22089843,1.0120972,110.0
952,0.7842437,0.59311676,-0.47387695,-0.09664307,0.22089843,1.0120972,110.0
953,0.7842437,0.59311676,-0.47387695,-0.12000733,0.2814331,0.6988037,110.0
954,0.7842437,0.59311676,-0.47387695,-0.16779785,0.33240968,0.3971924,110.0
955,0.61612785,0.53012085,-0.50761795,-0.16779785,0.33240968,0.3971924,110.0
956,0.40325385,0.41296387,-0.39427948,-0.16779785,0.33240968,0.3971924,110.0
957,0.40325385,0.41296387,-0.39427948,-0.22939454,0.39400634,0.09770508,110.0
958,0.20565975,0.23365784,-0.2062912,-0.22939454,0.39400634,0.09770508,110.0
959,0.20565975,0.23365784,-0.2062912,-0.19434814,0.44179687,-0.19222413,110.0
960,0.040894985,0.033859253,0.030952454,-0.19434814,0.44179687,-0.19222413,110.0
961,0.040894985,0.033859253,0.030952454,-0.07965088,0.47896728,-0.4428589,110.0
962,-0.02995491,-0.12992096,0.22348022,-0.07965088,0.47896728,-0.4428589,110.0
963,-0.02995491,-0.12992096,0.22348022,0.0021240234,0.5129517,-0.70198977,110.0
964,0.27126318,-0.22162628,0.23966217,0.0021240234,0.5129517,-0.70198977,110.0
965,0.27126318,-0.22162628,0.23966217,-0.059472658,0.54375,-1.1161743,110.0
966,0.9515809,-0.27604675,0.163311,-0.059472658,0.54375,-1.1161743,110.0
967,0.9515809,-0.27604675,0.163311,-0.29417726,0.57242435,-1.5515991,110.0
968,1.3115699,-0.39897156,0.2866211,-0.29417726,0.57242435,-1.5515991,110.0
969,1.3115699,-0.39897156,0.2866211,-0.5851685,0.5809204,-1.7905518,110.0
970,0.635169,-0.6474991,0.627964,-0.5851685,0.5809204,-1.7905518,110.0
971,0.635169,-0.6474991,0.627964,-0.6786255,0.56817627,-1.8733886,110.0
972,-0.6989205,-0.89632416,0.92276764,-0.6786255,0.56817627,-1.8733886,110.0
973,-0.6989205,-0.89632416,0.92276764,-0.53737795,0.52675784,-1.8510865,110.0
974,-1.6309992,-0.9753876,0.96673965,-0.53737795,0.52675784,-1.8510865,110.0
975,-1.6309992,-0.9753876,0.96673965,-0.27399904,0.4322388,-1.6758546,110.0
976,-1.6694112,-0.82253265,0.7626381,-0.27399904,0.4322388,-1.6758546,110.0
977,-1.6694112,-0.82253265,0.7626381,0.10620117,0.24957275,-1.4698242,110.0
978,-1.1650822,-0.45323944,0.4544983,0.10620117,0.24957275,-1.4698242,110.0
979,-1.1650822,-0.45323944,0.4544983,0.43117675,0.040356446,-1.2181275,110.0
980,-0.82035923,-0.006362915,0.23022461,0.43117675,0.040356446,-1.2181275,110.0
981,-0.82035923,-0.006362915,0.23022461,0.6605713,-0.06265869,-0.9388184,110.0
982,-0.92212,0.34220886,0.17172623,0.6605713,-0.06265869,-0.9388184,110.0
983,-0.92212,0.34220886,0.17172623,0.7943848,-0.10089111,-0.6616333,110.0
984,-1.1668342,0.6147003,0.12414551,0.7943848,-0.10089111,-0.6616333,110.0
985,-1.1668342,0.6147003,0.12414551,0.5968506,-0.032922365,-0.4598511,110.0
986,-1.2228351,0.8605957,-0.07400894,0.5968506,-0.032922365,-0.4598511,110.0
987,-1.2228351,0.8605957,-0.07400894,0.012744141,0.1274414,-0.35152587,110.0
988,-1.1285243,0.953125,-0.3721466,0.012744141,0.1274414,-0.35152587,110.0
989,-1.1285243,0.953125,-0.3721466,-0.70942384,0.33984375,-0.33665773,110.0
990,-1.1285243,0.953125,-0.3721466,-0.70942384,0.33984375,-0.33665773,109.0
991,-1.0977168,0.7107773,-0.57585144,-0.70942384,0.33984375,-0.33665773,109.0
992,-1.0977168,0.7107773,-0.57585144,-1.2276856,0.47578126,-0.34090576,109.0
993,-1.1981685,0.20516968,-0.53128433,-1.2276856,0.47578126,-0.34090576,109.0
994,-1.1981685,0.20516968,-0.53128433,-1.5600952,0.56605226,-0.35471192,109.0
995,-1.3118796,-0.3610382,-0.2618065,-1.5600952,0.56605226,-0.35471192,109.0
996,-1.3118796,-0.3610382,-0.2618065,-1.724707,0.5936646,-0.36639404,109.0
997,-1.3150434,-0.8450928,0.019569397,-1.724707,0.5936646,-0.36639404,109.0
998,-1.3150434,-0.8450928,0.019569397,-1.7470093,0.57561034,-0.38975832,109.0
999,-1.2211633,-1.1812134,0.2001419,-1.7470093,0.57561034,-0.38975832,109.0
1000,-1.2211633,-1.1812134,0.2001419,-1.6673584,0.5246338,-0.3971924,109.0
1001,-1.1417012,-1.3942108,0.3416443,-1.6673584,0.5246338,-0.3971924,109.0
1002,-1.1417012,-1.3942108,0.3416443,-1.4740723,0.4364868,-0.42905274,109.0
1003,-1.0948186,-1.5326309,0.5430069,-1.4740723,0.4364868,-0.42905274,109.0
1004,-1.0948186,-1.5326309,0.5430069,-1.1554688,0.32709962,-0.47578126,109.0
1005,-1.0868902,-1.5518875,0.75198364,-1.1554688,0.32709962,-0.47578126,109.0
1006,-1.0868902,-1.5518875,0.75198364,-0.8219971,0.1985962,-0.5331299,109.0
1007,-1.1345391,-1.4012756,0.8384056,-0.8219971,0.1985962,-0.5331299,109.0
1008,-1.1345391,-1.4012756,0.8384056,-0.5522461,0.08071289,-0.6053467,109.0
1009,-1.1928606,-1.121521,0.7239723,-0.5522461,0.08071289,-0.6053467,109.0
1010,-1.1928606,-1.121521,0.7239723,-0.34727785,-0.0010620117,-0.7126099,109.0
1011,-1.0793619,-0.86348724,0.4443016,-0.34727785,-0.0010620117,-0.7126099,109.0
1012,-1.0793619,-0.86348724,0.4443016,-0.15505372,-0.046728518,-0.85598147,109.0
1013,-0.6762705,-0.74923706,0.16247177,-0.15505372,-0.046728518,-0.85598147,109.0
1014,-0.6762705,-0.74923706,0.16247177,0.027612304,-0.083898924,-0.98236084,109.0
1015,-0.33952713,-0.70713806,0.043979645,0.027612304,-0.083898924,-0.98236084,109.0
1016,-0.33952713,-0.70713806,0.043979645,0.09133301,-0.098767094,-1.0450195,109.0
1017,0.8075533,-0.8073883,-0.13796234,0.09133301,-0.098767094,-1.0450195,109.0
1018,0.8075533,-0.8073883,-0.13796234,0.12000733,-0.07327881,-1.1937011,109.0
1019,1.0626321,-0.8209076,-0.1306839,0.12000733,-0.07327881,-1.1937011,109.0
1020,1.0626321,-0.8209076,-0.1306839,0.13275146,-0.035046387,-1.2372437,109.0
1021,2.5849814,-1.2054596,0.11698532,0.13275146,-0.035046387,-1.2372437,109.0
1022,2.5849814,-1.2054596,0.11698532,0.28674316,-0.035046387,-1.2319336,109.0
1023,2.6177163,-1.2091522,0.27220154,0.28674316,-0.035046387,-1.2319336,109.0
1024,2.6177163,-1.2091522,0.27220154,0.27612305,-0.022302246,-1.1469727,109.0
1025,2.7372396,-1.3308258,0.66299057,0.27612305,-0.022302246,-1.1469727,109.0
1026,2.7372396,-1.3308258,0.66299057,0.121069334,-0.016992187,-0.63614506,109.0
1027,1.9577849,-1.0915985,0.47937775,0.121069334,-0.016992187,-0.63614506,109.0
1028,1.9577849,-1.0915985,0.47937775,0.16354981,-0.04248047,-0.46409914,109.0
1029,0.9844773,-0.5489502,-0.17615509,0.16354981,-0.04248047,-0.46409914,109.0
1030,0.9844773,-0.5489502,-0.17615509,0.7412842,-0.2782471,0.2899292,109.0
1031,0.8473108,-0.08333588,-0.3015213,0.7412842,-0.2782471,0.2899292,109.0
1032,0.8473108,-0.08333588,-0.3015213,0.97067875,-0.37595215,0.56605226,109.0
1033,0.7218671,1.084198,-0.4005661,0.97067875,-0.37595215,0.56605226,109.0
1034,0.7218671,1.084198,-0.4005661,1.2967163,-0.5331299,1.2552979,109.0
1035,0.5384922,1.4459076,-0.38285446,1.2967163,-0.5331299,1.2552979,109.0
1036,0.5384922,1.4459076,-0.38285446,1.2096313,-0.5331299,1.4337158,109.0
1037,-0.4288864,1.9416122,-0.54958344,1.2096313,-0.5331299,1.4337158,109.0
1038,-0.4288864,1.9416122,-0.54958344,0.6966797,-0.43011475,1.808606,109.0
1039,-0.53030396,1.8025665,-0.5482712,0.6966797,-0.43011475,1.808606,109.0
1040,-0.53030396,1.8025665,-0.5482712,0.5734863,-0.4343628,1.9094971,109.0
1041,-1.1840334,1.5804672,-0.70469284,0.5734863,-0.4343628,1.9094971,109.0
1042,-1.1840334,1.5804672,-0.70469284,0.21983643,-0.4333008,2.1017213,109.0
1043,-0.96644044,1.4219894,-0.6308937,0.21983643,-0.4333008,2.1017213,109.0
1044,-0.96644044,1.4219894,-0.6308937,0.13275146,-0.42374268,2.1229615,109.0
1045,-0.95240045,1.221878,-0.6593056,0.13275146,-0.42374268,2.1229615,109.0
1046,-0.95240045,1.221878,-0.6593056,0.029736329,-0.39506838,2.0687988,109.0
1047,-0.6255801,1.0481949,-0.5342331,0.029736329,-0.39506838,2.0687988,109.0
1048,-0.6255801,1.0481949,-0.5342331,0.059472658,-0.3791382,2.0210083,109.0
1049,-0.44335938,0.7872772,-0.47554398,0.059472658,-0.3791382,2.0210083,109.0
1050,-0.44335938,0.7872772,-0.47554398,0.17735596,-0.3334717,1.8617066,109.0
1051,-0.19260263,0.55579376,-0.54247284,0.17735596,-0.3334717,1.8617066,109.0
1052,-0.19260263,0.55579376,-0.54247284,0.2824951,-0.271875,1.6110718,109.0
1053,0.33079338,0.3346405,-0.794014,0.2824951,-0.271875,1.6110718,109.0
1054,0.33079338,0.3346405,-0.794014,0.4694092,-0.18797608,1.178833,109.0
1055,0.52791595,0.3188095,-0.75133514,0.4694092,-0.18797608,1.178833,109.0
1056,0.52791595,0.3188095,-0.75133514,0.60322267,-0.15611573,1.0460815,109.0
1057,0.7226379,0.26437378,-0.6812897,0.60322267,-0.15611573,1.0460815,109.0
1058,0.7226379,0.26437378,-0.6812897,0.96430665,-0.11257324,0.7805786,109.0
1059,0.7649267,0.31700897,-0.551548,0.96430665,-0.11257324,0.7805786,109.0
1060,0.7649267,0.31700897,-0.551548,1.260608,-0.046728518,0.50445557,109.0
1061,0.91231966,0.50437164,-0.48776245,1.260608,-0.046728518,0.50445557,109.0
1062,0.91231966,0.50437164,-0.48776245,1.3784913,0.043542482,0.26975098,109.0
1063,1.1792576,0.77321625,-0.5675812,1.3784913,0.043542482,0.26975098,109.0
1064,1.1792576,0.77321625,-0.5675812,1.2935303,0.098767094,0.03186035,109.0
1065,1.8331277,1.0268478,-0.67755127,1.2935303,0.098767094,0.03186035,109.0
1066,1.8331277,1.0268478,-0.67755127,0.7858887,0.18479005,-0.38338622,109.0
1067,1.7064192,0.9134445,-0.5763931,0.7858887,0.18479005,-0.38338622,109.0
1068,1.7064192,0.9134445,-0.5763931,0.5734863,0.19647217,-0.4619751,109.0
1069,1.6597766,0.7123718,-0.27653503,0.5734863,0.19647217,-0.4619751,109.0
1070,1.6597766,0.7123718,-0.27653503,0.20496826,0.18479005,-0.54906005,109.0
1071,1.2967665,0.36724854,0.072509766,0.20496826,0.18479005,-0.54906005,109.0
1072,1.2967665,0.36724854,0.072509766,0.020178223,0.11682129,-0.6680054,109.0
1073,1.1771839,0.022842407,0.29794693,0.020178223,0.11682129,-0.6680054,109.0
1074,1.1771839,0.022842407,0.29794693,-0.023364259,0.012744141,-0.82730716,109.0
1075,1.3373159,-0.21844482,0.50741196,-0.023364259,0.012744141,-0.82730716,109.0
1076,1.3373159,-0.21844482,0.50741196,-0.070092775,-0.1263794,-0.89421386,109.0
1077,0.8598796,-0.3488617,0.8765106,-0.070092775,-0.1263794,-0.89421386,109.0
1078,0.8598796,-0.3488617,0.8765106,-0.05628662,-0.16461182,-0.79119873,109.0
1079,-0.6663932,-0.38144684,1.2277832,-0.05628662,-0.16461182,-0.79119873,109.0
1080,-0.6663932,-0.38144684,1.2277832,0.25700685,-0.22514649,-0.5299439,109.0
1081,-2.3017793,-0.28998566,1.2027092,0.25700685,-0.22514649,-0.5299439,109.0
1082,-2.3017793,-0.28998566,1.2027092,0.25700685,-0.22514649,-0.5299439,106.0
1083,-2.3017793,-0.28998566,1.2027092,0.6903076,-0.24320069,-0.22727051,106.0
1084,-2.648589,0.0043792725,0.71886826,0.6903076,-0.24320069,-0.22727051,106.0
1085,-2.648589,0.0043792725,0.71886826,1.0598878,-0.29099122,-0.09239502,106.0
1086,-0.82009184,0.7068634,-0.1877594,1.0598878,-0.29099122,-0.09239502,106.0
1087,-0.82009184,0.7068634,-0.1877594,1.1342286,-0.3695801,-0.046728518,106.0
1088,-0.014728308,0.8965378,-0.45500183,1.1342286,-0.3695801,-0.046728518,106.0
1089,-0.014728308,0.8965378,-0.45500183,1.0407715,-0.35046387,-0.023364259,106.0
1090,0.6895479,1.1863174,-0.70532227,1.0407715,-0.35046387,-0.023364259,106.0
1091,0.6895479,1.1863174,-0.70532227,0.71579593,-0.2442627,0.008496094,106.0
1092,0.32839608,1.2258148,-0.6486702,0.71579593,-0.2442627,0.008496094,106.0
1093,0.32839608,1.2258148,-0.6486702,0.22302246,-0.03186035,0.0063720704,106.0
1094,-0.4610014,1.092514,-0.3947029,0.22302246,-0.03186035,0.0063720704,106.0
1095,-0.4610014,1.092514,-0.3947029,-0.36108398,0.18797608,0.0021240234,106.0
1096,-1.1213646,0.82089996,-0.0925827,-0.36108398,0.18797608,0.0021240234,106.0
1097,-1.1213646,0.82089996,-0.0925827,-0.81668705,0.33878174,0.04460449,106.0
1098,-1.5609224,0.45692444,0.101242065,-0.81668705,0.33878174,0.04460449,106.0
1099,-1.5609224,0.45692444,0.101242065,-1.0269654,0.3058594,0.095581055,106.0
1100,-1.8256178,0.10536194,0.13780212,-1.0269654,0.3058594,0.095581055,106.0
1101,-1.8256178,0.10536194,0.13780212,-1.0981201,0.26975098,0.11469727,106.0
1102,-1.8657799,-0.16613007,0.10272217,-1.0981201,0.26975098,0.11469727,106.0
1103,-1.8657799,-0.16613007,0.10272217,-1.0216553,0.18903808,0.12000733,106.0
1104,-1.6832855,-0.39016724,0.07897949,-1.0216553,0.18903808,0.12000733,106.0
1105,-1.6832855,-0.39016724,0.07897949,-0.8464233,0.121069334,0.078588866,106.0
1106,-1.3360329,-0.5662613,0.10261154,-0.8464233,0.121069334,0.078588866,106.0
1107,-1.3360329,-0.5662613,0.10261154,-0.6064087,0.06478272,0.0021240234,106.0
1108,-0.94305706,-0.6754074,0.16111755,-0.6064087,0.06478272,0.0021240234,106.0
1109,-0.94305706,-0.6754074,0.16111755,-0.32391357,0.0031860352,-0.12531738,106.0
1110,-0.6145654,-0.74507904,0.22377777,-0.32391357,0.0031860352,-0.12531738,106.0
1111,-0.6145654,-0.74507904,0.22377777,-0.07115479,-0.058410645,-0.29417726,106.0
1112,-0.6145654,-0.74507904,0.22377777,0.07434082,-0.12000733,-0.45878908,106.0
1113,-0.39715767,-0.73381805,0.22814178,0.07434082,-0.12000733,-0.45878908,106.0
1114,0.44715452,-0.7085495,0.056926727,0.07434082,-0.12000733,-0.45878908,106.0
1115,0.44715452,-0.7085495,0.056926727,0.15611573,-0.18160401,-0.6605713,106.0
1116,0.44715452,-0.7085495,0.056926727,0.25594482,-0.27612305,-0.8846558,106.0
1117,0.44715452,-0.7085495,0.056926727,0.3993164,-0.37701416,-1.0779419,106.0
1118,0.9980433,-0.79530334,0.13300323,0.3993164,-0.37701416,-1.0779419,106.0
1119,0.9980433,-0.79530334,0.13300323,0.68499756,-0.4704712,-1.2234375,106.0
1120,1.5844941,-0.94989014,0.3141632,0.68499756,-0.4704712,-1.2234375,106.0
1121,1.5844941,-0.94989014,0.3141632,0.9197022,-0.5671143,-1.2319336,106.0
1122,1.9798024,-0.8811264,0.32891846,0.9197022,-0.5671143,-1.2319336,106.0
1123,1.9798024,-0.8811264,0.32891846,0.90908206,-0.6552612,-1.1182984,106.0
1124,2.2277873,-0.57688904,0.09564209,0.90908206,-0.6552612,-1.1182984,106.0
1125,2.2277873,-0.57688904,0.09564209,0.7476563,-0.634021,-1.0513916,106.0
1126,2.5938387,-0.34365082,0.09309006,0.7476563,-0.634021,-1.0513916,106.0
1127,2.5938387,-0.34365082,0.09309006,0.6202149,-0.5809204,-0.9430664,106.0
1128,2.6075172,-0.33446503,0.5534363,0.6202149,-0.5809204,-0.9430664,106.0
1129,2.6075172,-0.33446503,0.5534363,0.53525394,-0.5129517,-0.6977417,106.0
1130,1.520865,-0.4185257,0.83618164,0.53525394,-0.5129517,-0.6977417,106.0
1131,1.520865,-0.4185257,0.83618164,0.4800293,-0.45029297,-0.39082032,106.0
1132,-0.074067295,-0.43079376,0.33260727,0.4800293,-0.45029297,-0.39082032,106.0
1133,-0.074067295,-0.43079376,0.33260727,0.6818115,-0.35046387,-0.095581055,106.0
1134,-0.6717905,-0.27092743,-0.5996475,0.6818115,-0.35046387,-0.095581055,106.0
1135,-0.6717905,-0.27092743,-0.5996475,1.3243287,-0.38763428,0.2442627,106.0
1136,0.059210658,0.20095825,-1.2752762,1.3243287,-0.38763428,0.2442627,106.0
1137,0.059210658,0.20095825,-1.2752762,1.7979859,-0.46728516,0.5798584,106.0
1138,0.9356376,0.87958527,-1.5508232,1.7979859,-0.46728516,0.5798584,106.0
1139,0.9356376,0.87958527,-1.5508232,1.8914429,-0.43011475,0.815625,106.0
1140,0.98669374,1.4391708,-1.5880089,1.8914429,-0.43011475,0.815625,106.0
1141,0.98669374,1.4391708,-1.5880089,1.6089478,-0.28780517,0.9398804,106.0
1142,0.33931836,1.735672,-1.4597969,1.6089478,-0.28780517,0.9398804,106.0
1143,0.33931836,1.735672,-1.4597969,1.1406006,-0.15080567,1.0259033,106.0
1144,-0.4767753,1.7856827,-1.210537,1.1406006,-0.15080567,1.0259033,106.0
1145,-0.4767753,1.7856827,-1.210537,0.56817627,-0.03079834,1.1236085,106.0
1146,-1.1225214,1.6491623,-0.96131134,0.56817627,-0.03079834,1.1236085,106.0
1147,-1.1225214,1.6491623,-0.96131134,-0.06478272,0.087084964,1.2053833,106.0
1148,-1.4845772,1.3925018,-0.791008,-0.06478272,0.087084964,1.2053833,106.0
1149,-1.4845772,1.3925018,-0.791008,-0.50445557,0.09770508,1.2999023,106.0
1150,-1.5578034,1.0730972,-0.6684723,-0.50445557,0.09770508,1.2999023,106.0
1151,-1.5578034,1.0730972,-0.6684723,-0.72216797,0.04141846,1.4029175,106.0
1152,-1.4018214,0.7257538,-0.5743637,-0.72216797,0.04141846,1.4029175,106.0
1153,-1.4018214,0.7257538,-0.5743637,-0.8294312,-0.007434082,1.44115,106.0
1154,-1.087717,0.30625916,-0.5111046,-0.8294312,-0.007434082,1.44115,106.0
1155,-1.087717,0.30625916,-0.5111046,-0.7147339,-0.07115479,1.4029175,106.0
1156,-0.6614456,-0.1315155,-0.49687195,-0.7147339,-0.07115479,1.4029175,106.0
1157,-0.6614456,-0.1315155,-0.49687195,-0.3175415,-0.16885987,1.3243287,106.0
1158,-0.084979296,-0.40835953,-0.53144455,-0.3175415,-0.16885987,1.3243287,106.0
1159,-0.084979296,-0.40835953,-0.53144455,0.1901001,-0.24638672,1.1990112,106.0
1160,0.5332618,-0.44535065,-0.5433922,0.1901001,-0.24638672,1.1990112,106.0
1161,0.5332618,-0.44535065,-0.5433922,0.67650145,-0.22939454,1.0259033,106.0
1162,1.0253032,-0.35120392,-0.4748764,0.67650145,-0.22939454,1.0259033,106.0
1163,1.0253032,-0.35120392,-0.4748764,1.1289185,-0.19541016,0.84748536,106.0
1164,1.3594271,-0.18317413,-0.3720894,1.1289185,-0.19541016,0.84748536,106.0
1165,1.3594271,-0.18317413,-0.3720894,1.3689331,-0.11363526,0.64570314,106.0
1166,1.3594271,-0.18317413,-0.3720894,1.4634522,0.029736329,0.44710693,106.0
1167,1.6238576,0.058784485,-0.3157997,1.4634522,0.029736329,0.44710693,106.0
1168,3.1937394,1.1552811,-0.65906143,1.4634522,0.029736329,0.44710693,106.0
1169,3.1937394,1.1552811,-0.65906143,1.360437,0.14868164,0.24638672,106.0
1170,3.1937394,1.1552811,-0.65906143,0.91757816,0.2527588,0.06159668,106.0
1171,3.1937394,1.1552811,-0.65906143,0.19434814,0.37489015,-0.1083252,106.0
1172,2.5549915,0.92422485,-0.5272484,0.19434814,0.37489015,-0.1083252,106.0
1173,2.3850577,0.9607048,-0.4662552,0.19434814,0.37489015,-0.1083252,106.0
1174,2.3850577,0.9607048,-0.4662552,-0.62340087,0.48321533,-0.30479738,106.0
1175,2.2079973,0.6040039,-0.2988243,-0.62340087,0.48321533,-0.30479738,106.0
1176,2.2079973,0.6040039,-0.2988243,-1.2234375,0.47471926,-0.5979126,106.0
1177,2.2870154,-0.07584381,0.0117836,-1.2234375,0.47471926,-0.5979126,106.0
1178,2.2870154,-0.07584381,0.0117836,-1.6121339,0.35471192,-0.86341554,106.0
1179,1.9696517,-0.7835541,0.5232811,-1.6121339,0.35471192,-0.86341554,106.0
1180,1.9696517,-0.7835541,0.5232811,-1.7905518,0.3090454,-0.87403566,106.0
1181,0.23824573,-1.2722931,1.129673,-1.7905518,0.3090454,-0.87403566,106.0
1182,0.23824573,-1.2722931,1.129673,-1.4114136,0.121069334,-0.68924564,106.0
1183,-2.154191,-1.3568878,1.4700241,-1.4114136,0.121069334,-0.68924564,106.0
1184,-2.154191,-1.3568878,1.4700241,-0.60959476,-0.06796875,-0.44604492,106.0
1185,-2.154191,-1.3568878,1.4700241,-0.60959476,-0.06796875,-0.44604492,106.0
1186,-3.1284065,-0.9977417,1.337532,-0.60959476,-0.06796875,-0.44604492,106.0
1187,-3.1284065,-0.9977417,1.337532,0.3462158,-0.20178223,-0.20496826,106.0
1188,-2.092801,-0.37917328,0.93775177,0.3462158,-0.20178223,-0.20496826,106.0
1189,-2.092801,-0.37917328,0.93775177,1.0864381,-0.38763428,-0.050976563,106.0
1190,-0.5204566,0.25678253,0.472126,1.0864381,-0.38763428,-0.050976563,106.0
1191,-0.5204566,0.25678253,0.472126,1.3222046,-0.4959595,0.033984374,106.0
1192,0.16689885,0.75847626,-0.017807007,1.3222046,-0.4959595,0.033984374,106.0
1193,0.16689885,0.75847626,-0.017807007,1.1257324,-0.44073486,0.032922365,106.0
1194,-0.15111226,1.1009102,-0.40987396,1.1257324,-0.44073486,0.032922365,106.0
1195,-0.15111226,1.1009102,-0.40987396,0.5766724,-0.26656494,-0.007434082,106.0
1196,-0.8810949,1.2857361,-0.5455284,0.5766724,-0.26656494,-0.007434082,106.0
1197,-0.8810949,1.2857361,-0.5455284,-0.16036378,-0.04141846,-0.029736329,106.0
1198,-1.4895927,1.2421036,-0.40494156,-0.16036378,-0.04141846,-0.029736329,106.0
1199,-1.4895927,1.2421036,-0.40494156,-0.80181885,0.14124756,-0.07540283,106.0
1200,-1.827392,0.92145157,-0.15929031,-0.80181885,0.14124756,-0.07540283,106.0
1201,-1.827392,0.92145157,-0.15929031,-1.1002442,0.17841797,-0.107263185,106.0
1202,-1.9572872,0.4408226,0.044174194,-1.1002442,0.17841797,-0.107263185,106.0
1203,-1.9572872,0.4408226,0.044174194,-1.177771,0.16036378,-0.124255374,106.0
1204,-1.8934054,-0.030410767,0.12125397,-1.177771,0.16036378,-0.124255374,106.0
1205,-1.8934054,-0.030410767,0.12125397,-1.1236085,0.14018555,-0.18372802,106.0
1206,-1.570425,-0.39374924,0.09257126,-1.1236085,0.14018555,-0.18372802,106.0
1207,-1.570425,-0.39374924,0.09257126,-1.0227174,0.11044922,-0.3069214,106.0
1208,-1.1057053,-0.63619995,0.08344269,-1.0227174,0.11044922,-0.3069214,106.0
1209,-1.1057053,-0.63619995,0.08344269,-0.93138427,0.07646485,-0.41949463,106.0
1210,-0.7001648,-0.8216667,0.1958313,-0.93138427,0.07646485,-0.41949463,106.0
1211,-0.7001648,-0.8216667,0.1958313,-0.81031495,0.02442627,-0.52675784,106.0
1212,-0.43104243,-0.9828453,0.39232254,-0.81031495,0.02442627,-0.52675784,106.0
1213,-0.43104243,-0.9828453,0.39232254,-0.68074954,-0.040356446,-0.6616333,106.0
1214,-0.43104243,-0.9828453,0.39232254,-0.55755615,-0.0998291,-0.7827026,106.0
1215,-0.25052238,-1.0759506,0.59365463,-0.55755615,-0.0998291,-0.7827026,106.0
1216,0.5172825,-1.5177307,1.1067963,-0.55755615,-0.0998291,-0.7827026,106.0
1217,0.5172825,-1.5177307,1.1067963,-0.28568116,-0.18266602,-0.90695804,106.0
1218,0.5172825,-1.5177307,1.1067963,0.06478272,-0.3079834,-1.0036011,106.0
1219,0.5172825,-1.5177307,1.1067963,0.38657227,-0.38444826,-1.0492676,106.0
1220,0.413826,-1.21418,0.885437,0.38657227,-0.38444826,-1.0492676,106.0
1221,1.8579773,-1.5765533,1.4916,0.38657227,-0.38444826,-1.0492676,106.0
1222,1.8579773,-1.5765533,1.4916,0.79119873,-0.38444826,-0.99722904,106.0
1223,1.8579773,-1.5765533,1.4916,1.2075074,-0.39400634,-0.84748536,106.0
1224,1.8579773,-1.5765533,1.4916,1.5154908,-0.35471192,-0.66269535,106.0
1225,2.379375,-1.008667,1.1756058,1.5154908,-0.35471192,-0.66269535,106.0
1226,2.379375,-1.008667,1.1756058,1.537793,-0.2538208,-0.5543701,106.0
1227,3.0448942,-0.3350296,0.89289856,1.537793,-0.2538208,-0.5543701,106.0
1228,3.0448942,-0.3350296,0.89289856,1.0556396,-0.050976563,-0.3706421,106.0
1229,2.8348413,0.18108368,0.6568985,1.0556396,-0.050976563,-0.3706421,106.0
1230,2.8348413,0.18108368,0.6568985,0.53100586,0.14124756,-0.11257324,106.0
1231,1.3629168,0.5410385,0.17721558,0.53100586,0.14124756,-0.11257324,106.0
1232,1.3629168,0.5410385,0.17721558,0.28674316,0.2357666,0.15611573,106.0
1233,0.01801902,0.83612823,-0.5211792,0.28674316,0.2357666,0.15611573,106.0
1234,0.01801902,0.83612823,-0.5211792,0.23364258,0.35471192,0.40462646,106.0
1235,-0.05483526,0.97478485,-1.0148544,0.23364258,0.35471192,0.40462646,106.0
1236,-0.05483526,0.97478485,-1.0148544,0.3717041,0.40356445,0.6531372,106.0
1237,0.4979409,0.9470978,-1.0961723,0.3717041,0.40356445,0.6531372,106.0
1238,0.4979409,0.9470978,-1.0961723,0.26019287,0.47365722,0.8336792,106.0
1239,0.6594001,0.8339844,-0.97982025,0.26019287,0.47365722,0.8336792,106.0
1240,0.6594001,0.8339844,-0.97982025,-0.21134034,0.61702883,0.86766356,106.0
1241,0.1692437,0.68416595,-0.8536072,-0.21134034,0.61702883,0.86766356,106.0
1242,0.1692437,0.68416595,-0.8536072,-0.7688965,0.7423462,0.98448485,106.0
1243,-0.6657403,0.48763275,-0.66965485,-0.7688965,0.7423462,0.98448485,106.0
1244,-0.6657403,0.48763275,-0.66965485,-1.3338867,0.80394286,1.1087402,106.0
1245,-1.3678827,0.24483109,-0.39856339,-1.3338867,0.80394286,1.1087402,106.0
1246,-1.3678827,0.24483109,-0.39856339,-1.8818848,0.81987303,1.2213135,106.0
1247,-1.7115059,0.0128479,-0.11045456,-1.8818848,0.81987303,1.2213135,106.0
1248,-1.7115059,0.0128479,-0.11045456,-2.2365968,0.7476563,1.3721192,106.0
1249,-1.8069367,-0.17640305,0.08667374,-2.2365968,0.7476563,1.3721192,106.0
1250,-1.8069367,-0.17640305,0.08667374,-2.2546508,0.5713623,1.4846925,106.0
1251,-1.7498951,-0.36481476,0.11700821,-2.2546508,0.5713623,1.4846925,106.0
1252,-1.7498951,-0.36481476,0.11700821,-1.983838,0.39506838,1.5027466,106.0
1253,-1.5661392,-0.6184006,0.003944397,-1.983838,0.39506838,1.5027466,106.0
1254,-1.5661392,-0.6184006,0.003944397,-1.3275146,0.18797608,1.4793824,106.0
1255,-1.308722,-0.82515717,-0.13896179,-1.3275146,0.18797608,1.4793824,106.0
1256,-1.308722,-0.82515717,-0.13896179,-0.3993164,-0.016992187,1.3827393,106.0
1257,-0.94381595,-0.7955475,-0.27799225,-0.3993164,-0.016992187,1.3827393,106.0
1258,-0.94381595,-0.7955475,-0.27799225,0.50445557,-0.1539917,1.1660889,106.0
1259,-0.43830478,-0.4962387,-0.39726257,0.50445557,-0.1539917,1.1660889,106.0
1260,-0.43830478,-0.4962387,-0.39726257,1.1501588,-0.22939454,0.89102787,106.0
1261,0.05542302,-0.08226776,-0.46253586,1.1501588,-0.22939454,0.89102787,106.0
1262,0.05542302,-0.08226776,-0.46253586,1.4602661,-0.20603028,0.58410645,106.0
1263,0.05542302,-0.08226776,-0.46253586,1.6078857,-0.13381349,0.22514649,106.0
1264,0.41726315,0.23612976,-0.47366714,1.6078857,-0.13381349,0.22514649,106.0
1265,0.7004365,0.39139557,-0.48637772,1.6078857,-0.13381349,0.22514649,106.0
1266,0.7004365,0.39139557,-0.48637772,1.6110718,-0.027612304,-0.1529297,106.0
1267,1.0212379,0.46517944,-0.49814987,1.6110718,-0.027612304,-0.1529297,106.0
1268,1.0212379,0.46517944,-0.49814987,1.4878784,0.10195313,-0.51188964,106.0
1269,1.3573468,0.4956894,-0.49390793,1.4878784,0.10195313,-0.51188964,106.0
1270,1.3573468,0.4956894,-0.49390793,1.2563599,0.21346436,-0.8358032,106.0
1271,1.5651988,0.49693298,-0.43519974,1.2563599,0.21346436,-0.8358032,106.0
1272,1.5651988,0.49693298,-0.43519974,0.89102787,0.3334717,-1.1214844,106.0
1273,1.5642318,0.432724,-0.23462296,0.89102787,0.3334717,-1.1214844,106.0
1274,1.5642318,0.432724,-0.23462296,0.48427734,0.4354248,-1.2956543,106.0
1275,1.3116637,0.27001953,0.074459076,0.48427734,0.4354248,-1.2956543,106.0
1276,1.3116637,0.27001953,0.074459076,0.10620117,0.4715332,-1.3965454,106.0
1277,1.1246728,0.05267334,0.29826355,0.10620117,0.4715332,-1.3965454,106.0
1278,1.1246728,0.05267334,0.29826355,-0.2803711,0.44816896,-1.621692,106.0
1279,1.1246728,0.05267334,0.29826355,-0.2803711,0.44816896,-1.621692,106.0
1280,1.4065375,-0.12965393,0.410717,-0.2803711,0.44816896,-1.621692,106.0
1281,1.4065375,-0.12965393,0.410717,-0.7699585,0.38869628,-1.7894897,106.0
1282,1.5367901,-0.29097748,0.634922,-0.7699585,0.38869628,-1.7894897,106.0
1283,1.5367901,-0.29097748,0.634922,-1.3349488,0.39506838,-1.6981567,106.0
1284,0.37443948,-0.533638,1.1041527,-1.3349488,0.39506838,-1.6981567,106.0
1285,0.37443948,-0.533638,1.1041527,-1.6142578,0.38975832,-1.448584,106.0
1286,-1.6965055,-0.79920197,1.575058,-1.6142578,0.38975832,-1.448584,106.0
1287,-1.6965055,-0.79920197,1.575058,-1.3901733,0.29099122,-1.1066163,106.0
1288,-2.9737816,-0.93266296,1.7096329,-1.3901733,0.29099122,-1.1066163,106.0
1289,-2.9737816,-0.93266296,1.7096329,-0.8241211,0.16354981,-0.7391602,106.0
1290,-2.6227021,-0.8132553,1.4463425,-0.8241211,0.16354981,-0.7391602,106.0
1291,-2.6227021,-0.8132553,1.4463425,-0.1720459,-0.05522461,-0.44604492,106.0
1292,-1.4022633,-0.44473267,0.88479614,-0.1720459,-0.05522461,-0.44604492,106.0
1293,-1.4022633,-0.44473267,0.88479614,0.21134034,-0.28568116,-0.21027832,106.0
1294,-0.44694495,-0.014160156,0.19846344,0.21134034,-0.28568116,-0.21027832,106.0
1295,-0.44694495,-0.014160156,0.19846344,0.3419678,-0.39294434,-0.022302246,106.0
1296,-0.090173125,0.2898178,-0.24146271,0.3419678,-0.39294434,-0.022302246,106.0
1297,-0.090173125,0.2898178,-0.24146271,0.23789063,-0.37489015,0.06796875,106.0
1298,-0.21979475,0.4166565,-0.168293,0.23789063,-0.37489015,0.06796875,106.0
1299,-0.21979475,0.4166565,-0.168293,-0.033984374,-0.2623169,0.15930176,106.0
1300,-0.7151058,0.3890152,0.26036072,-0.033984374,-0.2623169,0.15930176,106.0
1301,-0.7151058,0.3890152,0.26036072,-0.2984253,-0.13699952,0.20496826,106.0
1302,-1.4186789,0.29307556,0.59147644,-0.2984253,-0.13699952,0.20496826,106.0
1303,-1.4186789,0.29307556,0.59147644,-0.53100586,-0.03717041,0.24957275,106.0
1304,-2.0500555,0.19626617,0.5241089,-0.53100586,-0.03717041,0.24957275,106.0
1305,-2.0500555,0.19626617,0.5241089,-0.6223389,-0.0031860352,0.2527588,106.0
1306,-2.3046074,0.11576843,0.1523323,-0.6223389,-0.0031860352,0.2527588,106.0
1307,-2.3046074,0.11576843,0.1523323,-0.54587406,-0.038232423,0.20178223,106.0
1308,-2.0781221,0.055358887,-0.20024109,-0.54587406,-0.038232423,0.20178223,106.0
1309,-2.0781221,0.055358887,-0.20024109,-0.35789797,-0.08920898,0.13912354,106.0
1310,-1.5263772,-0.021194458,-0.3304901,-0.35789797,-0.08920898,0.13912354,106.0
1311,-1.5263772,-0.021194458,-0.3304901,-0.11363526,-0.13699952,0.04460449,106.0
1312,-0.88457847,-0.121315,-0.21710205,-0.11363526,-0.13699952,0.04460449,106.0
1313,-0.88457847,-0.121315,-0.21710205,0.13381349,-0.1539917,-0.07115479,106.0
1314,-0.36385155,-0.23072052,0.037879944,0.13381349,-0.1539917,-0.07115479,106.0
1315,-0.36385155,-0.23072052,0.037879944,0.3154175,-0.15080567,-0.21558838,106.0
1316,-0.36385155,-0.23072052,0.037879944,0.31223145,-0.13062744,-0.38975832,106.0
1317,-0.056157112,-0.3102951,0.30033493,0.31223145,-0.13062744,-0.38975832,106.0
1318,0.022396088,-0.47241974,0.6937332,0.31223145,-0.13062744,-0.38975832,106.0
1319,0.022396088,-0.47241974,0.6937332,0.17947999,-0.07752686,-0.54693604,106.0
1320,0.022396088,-0.47241974,0.6937332,0.093457036,-0.11363526,-0.6510132,106.0
1321,0.022396088,-0.47241974,0.6937332,0.08283692,-0.18160401,-0.74659425,106.0
1322,0.036019802,-0.47462463,0.56798553,0.08283692,-0.18160401,-0.74659425,106.0
1323,0.036019802,-0.47462463,0.56798553,0.19541016,-0.2527588,-0.83686525,106.0
1324,0.435261,-0.6906891,0.5337715,0.19541016,-0.2527588,-0.83686525,106.0
1325,0.435261,-0.6906891,0.5337715,0.6117188,-0.35152587,-0.8857178,106.0
1326,1.0670929,-0.98883057,0.5827408,0.6117188,-0.35152587,-0.8857178,106.0
1327,1.0670929,-0.98883057,0.5827408,1.1363525,-0.44498292,-0.8517334,106.0
1328,1.7605102,-1.0788574,0.536747,1.1363525,-0.44498292,-0.8517334,106.0
1329,1.7605102,-1.0788574,0.536747,1.4953126,-0.43117675,-0.77314454,106.0
1330,2.6216772,-0.85894775,0.34814835,1.4953126,-0.43117675,-0.77314454,106.0
1331,2.6216772,-0.85894775,0.34814835,1.6503662,-0.40993652,-0.7327881,106.0
1332,3.1879668,-0.3710785,0.23775864,1.6503662,-0.40993652,-0.7327881,106.0
1333,3.1879668,-0.3710785,0.23775864,1.4114136,-0.31329346,-0.46834716,106.0
1334,2.4949658,0.18956757,0.2548294,1.4114136,-0.31329346,-0.46834716,106.0
1335,2.4949658,0.18956757,0.2548294,1.0917481,-0.16461182,-0.09239502,106.0
1336,0.7587412,0.6256027,0.11325073,1.0917481,-0.16461182,-0.09239502,106.0
1337,0.7587412,0.6256027,0.11325073,0.92501223,-0.07434082,0.26550293,106.0
1338,-0.40903485,0.92085266,-0.3515625,0.92501223,-0.07434082,0.26550293,106.0
1339,-0.40903485,0.92085266,-0.3515625,0.89846194,0.0053100586,0.56817627,106.0
1340,-0.110040426,1.0929565,-0.89787674,0.89846194,0.0053100586,0.56817627,106.0
1341,-0.110040426,1.0929565,-0.89787674,0.9515625,0.03717041,0.8581055,106.0
1342,0.72196525,1.1462784,-1.2844772,0.9515625,0.03717041,0.8581055,106.0
1343,0.72196525,1.1462784,-1.2844772,0.8750977,0.060534667,1.081128,106.0
1344,0.97985494,1.0784378,-1.4910965,0.8750977,0.060534667,1.081128,106.0
1345,0.97985494,1.0784378,-1.4910965,0.61278075,0.19116211,1.1650269,106.0
1346,0.60403776,0.930954,-1.527729,0.61278075,0.19116211,1.1650269,106.0
1347,0.60403776,0.930954,-1.527729,0.34727785,0.30054933,1.2032593,106.0
1348,-0.021982193,0.8280411,-1.417923,0.34727785,0.30054933,1.2032593,106.0
1349,-0.021982193,0.8280411,-1.417923,0.045666505,0.3802002,1.3020264,106.0
1350,-0.57357943,0.79151917,-1.2394676,0.045666505,0.3802002,1.3020264,106.0
1351,-0.57357943,0.79151917,-1.2394676,-0.25913087,0.40993652,1.4188477,106.0
1352,-0.9330701,0.7841568,-1.0579567,-0.25913087,0.40993652,1.4188477,106.0
1353,-0.9330701,0.7841568,-1.0579567,-0.5543701,0.40037844,1.532483,106.0
1354,-1.1494713,0.7527771,-0.88623047,-0.5543701,0.40037844,1.532483,106.0
1355,-1.1494713,0.7527771,-0.88623047,-0.74022216,0.34090576,1.634436,106.0
1356,-1.2173676,0.6311264,-0.7383919,-0.74022216,0.34090576,1.634436,106.0
1357,-1.2173676,0.6311264,-0.7383919,-0.7317261,0.21452637,1.6928467,106.0
1358,-1.0830617,0.41345596,-0.6431198,-0.7317261,0.21452637,1.6928467,106.0
1359,-1.0830617,0.41345596,-0.6431198,-0.540564,0.07540283,1.7002808,106.0
1360,-0.7234318,0.1309967,-0.6356621,-0.540564,0.07540283,1.7002808,106.0
1361,-0.7234318,0.1309967,-0.6356621,-0.16354981,-0.0541626,1.635498,106.0
1362,-0.21590376,-0.11823654,-0.71982193,-0.16354981,-0.0541626,1.635498,106.0
1363,-0.21590376,-0.11823654,-0.71982193,0.3706421,-0.18160401,1.4942505,106.0
1364,0.3035344,-0.20893097,-0.8457184,0.3706421,-0.18160401,1.4942505,106.0
1365,0.3035344,-0.20893097,-0.8457184,0.8889038,-0.2623169,1.3041505,106.0
1366,0.72786164,-0.15253448,-0.924942,0.8889038,-0.2623169,1.3041505,106.0
1367,0.72786164,-0.15253448,-0.924942,1.3222046,-0.2984253,1.083252,106.0
1368,1.0535173,-0.020858765,-0.90631104,1.3222046,-0.2984253,1.083252,106.0
1369,1.0535173,-0.020858765,-0.90631104,1.5866455,-0.29736328,0.83049315,106.0
1370,1.0535173,-0.020858765,-0.90631104,1.7119629,-0.21027832,0.59260255,106.0
1371,1.3855386,0.117492676,-0.80653,1.7119629,-0.21027832,0.59260255,106.0
1372,1.7364216,0.26301193,-0.70018005,1.7119629,-0.21027832,0.59260255,106.0
1373,1.7364216,0.26301193,-0.70018005,1.7119629,-0.21027832,0.59260255,108.0
1374,1.7364216,0.26301193,-0.70018005,1.7310791,-0.14124756,0.36427003,108.0
1375,2.0208635,0.4329071,-0.63074875,1.7310791,-0.14124756,0.36427003,108.0
1376,2.0208635,0.4329071,-0.63074875,1.5600952,-0.046728518,0.14124756,108.0
1377,2.105631,0.6008682,-0.56819534,1.5600952,-0.046728518,0.14124756,108.0
1378,2.105631,0.6008682,-0.56819534,1.1958252,0.039294433,-0.02442627,108.0
1379,1.8406206,0.7183533,-0.43463516,1.1958252,0.039294433,-0.02442627,108.0
1380,1.8406206,0.7183533,-0.43463516,0.6818115,0.12000733,-0.14655761,108.0
1381,1.483556,0.68188477,-0.23176575,0.6818115,0.12000733,-0.14655761,108.0
1382,1.483556,0.68188477,-0.23176575,0.15611573,0.16354981,-0.40037844,108.0
1383,1.6480632,0.39837646,0.04493332,0.15611573,0.16354981,-0.40037844,108.0
1384,1.6480632,0.39837646,0.04493332,-0.3069214,0.1359375,-0.7848267,108.0
1385,2.02514,-0.015113831,0.51620483,-0.3069214,0.1359375,-0.7848267,108.0
1386,2.02514,-0.015113831,0.51620483,-0.7720825,0.060534667,-0.88253176,108.0
1387,1.2449169,-0.37255096,1.1473389,-0.7720825,0.060534667,-0.88253176,108.0
1388,1.2449169,-0.37255096,1.1473389,-0.9451904,-0.053100586,-0.6977417,108.0
1389,-0.58691573,-0.66905975,1.5563354,-0.9451904,-0.053100586,-0.6977417,108.0
1390,-0.58691573,-0.66905975,1.5563354,-0.47471926,-0.22302246,-0.5511841,108.0
1391,-1.5104995,-0.9072113,1.5012321,-0.47471926,-0.22302246,-0.5511841,108.0
1392,-1.5104995,-0.9072113,1.5012321,0.3993164,-0.37807617,-0.43117675,108.0
1393,-0.88856316,-0.840847,1.1293297,0.3993164,-0.37807617,-0.43117675,108.0
1394,-0.88856316,-0.840847,1.1293297,1.2722901,-0.5957886,-0.15930176,108.0
1395,-0.07740331,-0.32411957,0.576355,1.2722901,-0.5957886,-0.15930176,108.0
1396,-0.07740331,-0.32411957,0.576355,1.7597535,-0.71579593,0.050976563,108.0
1397,0.0160681,0.40073776,-0.094703674,1.7597535,-0.71579593,0.050976563,108.0
1398,0.0160681,0.40073776,-0.094703674,1.7969239,-0.67331547,0.09770508,108.0
1399,-0.36719918,1.0318336,-0.68977356,1.7969239,-0.67331547,0.09770508,108.0
1400,-0.36719918,1.0318336,-0.68977356,1.4050416,-0.5320679,0.16354981,108.0
1401,-0.8830172,1.4555588,-0.96614075,1.4050416,-0.5320679,0.16354981,108.0
1402,-0.8830172,1.4555588,-0.96614075,0.8358032,-0.3536499,0.2357666,108.0
1403,-1.3901784,1.6436806,-0.8908081,0.8358032,-0.3536499,0.2357666,108.0
1404,-1.3901784,1.6436806,-0.8908081,0.2347046,-0.1539917,0.2347046,108.0
1405,-1.7721281,1.586956,-0.66041565,0.2347046,-0.1539917,0.2347046,108.0
1406,-1.7721281,1.586956,-0.66041565,-0.3706421,0.06690674,0.16142578,108.0
1407,-1.9901512,1.2640343,-0.4950943,-0.3706421,0.06690674,0.16142578,108.0
1408,-1.9901512,1.2640343,-0.4950943,-0.7975708,0.18054199,0.08602295,108.0
1409,-2.0930731,0.7728348,-0.4096489,-0.7975708,0.18054199,0.08602295,108.0
1410,-2.0930731,0.7728348,-0.4096489,-1.0503296,0.23258057,0.020178223,108.0
1411,-2.0716386,0.24315643,-0.3132515,-1.0503296,0.23258057,0.020178223,108.0
1412,-2.0716386,0.24315643,-0.3132515,-1.0747559,0.2166504,-0.08814698,108.0
1413,-1.8535879,-0.27064896,-0.14921951,-1.0747559,0.2166504,-0.08814698,108.0
1414,-1.8535879,-0.27064896,-0.14921951,-0.8315552,0.1709839,-0.23682861,108.0
1415,-1.4732145,-0.7059212,0.091098785,-0.8315552,0.1709839,-0.23682861,108.0
1416,-1.4732145,-0.7059212,0.091098785,-0.4428589,0.08920898,-0.3451538,108.0
1417,-1.1047556,-0.99134827,0.3397026,-0.4428589,0.08920898,-0.3451538,108.0
1418,-1.1047556,-0.99134827,0.3397026,-0.06478272,0.010620117,-0.40993652,108.0
1419,-0.8569248,-1.11726,0.5131073,-0.06478272,0.010620117,-0.40993652,108.0
1420,-0.8569248,-1.11726,0.5131073,0.19753419,-0.057348635,-0.42374268,108.0
1421,-0.62915564,-1.1059418,0.5181885,0.19753419,-0.057348635,-0.42374268,108.0
1422,-0.62915564,-1.1059418,0.5181885,0.3175415,-0.098767094,-0.45029297,108.0
1423,-0.62915564,-1.1059418,0.5181885,0.35046387,-0.16036378,-0.4725952,108.0
1424,-0.14692807,-1.0655022,0.39980316,0.35046387,-0.16036378,-0.4725952,108.0
1425,0.57759905,-1.1031113,0.2869339,0.35046387,-0.16036378,-0.4725952,108.0
1426,0.57759905,-1.1031113,0.2869339,0.3536499,-0.24213867,-0.47365722,108.0
1427,1.2577701,-1.252533,0.23932648,0.3536499,-0.24213867,-0.47365722,108.0
1428,1.2577701,-1.252533,0.23932648,0.51082766,-0.35683593,-0.42374268,108.0
1429,1.7097927,-1.4138565,0.20592499,0.51082766,-0.35683593,-0.42374268,108.0
1430,1.7097927,-1.4138565,0.20592499,0.7519043,-0.4959595,-0.31010744,108.0
1431,2.202429,-1.5243073,0.15340042,0.7519043,-0.4959595,-0.31010744,108.0
1432,2.202429,-1.5243073,0.15340042,1.0482056,-0.5522461,-0.29736328,108.0
1433,2.9255786,-1.5018463,0.18368149,1.0482056,-0.5522461,-0.29736328,108.0
1434,2.9255786,-1.5018463,0.18368149,1.1894531,-0.6053467,-0.17416993,108.0
1435,3.1930873,-1.2364044,0.27994156,1.1894531,-0.6053467,-0.17416993,108.0
1436,3.1930873,-1.2364044,0.27994156,1.0991821,-0.5533081,0.053100586,108.0
1437,2.2947288,-0.72579193,0.18770981,1.0991821,-0.5533081,0.053100586,108.0
1438,2.2947288,-0.72579193,0.18770981,1.0269654,-0.50020754,0.35152587,108.0
1439,0.6872479,0.012054443,-0.22225952,1.0269654,-0.50020754,0.35152587,108.0
1440,0.6872479,0.012054443,-0.22225952,0.91757816,-0.4364868,0.6956177,108.0
1441,-0.3630557,0.77280426,-0.8231087,0.91757816,-0.4364868,0.6956177,108.0
1442,-0.3630557,0.77280426,-0.8231087,0.85704345,-0.3430298,0.9239502,108.0
1443,-0.15055203,1.1973801,-1.3950577,0.85704345,-0.3430298,0.9239502,108.0
1444,-0.15055203,1.1973801,-1.3950577,0.86553955,-0.32285157,0.99510497,108.0
1445,0.5378592,1.2584686,-1.6966858,0.86553955,-0.32285157,0.99510497,108.0
1446,0.5378592,1.2584686,-1.6966858,0.6202149,-0.24638672,1.0609497,108.0
1447,0.5449847,1.1015625,-1.693676,0.6202149,-0.24638672,1.0609497,108.0
1448,0.5449847,1.1015625,-1.693676,0.41524658,-0.14974366,1.0747559,108.0
1449,-0.044871688,0.8372307,-1.5860825,0.41524658,-0.14974366,1.0747559,108.0
1450,-0.044871688,0.8372307,-1.5860825,0.3812622,-0.107263185,1.0705079,108.0
1451,-0.48496962,0.6328697,-1.5106773,0.3812622,-0.107263185,1.0705079,108.0
1452,-0.48496962,0.6328697,-1.5106773,0.38232422,-0.07646485,1.1151123,108.0
1453,-0.5382687,0.58335876,-1.4678535,0.38232422,-0.07646485,1.1151123,108.0
1454,-0.5382687,0.58335876,-1.4678535,0.42374268,-0.13062744,1.1607789,108.0
1455,-0.4935056,0.6918602,-1.414177,0.42374268,-0.13062744,1.1607789,108.0
1456,-0.4935056,0.6918602,-1.414177,0.39188233,-0.16461182,1.173523,108.0
1457,-0.55032206,0.80474854,-1.3328552,0.39188233,-0.16461182,1.173523,108.0
1458,-0.55032206,0.80474854,-1.3328552,0.3090454,-0.19222413,1.1352905,108.0
1459,-0.6052113,0.70005035,-1.2721443,0.3090454,-0.19222413,1.1352905,108.0
1460,-0.6052113,0.70005035,-1.2721443,0.3462158,-0.23364258,1.0747559,108.0
1461,-0.51194006,0.2723465,-1.2516747,0.3462158,-0.23364258,1.0747559,108.0
1462,-0.51194006,0.2723465,-1.2516747,0.62127686,-0.3334717,1.0014771,108.0
1463,-0.23610234,-0.2809372,-1.2117386,0.62127686,-0.3334717,1.0014771,108.0
1464,-0.23610234,-0.2809372,-1.2117386,0.9876709,-0.49064943,0.92501223,108.0
1465,0.15704101,-0.63311386,-1.1018143,0.9876709,-0.49064943,0.92501223,108.0
1466,0.15704101,-0.63311386,-1.1018143,1.2457398,-0.59260255,0.811377,108.0
1467,0.56480515,-0.7284775,-0.9631767,1.2457398,-0.59260255,0.811377,108.0
1468,0.56480515,-0.7284775,-0.9631767,1.4018555,-0.6414551,0.6669434,108.0
1469,0.827247,-0.71932983,-0.868515,1.4018555,-0.6414551,0.6669434,108.0
1470,0.827247,-0.71932983,-0.868515,1.5250489,-0.6435791,0.5628662,108.0
1471,0.9221858,-0.7049675,-0.8526993,1.5250489,-0.6435791,0.5628662,108.0
1472,0.9221858,-0.7049675,-0.8526993,1.6142578,-0.6053467,0.4895874,108.0
1473,0.9221858,-0.7049675,-0.8526993,1.6142578,-0.6053467,0.4895874,108.0
1474,0.99840534,-0.6818695,-0.8507767,1.6142578,-0.6053467,0.4895874,108.0
1475,0.99840534,-0.6818695,-0.8507767,1.6121339,-0.4980835,0.42374268,108.0
1476,0.99840534,-0.6818695,-0.8507767,1.4761963,-0.36320803,0.3536499,108.0
1477,1.1381896,-0.5937729,-0.8094406,1.4761963,-0.36320803,0.3536499,108.0
1478,1.9145188,0.004802704,-0.87952423,1.4761963,-0.36320803,0.3536499,108.0
1479,1.9145188,0.004802704,-0.87952423,1.1586548,-0.1996582,0.23258057,108.0
1480,1.9145188,0.004802704,-0.87952423,0.6446411,-0.026550293,0.053100586,108.0
1481,1.9145188,0.004802704,-0.87952423,0.0361084,0.107263185,-0.13381349,108.0
1482,1.8484485,0.00868988,-0.63778687,0.0361084,0.107263185,-0.13381349,108.0
1483,1.8484485,0.00868988,-0.63778687,-0.4800293,0.19541016,-0.48215333,108.0
1484,2.0776114,-0.23656464,-0.21234131,-0.4800293,0.19541016,-0.48215333,108.0
1485,2.0776114,-0.23656464,-0.21234131,-0.8517334,0.18691407,-0.81987303,108.0
1486,1.9507,-0.4711609,0.48802185,-0.8517334,0.18691407,-0.81987303,108.0
1487,1.9507,-0.4711609,0.48802185,-1.1937011,0.15930176,-0.7742066,108.0
1488,0.6809213,-0.47290802,1.1915283,-1.1937011,0.15930176,-0.7742066,108.0
1489,0.6809213,-0.47290802,1.1915283,-1.1894531,0.07115479,-0.5140137,108.0
1490,-0.87112,-0.25688934,1.5009766,-1.1894531,0.07115479,-0.5140137,108.0
1491,-0.87112,-0.25688934,1.5009766,-0.8251831,0.015930176,-0.2814331,108.0
1492,-1.2001064,-0.0037002563,1.2835083,-0.8251831,0.015930176,-0.2814331,108.0
1493,-1.2001064,-0.0037002563,1.2835083,-0.20921631,-0.11151123,-0.121069334,108.0
1494,-0.34937954,0.2460022,0.754261,-0.20921631,-0.11151123,-0.121069334,108.0
1495,-0.34937954,0.2460022,0.754261,0.2442627,-0.2538208,-0.014868164,108.0
1496,0.462281,0.50257874,0.23105621,0.2442627,-0.2538208,-0.014868164,108.0
1497,0.462281,0.50257874,0.23105621,0.38975832,-0.28355715,0.047790527,108.0
1498,0.48115277,0.7039299,-0.13019562,0.38975832,-0.28355715,0.047790527,108.0
1499,0.48115277,0.7039299,-0.13019562,0.2803711,-0.2803711,0.07646485,108.0
1500,-0.08779502,0.86240005,-0.30290985,0.2803711,-0.2803711,0.07646485,108.0
1501,-0.08779502,0.86240005,-0.30290985,0.06690674,-0.21983643,0.11469727,108.0
1502,-0.70483065,0.9570732,-0.26254272,0.06690674,-0.21983643,0.11469727,108.0
1503,-0.70483065,0.9570732,-0.26254272,-0.028674318,-0.17523193,0.17841797,108.0
1504,-1.1452854,1.002243,-0.07368469,-0.028674318,-0.17523193,0.17841797,108.0
1505,-1.1452854,1.002243,-0.07368469,-0.107263185,-0.15080567,0.24320069,108.0
1506,-1.17647,0.91483307,0.030261993,-0.107263185,-0.15080567,0.24320069,108.0
1507,-1.17647,0.91483307,0.030261993,-0.19328614,-0.1178833,0.24213867,108.0
1508,-1.768764,0.9191704,0.076309204,-0.19328614,-0.1178833,0.24213867,108.0
1509,-1.768764,0.9191704,0.076309204,-0.4725952,-0.032922365,0.15505372,108.0
1510,-1.6588466,0.71105576,0.0717659,-0.4725952,-0.032922365,0.15505372,108.0
1511,-1.6588466,0.71105576,0.0717659,-0.49383545,-0.039294433,0.10620117,108.0
1512,-1.7797263,0.1845169,-0.07949066,-0.49383545,-0.039294433,0.10620117,108.0
1513,-1.7797263,0.1845169,-0.07949066,-0.24213867,-0.08814698,-0.11363526,108.0
1514,-1.436635,-0.052959442,-0.07505798,-0.24213867,-0.08814698,-0.11363526,108.0
1515,-1.436635,-0.052959442,-0.07505798,-0.06265869,-0.13062744,-0.1731079,108.0
1516,-0.8261269,-0.75297546,-0.043395996,-0.06265869,-0.13062744,-0.1731079,108.0
1517,-0.8261269,-0.75297546,-0.043395996,0.56605226,-0.27399904,-0.26656494,108.0
1518,-0.54898745,-0.83208084,-0.09799957,0.56605226,-0.27399904,-0.26656494,108.0
1519,-0.54898745,-0.83208084,-0.09799957,0.74871826,-0.31966552,-0.270813,108.0
1520,-0.048626006,-1.0387001,-9.1552734E-5,0.74871826,-0.31966552,-0.270813,108.0
1521,-0.048626006,-1.0387001,-9.1552734E-5,1.0598878,-0.38338622,-0.18797608,108.0
1522,-0.048626006,-1.0387001,-9.1552734E-5,1.1182984,-0.40250245,-0.14655761,108.0
1523,0.06402892,-0.8988037,-0.10844803,1.1182984,-0.40250245,-0.14655761,108.0
1524,0.5736719,-0.77353287,-0.17617416,1.1182984,-0.40250245,-0.14655761,108.0
1525,0.5736719,-0.77353287,-0.17617416,1.1055542,-0.41312256,-0.09133301,108.0
1526,0.67126656,-0.6623306,-0.2888527,1.1055542,-0.41312256,-0.09133301,108.0
1527,0.67126656,-0.6623306,-0.2888527,1.0386475,-0.4088745,-0.087084964,108.0
1528,1.1205826,-0.61769485,-0.29187393,1.0386475,-0.4088745,-0.087084964,108.0
1529,1.1205826,-0.61769485,-0.29187393,0.7763306,-0.3982544,-0.013806152,108.0
1530,0.964154,-0.56044006,-0.32862854,0.7763306,-0.3982544,-0.013806152,108.0
1531,0.964154,-0.56044006,-0.32862854,0.6977417,-0.38869628,0.03079834,108.0
1532,0.8699926,-0.5388565,-0.4187851,0.6977417,-0.38869628,0.03079834,108.0
1533,0.8699926,-0.5388565,-0.4187851,0.4333008,-0.40144044,0.16673584,108.0
1534,0.8480816,-0.45720673,-0.4902382,0.4333008,-0.40144044,0.16673584,108.0
1535,0.8480816,-0.45720673,-0.4902382,0.32922363,-0.38657227,0.1709839,108.0
1536,1.307811,-0.39469147,-0.67115784,0.32922363,-0.38657227,0.1709839,108.0
1537,1.307811,-0.39469147,-0.67115784,0.1263794,-0.3971924,0.08814698,108.0
1538,1.8678308,-0.36162567,-0.7007942,0.1263794,-0.3971924,0.08814698,108.0
1539,1.8678308,-0.36162567,-0.7007942,-0.24001466,-0.38975832,0.011682129,108.0
1540,1.7006123,-0.5861969,-0.46110153,-0.24001466,-0.38975832,0.011682129,108.0
1541,1.7006123,-0.5861969,-0.46110153,-0.39082032,-0.4364868,0.015930176,108.0
1542,0.9682412,-0.6406174,-0.31664658,-0.39082032,-0.4364868,0.015930176,108.0
1543,0.9682412,-0.6406174,-0.31664658,-0.21134034,-0.48533937,0.07115479,108.0
1544,-0.35946465,-0.93904114,-0.5672455,-0.21134034,-0.48533937,0.07115479,108.0
1545,-0.35946465,-0.93904114,-0.5672455,0.77526855,-0.6573853,0.16567384,108.0
1546,-0.27698803,-0.833374,-0.80283356,0.77526855,-0.6573853,0.16567384,108.0
1547,-0.27698803,-0.833374,-0.80283356,1.1129884,-0.724292,0.17947999,108.0
1548,0.4175942,-0.4069214,-1.4156799,1.1129884,-0.724292,0.17947999,108.0
1549,0.4175942,-0.4069214,-1.4156799,1.6928467,-0.8644776,0.23682861,108.0
1550,0.36218834,-0.22281647,-1.5491943,1.6928467,-0.8644776,0.23682861,108.0
1551,0.36218834,-0.22281647,-1.5491943,1.7374512,-0.8708496,0.2357666,108.0
1552,-0.070393324,0.23001862,-1.723278,1.7374512,-0.8708496,0.2357666,108.0
