,accx,accy,accz,gyrox,gyroy,gyroz,heart rate
0,walk,walk,walk,walk,walk,walk,walk
1,-6.181348,-63.764553,37.33961,0.0,0.0,0.0,0.0
2,-6.181348,-63.764553,37.33961,-0.029736329,-0.004248047,-0.023364259,0.0
3,-4.941648,-51.010788,29.756664,-0.029736329,-0.004248047,-0.023364259,0.0
4,-4.941648,-51.010788,29.756664,-0.033984374,-0.029736329,-0.020178223,0.0
5,-3.9013896,-40.908497,23.866478,-0.033984374,-0.029736329,-0.020178223,0.0
6,-3.9013896,-40.908497,23.866478,0.009558106,-0.07115479,-0.013806152,0.0
7,-3.0816708,-32.811283,19.247173,0.009558106,-0.07115479,-0.013806152,0.0
8,-3.0816708,-32.811283,19.247173,-0.0063720704,-0.10301514,-0.020178223,0.0
9,-2.408647,-26.245243,15.494823,-0.0063720704,-0.10301514,-0.020178223,0.0
10,-2.408647,-26.245243,15.494823,-0.033984374,-0.07327881,-0.010620117,0.0
11,-1.8476572,-20.986427,12.422142,-0.033984374,-0.07327881,-0.010620117,0.0
12,-1.8476572,-20.986427,12.422142,-0.045666505,-0.028674318,0.016992187,0.0
13,-1.4313116,-16.845638,9.960884,-0.045666505,-0.028674318,0.016992187,0.0
14,-1.4313116,-16.845638,9.960884,0.0361084,-0.014868164,0.032922365,0.0
15,-1.1797414,-13.537537,8.010994,0.0361084,-0.014868164,0.032922365,0.0
16,-1.1797414,-13.537537,8.010994,0.007434082,0.026550293,0.012744141,0.0
17,-1.0338078,-10.859512,6.4550095,0.007434082,0.026550293,0.012744141,0.0
18,-1.0338078,-10.859512,6.4550095,-0.028674318,0.027612304,0.0021240234,0.0
19,-0.90700245,-8.679489,5.1839523,-0.028674318,0.027612304,0.0021240234,0.0
20,-0.90700245,-8.679489,5.1839523,-0.027612304,0.010620117,-0.015930176,0.0
21,-0.7546549,-6.851181,4.0928154,-0.027612304,0.010620117,-0.015930176,0.0
22,-0.7546549,-6.851181,4.0928154,-0.04248047,0.0031860352,-0.032922365,0.0
23,-0.5630255,-5.366661,3.1748123,-0.04248047,0.0031860352,-0.032922365,0.0
24,-0.5630255,-5.366661,3.1748123,0.0063720704,-0.009558106,-0.023364259,0.0
25,-0.39080143,-4.255165,2.4891663,0.0063720704,-0.009558106,-0.023364259,0.0
26,-0.39080143,-4.255165,2.4891663,0.004248047,0.0053100586,0.010620117,0.0
27,-0.30119085,-3.433403,2.00465,0.004248047,0.0053100586,0.010620117,0.0
28,-0.30119085,-3.433403,2.00465,-0.028674318,0.012744141,0.015930176,0.0
29,-0.2612896,-2.7867584,1.6263123,-0.028674318,0.012744141,0.015930176,0.0
30,-0.2612896,-2.7867584,1.6263123,-0.040356446,-0.0021240234,0.025488282,0.0
31,-0.22968626,-2.2503815,1.3015366,-0.040356446,-0.0021240234,0.025488282,0.0
32,-0.22968626,-2.2503815,1.3015366,-0.021240234,-0.010620117,0.016992187,0.0
33,-0.2016325,-1.8277969,1.0519829,-0.021240234,-0.010620117,0.016992187,0.0
34,-0.2016325,-1.8277969,1.0519829,0.050976563,-0.0180542,0.0021240234,0.0
35,-0.14924526,-1.4513016,0.8910141,0.050976563,-0.0180542,0.0021240234,0.0
36,-0.14924526,-1.4513016,0.8910141,0.026550293,0.0010620117,0.013806152,0.0
37,-0.10853195,-1.1258392,0.7917061,0.026550293,0.0010620117,0.013806152,0.0
38,-0.10853195,-1.1258392,0.7917061,0.0053100586,0.020178223,0.023364259,0.0
39,-0.09563875,-0.9030533,0.6592827,0.0053100586,0.020178223,0.023364259,0.0
40,-0.09563875,-0.9030533,0.6592827,-0.009558106,0.021240234,0.02442627,0.0
41,-0.08876705,-0.75149536,0.47555923,-0.009558106,0.021240234,0.02442627,0.0
42,-0.08876705,-0.75149536,0.47555923,-0.026550293,0.015930176,0.021240234,0.0
43,-0.08179283,-0.61940765,0.2992592,-0.026550293,0.015930176,0.021240234,0.0
44,-0.08179283,-0.61940765,0.2992592,-0.0180542,0.019116212,0.010620117,0.0
45,-0.09038544,-0.47509003,0.19326401,-0.0180542,0.019116212,0.010620117,0.0
46,-0.09038544,-0.47509003,0.19326401,-0.03186035,0.03186035,0.007434082,0.0
47,-0.11641216,-0.363945,0.1531601,-0.03186035,0.03186035,0.007434082,0.0
48,-0.11641216,-0.363945,0.1531601,0.0021240234,0.038232423,0.0063720704,0.0
49,-0.12085199,-0.30229187,0.13331985,0.0021240234,0.038232423,0.0063720704,0.0
50,-0.12085199,-0.30229187,0.13331985,-0.015930176,0.038232423,0.0010620117,0.0
51,-0.08335161,-0.271286,0.097976685,-0.015930176,0.038232423,0.0010620117,0.0
52,-0.08335161,-0.271286,0.097976685,-0.06796875,0.021240234,-0.02442627,0.0
53,-0.04873705,-0.25531006,0.06323242,-0.06796875,0.021240234,-0.02442627,0.0
54,-0.04873705,-0.25531006,0.06323242,-0.022302246,-0.008496094,-0.029736329,0.0
55,-0.022864342,-0.21212006,0.050582886,-0.022302246,-0.008496094,-0.029736329,0.0
56,-0.022864342,-0.21212006,0.050582886,-0.015930176,-0.0063720704,-0.014868164,0.0
57,-0.0036187172,-0.1459198,0.06405258,-0.015930176,-0.0063720704,-0.014868164,0.0
58,-0.0036187172,-0.1459198,0.06405258,-0.033984374,0.008496094,-0.0010620117,0.0
59,-0.020546436,-0.11130524,0.09980011,-0.033984374,0.008496094,-0.0010620117,0.0
60,-0.020546436,-0.11130524,0.09980011,-0.04141846,0.016992187,0.011682129,0.0
61,-0.05403471,-0.09423065,0.11343384,-0.04141846,0.016992187,0.011682129,0.0
62,-0.05403471,-0.09423065,0.11343384,-0.06478272,0.019116212,0.012744141,0.0
63,-0.061098576,-0.06550598,0.071388245,-0.06478272,0.019116212,0.012744141,0.0
64,-0.061098576,-0.06550598,0.071388245,-0.058410645,0.016992187,0.009558106,0.0
65,-0.04447174,-0.01184082,-0.007461548,-0.058410645,0.016992187,0.009558106,0.0
66,-0.04447174,-0.01184082,-0.007461548,-0.047790527,0.019116212,0.010620117,0.0
67,-0.031915665,0.015090942,-0.044296265,-0.047790527,0.019116212,0.010620117,0.0
68,-0.031915665,0.015090942,-0.044296265,-0.059472658,0.021240234,-0.0031860352,0.0
69,-0.028840542,-0.0017929077,-0.005126953,-0.059472658,0.021240234,-0.0031860352,0.0
70,-0.028840542,-0.0017929077,-0.005126953,-0.059472658,0.013806152,-0.0031860352,0.0
71,-0.03455925,-0.02306366,0.03129959,-0.059472658,0.013806152,-0.0031860352,0.0
72,-0.03455925,-0.02306366,0.03129959,-0.050976563,-0.0021240234,-0.013806152,0.0
73,-0.03455925,-0.02306366,0.03129959,-0.0361084,-0.004248047,-0.0010620117,0.0
74,-0.009287834,-0.017364502,0.028335571,-0.0361084,-0.004248047,-0.0010620117,0.0
75,0.036539555,0.017921448,-0.0073242188,-0.0361084,-0.004248047,-0.0010620117,0.0
76,0.036539555,0.017921448,-0.0073242188,-0.027612304,0.0180542,0.007434082,0.0
77,0.036872864,0.03831482,-0.037563324,-0.027612304,0.0180542,0.007434082,0.0
78,0.036872864,0.03831482,-0.037563324,-0.032922365,0.035046387,-0.011682129,0.0
79,-0.022015572,-0.011451721,-0.040634155,-0.032922365,0.035046387,-0.011682129,0.0
80,-0.022015572,-0.011451721,-0.040634155,-0.019116212,0.033984374,-0.02442627,0.0
81,-0.022015572,-0.011451721,-0.040634155,-0.020178223,0.0180542,-0.03717041,0.0
82,-0.09400368,-0.06732941,-0.007423401,-0.020178223,0.0180542,-0.03717041,0.0
83,-0.09545469,-0.058013916,-0.0051460266,-0.020178223,0.0180542,-0.03717041,0.0
84,-0.09545469,-0.058013916,-0.0051460266,-0.057348635,0.026550293,-0.05628662,0.0
85,-0.042294025,-0.04676819,-0.0460968,-0.057348635,0.026550293,-0.05628662,0.0
86,-0.042294025,-0.04676819,-0.0460968,-0.043542482,0.03079834,-0.04885254,0.0
87,-0.013388157,-0.05328369,-0.059799194,-0.043542482,0.03079834,-0.04885254,0.0
88,-0.013388157,-0.05328369,-0.059799194,-0.029736329,0.02442627,-0.039294433,0.0
89,0.012409687,-0.065711975,-0.029380798,-0.029736329,0.02442627,-0.039294433,0.0
90,0.012409687,-0.065711975,-0.029380798,-0.032922365,-0.0021240234,-0.032922365,0.0
91,0.05553341,-0.06668091,0.0017242432,-0.032922365,-0.0021240234,-0.032922365,0.0
92,0.05553341,-0.06668091,0.0017242432,-0.06265869,-0.012744141,-0.010620117,0.0
93,0.10188532,-0.06237793,-0.033424377,-0.06265869,-0.012744141,-0.010620117,0.0
94,0.10188532,-0.06237793,-0.033424377,-0.08814698,-0.007434082,-0.0021240234,0.0
95,0.10285854,-0.06561279,-0.116867065,-0.08814698,-0.007434082,-0.0021240234,0.0
96,0.10285854,-0.06561279,-0.116867065,-0.07540283,-0.008496094,0.03186035,0.0
97,0.059825897,-0.07059479,-0.17669678,-0.07540283,-0.008496094,0.03186035,0.0
98,0.059825897,-0.07059479,-0.17669678,-0.11257324,0.0063720704,0.0361084,0.0
99,0.016098022,-0.08156586,-0.17580414,-0.11257324,0.0063720704,0.0361084,0.0
100,0.016098022,-0.08156586,-0.17580414,-0.118945315,-0.004248047,0.052038576,0.0
101,-0.018017769,-0.057159424,-0.1722374,-0.118945315,-0.004248047,0.052038576,0.0
102,-0.018017769,-0.057159424,-0.1722374,-0.22196046,-0.0063720704,0.03717041,0.0
103,-0.018017769,-0.057159424,-0.1722374,-0.22196046,-0.0063720704,0.03717041,77.0
104,-0.059201717,-0.020484924,-0.17493439,-0.22196046,-0.0063720704,0.03717041,77.0
105,-0.059201717,-0.020484924,-0.17493439,-0.26337892,0.0010620117,0.033984374,77.0
106,-0.10252476,-0.02191925,-0.14240265,-0.26337892,0.0010620117,0.033984374,77.0
107,-0.10252476,-0.02191925,-0.14240265,-0.25806886,0.0063720704,0.015930176,77.0
108,-0.10252476,-0.02191925,-0.14240265,-0.2357666,0.004248047,-0.012744141,77.0
109,-0.1521616,-0.06279755,-0.06056595,-0.2357666,0.004248047,-0.012744141,77.0
110,-0.17918777,-0.10131073,0.0049057007,-0.2357666,0.004248047,-0.012744141,77.0
111,-0.17918777,-0.10131073,0.0049057007,-0.18054199,-0.007434082,-0.019116212,77.0
112,-0.12199974,-0.02027893,-0.012519836,-0.18054199,-0.007434082,-0.019116212,77.0
113,-0.12199974,-0.02027893,-0.012519836,-0.21027832,0.038232423,0.020178223,77.0
114,-0.054570198,0.059425354,-0.08018112,-0.21027832,0.038232423,0.020178223,77.0
115,-0.054570198,0.059425354,-0.08018112,-0.36320803,0.09239502,0.053100586,77.0
116,-0.054570198,0.059425354,-0.08018112,-0.21558838,0.06584473,0.15823975,77.0
117,-0.039212704,-0.09151459,-0.043331146,-0.21558838,0.06584473,0.15823975,77.0
118,0.013783455,-0.31503296,0.088344574,-0.21558838,0.06584473,0.15823975,77.0
119,0.013783455,-0.31503296,0.088344574,-0.058410645,0.07115479,0.093457036,77.0
120,-0.012825489,-0.42775726,0.19760513,-0.058410645,0.07115479,0.093457036,77.0
121,-0.012825489,-0.42775726,0.19760513,0.04141846,0.06903076,0.09133301,77.0
122,-0.046380997,-0.3107605,0.10979462,0.04141846,0.06903076,0.09133301,77.0
123,-0.046380997,-0.3107605,0.10979462,-0.13275146,0.10513916,-0.0722168,77.0
124,-0.054219246,-0.055015564,-0.13853073,-0.13275146,0.10513916,-0.0722168,77.0
125,-0.054219246,-0.055015564,-0.13853073,-0.19434814,0.13062744,0.06903076,77.0
126,-0.051822662,0.14815521,-0.26095963,-0.19434814,0.13062744,0.06903076,77.0
127,-0.051822662,0.14815521,-0.26095963,-0.09239502,0.14868164,0.004248047,77.0
128,-0.07265949,0.20169067,-0.21069336,-0.09239502,0.14868164,0.004248047,77.0
129,-0.07265949,0.20169067,-0.21069336,0.0021240234,0.15717773,0.045666505,77.0
130,-0.120420456,0.05771637,-0.16292572,0.0021240234,0.15717773,0.045666505,77.0
131,-0.120420456,0.05771637,-0.16292572,0.04460449,0.12956543,0.02442627,77.0
132,-0.119407654,-0.02217865,-0.19762802,0.04460449,0.12956543,0.02442627,77.0
133,-0.119407654,-0.02217865,-0.19762802,-0.0053100586,0.1274414,0.025488282,77.0
134,-0.065740585,0.015449524,-0.2931137,-0.0053100586,0.1274414,0.025488282,77.0
135,-0.065740585,0.015449524,-0.2931137,-0.038232423,0.11682129,0.02442627,77.0
136,-0.020841599,-0.012634277,-0.34576035,-0.038232423,0.11682129,0.02442627,77.0
137,-0.020841599,-0.012634277,-0.34576035,0.008496094,0.10195313,0.04141846,77.0
138,-0.016746521,-0.102264404,-0.26791763,0.008496094,0.10195313,0.04141846,77.0
139,-0.016746521,-0.102264404,-0.26791763,0.053100586,0.07115479,0.0361084,77.0
140,-0.030389786,-0.11173248,-0.15394592,0.053100586,0.07115479,0.0361084,77.0
141,-0.030389786,-0.11173248,-0.15394592,0.012744141,0.059472658,0.04141846,77.0
142,-0.055086136,-0.03681183,-0.12165451,0.012744141,0.059472658,0.04141846,77.0
143,-0.055086136,-0.03681183,-0.12165451,-0.046728518,0.060534667,0.029736329,77.0
144,-0.09662056,0.023635864,-0.14877701,-0.046728518,0.060534667,0.029736329,77.0
145,-0.09662056,0.023635864,-0.14877701,-0.05522461,0.060534667,0.02442627,77.0
146,-0.12065601,0.017150879,-0.1637268,-0.05522461,0.060534667,0.02442627,77.0
147,-0.12065601,0.017150879,-0.1637268,-0.03079834,0.04885254,0.0053100586,77.0
148,-0.106962204,0.0035247803,-0.12532806,-0.03079834,0.04885254,0.0053100586,77.0
149,-0.106962204,0.0035247803,-0.12532806,-0.04248047,0.04885254,0.0021240234,77.0
150,-0.08520317,0.0019073486,-0.069099426,-0.04248047,0.04885254,0.0021240234,77.0
151,-0.08520317,0.0019073486,-0.069099426,-0.081774905,0.0361084,-0.0053100586,77.0
152,-0.086351395,-0.01776123,-0.03133011,-0.081774905,0.0361084,-0.0053100586,77.0
153,-0.086351395,-0.01776123,-0.03133011,-0.10301514,0.015930176,-0.0021240234,77.0
154,-0.11754322,-0.052886963,-0.008205414,-0.10301514,0.015930176,-0.0021240234,77.0
155,-0.11754322,-0.052886963,-0.008205414,-0.070092775,-0.021240234,0.004248047,77.0
156,-0.11098957,-0.06732178,0.015434265,-0.070092775,-0.021240234,0.004248047,77.0
157,-0.11098957,-0.06732178,0.015434265,-0.019116212,-0.04248047,0.019116212,77.0
158,-0.03898716,-0.040740967,0.02576065,-0.019116212,-0.04248047,0.019116212,77.0
159,-0.03898716,-0.040740967,0.02576065,-0.012744141,-0.04885254,0.028674318,77.0
160,0.037621498,-0.0028381348,0.033267975,-0.012744141,-0.04885254,0.028674318,77.0
161,0.037621498,-0.0028381348,0.033267975,-0.046728518,-0.04141846,0.03186035,77.0
162,0.029987335,0.009231567,0.0667038,-0.046728518,-0.04141846,0.03186035,77.0
163,0.029987335,0.009231567,0.0667038,-0.06159668,-0.039294433,0.03186035,77.0
164,-0.03727722,-7.9345703E-4,0.07993698,-0.06159668,-0.039294433,0.03186035,77.0
165,-0.03727722,-7.9345703E-4,0.07993698,-0.04460449,-0.043542482,0.026550293,77.0
166,-0.07857609,0.025619507,0.04372406,-0.04460449,-0.043542482,0.026550293,77.0
167,-0.07857609,0.025619507,0.04372406,-0.060534667,-0.0361084,0.023364259,77.0
168,-0.07982826,0.047828674,-0.0093688965,-0.060534667,-0.0361084,0.023364259,77.0
169,-0.07982826,0.047828674,-0.0093688965,-0.08920898,-0.020178223,0.020178223,77.0
170,-0.07030773,0.0118255615,-0.023426056,-0.08920898,-0.020178223,0.020178223,77.0
171,-0.07030773,0.0118255615,-0.023426056,-0.0637207,-0.032922365,0.025488282,77.0
172,-0.0776453,-0.04559326,0.0018997192,-0.0637207,-0.032922365,0.025488282,77.0
173,-0.0776453,-0.04559326,0.0018997192,-0.03079834,-0.04460449,0.016992187,77.0
174,-0.08277035,-0.053329468,0.021881104,-0.03079834,-0.04460449,0.016992187,77.0
175,-0.08277035,-0.053329468,0.021881104,-0.04885254,-0.047790527,0.009558106,77.0
176,-0.058818817,-0.020141602,0.009849548,-0.04885254,-0.047790527,0.009558106,77.0
177,-0.058818817,-0.020141602,0.009849548,-0.07752686,-0.039294433,0.0063720704,77.0
178,-0.014205933,-0.0010681152,-0.033416748,-0.07752686,-0.039294433,0.0063720704,77.0
179,-0.014205933,-0.0010681152,-0.033416748,-0.06159668,-0.04248047,0.016992187,77.0
180,0.0054073334,-0.009521484,-0.057056427,-0.06159668,-0.04248047,0.016992187,77.0
181,0.0054073334,-0.009521484,-0.057056427,-0.04141846,-0.039294433,0.022302246,77.0
182,0.0065841675,-0.0048217773,-0.038394928,-0.04141846,-0.039294433,0.022302246,77.0
183,0.0065841675,-0.0048217773,-0.038394928,-0.05628662,-0.03717041,0.011682129,77.0
184,0.012823105,-0.015701294,-0.0042648315,-0.05628662,-0.03717041,0.011682129,77.0
185,0.012823105,-0.015701294,-0.0042648315,-0.07434082,-0.03079834,0.0063720704,77.0
186,0.020524979,-0.036132812,0.017349243,-0.07434082,-0.03079834,0.0063720704,77.0
187,0.020524979,-0.036132812,0.017349243,-0.057348635,-0.039294433,0.014868164,77.0
188,0.023805618,-0.025787354,-0.015636444,-0.057348635,-0.039294433,0.014868164,77.0
189,0.023805618,-0.025787354,-0.015636444,-0.06796875,-0.03079834,0.0053100586,77.0
190,0.016273499,0.017181396,-0.05554962,-0.06796875,-0.03079834,0.0053100586,77.0
191,0.016273499,0.017181396,-0.05554962,-0.07646485,-0.02442627,0.0,77.0
192,0.010138512,0.028419495,-0.063835144,-0.07646485,-0.02442627,0.0,77.0
193,0.010138512,0.028419495,-0.063835144,-0.06584473,-0.022302246,0.0031860352,77.0
194,0.0159235,0.0023040771,-0.07134247,-0.06584473,-0.022302246,0.0031860352,77.0
195,0.0159235,0.0023040771,-0.07134247,-0.047790527,-0.03079834,0.0063720704,77.0
196,0.032380104,0.004257202,-0.08488083,-0.047790527,-0.03079834,0.0063720704,77.0
197,0.032380104,0.004257202,-0.08488083,-0.058410645,-0.027612304,0.0031860352,77.0
198,0.05930233,0.030075073,-0.0945549,-0.058410645,-0.027612304,0.0031860352,77.0
199,0.05930233,0.030075073,-0.0945549,-0.10513916,-0.028674318,-0.007434082,77.0
200,0.05371666,0.04386902,-0.13525009,-0.10513916,-0.028674318,-0.007434082,77.0
201,0.05371666,0.04386902,-0.13525009,-0.11257324,-0.035046387,-0.009558106,77.0
202,0.03238964,0.03515625,-0.1526947,-0.11257324,-0.035046387,-0.009558106,77.0
203,0.03238964,0.03515625,-0.1526947,-0.083898924,-0.04885254,0.0031860352,77.0
204,0.03238964,0.03515625,-0.1526947,-0.083898924,-0.04885254,0.0031860352,78.0
205,0.03236866,0.024475098,-0.15344238,-0.083898924,-0.04885254,0.0031860352,78.0
206,0.03236866,0.024475098,-0.15344238,-0.08920898,-0.059472658,0.007434082,78.0
207,0.06800938,0.04774475,-0.18962097,-0.08920898,-0.059472658,0.007434082,78.0
208,0.06800938,0.04774475,-0.18962097,-0.13487549,-0.07646485,-0.004248047,78.0
209,0.10023308,0.09490204,-0.2584114,-0.13487549,-0.07646485,-0.004248047,78.0
210,0.10023308,0.09490204,-0.2584114,-0.1709839,-0.098767094,-0.007434082,78.0
211,0.09527397,0.1100235,-0.3029709,-0.1709839,-0.098767094,-0.007434082,78.0
212,0.09527397,0.1100235,-0.3029709,-0.18372802,-0.13062744,-0.029736329,78.0
213,0.08104038,0.09118652,-0.31945038,-0.18372802,-0.13062744,-0.029736329,78.0
214,0.08104038,0.09118652,-0.31945038,-0.19647217,-0.16779785,-0.045666505,78.0
215,0.09544754,0.08747864,-0.33478546,-0.19647217,-0.16779785,-0.045666505,78.0
216,0.09544754,0.08747864,-0.33478546,-0.22727051,-0.1985962,-0.07965088,78.0
217,0.1587553,0.11240387,-0.38264847,-0.22727051,-0.1985962,-0.07965088,78.0
218,0.1587553,0.11240387,-0.38264847,-0.27293703,-0.22939454,-0.0998291,78.0
219,0.25415325,0.14097595,-0.4605255,-0.27293703,-0.22939454,-0.0998291,78.0
220,0.25415325,0.14097595,-0.4605255,-0.3175415,-0.2527588,-0.13168946,78.0
221,0.36487007,0.19565582,-0.5599251,-0.3175415,-0.2527588,-0.13168946,78.0
222,0.36487007,0.19565582,-0.5599251,-0.3717041,-0.2803711,-0.16673584,78.0
223,0.4727311,0.25759888,-0.68915176,-0.3717041,-0.2803711,-0.16673584,78.0
224,0.4727311,0.25759888,-0.68915176,-0.47578126,-0.31860352,-0.21346436,78.0
225,0.5276356,0.2530365,-0.8184242,-0.47578126,-0.31860352,-0.21346436,78.0
226,0.5276356,0.2530365,-0.8184242,-0.5979126,-0.38232422,-0.29205322,78.0
227,0.49251842,0.16024017,-0.8700981,-0.5979126,-0.38232422,-0.29205322,78.0
228,0.49251842,0.16024017,-0.8700981,-0.7051758,-0.45454103,-0.38975832,78.0
229,0.45335293,0.046188354,-0.8101654,-0.7051758,-0.45454103,-0.38975832,78.0
230,0.45335293,0.046188354,-0.8101654,-0.79226077,-0.5214478,-0.46834716,78.0
231,0.4426751,-0.072509766,-0.7019882,-0.79226077,-0.5214478,-0.46834716,78.0
232,0.4426751,-0.072509766,-0.7019882,-0.8687256,-0.61065674,-0.5543701,78.0
233,0.4308982,-0.26531982,-0.542984,-0.8687256,-0.61065674,-0.5543701,78.0
234,0.4308982,-0.26531982,-0.542984,-0.8400513,-0.6988037,-0.6605713,78.0
235,0.4736247,-0.50632477,-0.29988098,-0.8400513,-0.6988037,-0.6605713,78.0
236,0.4736247,-0.50632477,-0.29988098,-0.7688965,-0.7593384,-0.76464844,78.0
237,0.60059166,-0.6893158,-0.06259918,-0.7688965,-0.7593384,-0.76464844,78.0
238,0.60059166,-0.6893158,-0.06259918,-0.7455322,-0.7604004,-0.7954468,78.0
239,0.73279285,-0.683197,-0.031375885,-0.7455322,-0.7604004,-0.7954468,78.0
240,0.73279285,-0.683197,-0.031375885,-0.7688965,-0.7858887,-0.77951664,78.0
241,0.80701065,-0.45619965,-0.31832886,-0.7688965,-0.7858887,-0.77951664,78.0
242,0.80701065,-0.45619965,-0.31832886,-0.8878418,-0.79013675,-0.7965088,78.0
243,0.8296294,-0.2501526,-0.6681633,-0.8878418,-0.79013675,-0.7965088,78.0
244,0.8296294,-0.2501526,-0.6681633,-1.0747559,-0.79013675,-0.8209351,78.0
245,0.7886305,-0.21631622,-0.8428345,-1.0747559,-0.79013675,-0.8209351,78.0
246,0.7886305,-0.21631622,-0.8428345,-1.2531738,-0.8315552,-0.89421386,78.0
247,0.7238364,-0.18299866,-0.94096756,-1.2531738,-0.8315552,-0.89421386,78.0
248,0.7238364,-0.18299866,-0.94096756,-1.447522,-0.8612915,-1.0205933,78.0
249,0.7115278,-0.028709412,-1.1392365,-1.447522,-0.8612915,-1.0205933,78.0
250,0.7115278,-0.028709412,-1.1392365,-1.6992188,-0.8581055,-1.1437867,78.0
251,0.80743027,0.1559372,-1.5085182,-1.6992188,-0.8581055,-1.1437867,78.0
252,0.80743027,0.1559372,-1.5085182,-1.9817139,-0.8973999,-1.2935303,78.0
253,1.0326262,0.24877167,-1.9609909,-1.9817139,-0.8973999,-1.2935303,78.0
254,1.0326262,0.24877167,-1.9609909,-2.3130615,-0.8612915,-1.4910644,78.0
255,1.259829,0.074142456,-2.2422066,-2.3130615,-0.8612915,-1.4910644,78.0
256,1.259829,0.074142456,-2.2422066,-2.6104248,-0.85598147,-1.6025757,78.0
257,1.4284806,-0.37193298,-2.2389908,-2.6104248,-0.85598147,-1.6025757,78.0
258,1.4284806,-0.37193298,-2.2389908,-2.5849366,-0.92076415,-1.7268311,78.0
259,1.5172229,-0.66893005,-2.118,-2.5849366,-0.92076415,-1.7268311,78.0
260,1.5172229,-0.66893005,-2.118,-2.3003175,-1.0471436,-1.7586914,78.0
261,1.500546,-0.59332275,-1.9539452,-2.3003175,-1.0471436,-1.7586914,78.0
262,1.500546,-0.59332275,-1.9539452,-1.8245362,-1.1034302,-1.7034668,78.0
263,1.4109592,-0.37095642,-1.7784767,-1.8245362,-1.1034302,-1.7034668,78.0
264,1.4109592,-0.37095642,-1.7784767,-1.3668091,-1.2425537,-1.6439942,78.0
265,1.3704545,-0.17815399,-1.659523,-1.3668091,-1.2425537,-1.6439942,78.0
266,1.3704545,-0.17815399,-1.659523,-1.1469727,-1.3158325,-1.6578003,78.0
267,1.5745742,-0.10202026,-1.4974937,-1.1469727,-1.3158325,-1.6578003,78.0
268,1.5745742,-0.10202026,-1.4974937,-1.1066163,-1.3052124,-1.7140869,78.0
269,1.9615395,-0.09551239,-1.2777443,-1.1066163,-1.3052124,-1.7140869,78.0
270,1.9615395,-0.09551239,-1.2777443,-1.2181275,-1.3307008,-1.7714356,78.0
271,2.248724,0.07355499,-1.199955,-1.2181275,-1.3307008,-1.7714356,78.0
272,2.248724,0.07355499,-1.199955,-1.4931885,-1.3137085,-1.8457764,78.0
273,2.2563643,0.5393677,-1.4448738,-1.4931885,-1.3137085,-1.8457764,78.0
274,2.2563643,0.5393677,-1.4448738,-2.1102173,-1.2223755,-1.8914429,78.0
275,2.0174694,1.1526337,-1.9340973,-2.1102173,-1.2223755,-1.8914429,78.0
276,2.0174694,1.1526337,-1.9340973,-2.7060058,-1.0089111,-1.8914429,78.0
277,1.580504,1.6620483,-2.3405762,-2.7060058,-1.0089111,-1.8914429,78.0
278,1.580504,1.6620483,-2.3405762,-3.153113,-0.9589966,-1.8606446,78.0
279,1.1642444,1.979187,-2.569481,-3.153113,-0.9589966,-1.8606446,78.0
280,1.1642444,1.979187,-2.569481,-3.451538,-0.8602295,-1.8659546,78.0
281,0.9791617,2.2996445,-2.7835503,-3.451538,-0.8602295,-1.8659546,78.0
282,0.9791617,2.2996445,-2.7835503,-4.2119384,-0.56817627,-1.7342652,78.0
283,0.92395437,2.4027328,-2.9040756,-4.2119384,-0.56817627,-1.7342652,78.0
284,0.92395437,2.4027328,-2.9040756,-4.640991,-0.26975098,-1.6620483,78.0
285,0.932413,1.9951324,-2.806034,-4.640991,-0.26975098,-1.6620483,78.0
286,0.932413,1.9951324,-2.806034,-4.4636354,-0.29311523,-1.6843506,78.0
287,0.8710769,1.70607,-2.4541397,-4.4636354,-0.29311523,-1.6843506,78.0
288,0.8710769,1.70607,-2.4541397,-4.3022094,-0.21346436,-1.4984986,78.0
289,0.7455797,1.8576279,-1.9922409,-4.3022094,-0.21346436,-1.4984986,78.0
290,0.7455797,1.8576279,-1.9922409,-4.422217,0.0541626,-1.5271729,78.0
291,0.6880653,1.8571472,-1.6285934,-4.422217,0.0541626,-1.5271729,78.0
292,0.6880653,1.8571472,-1.6285934,-3.4557862,0.09451904,-1.2085694,78.0
293,0.4935919,1.6833496,-1.4774475,-3.4557862,0.09451904,-1.2085694,78.0
294,0.4935919,1.6833496,-1.4774475,-2.440503,0.0053100586,-1.1151123,78.0
295,0.21401417,1.6006012,-1.5357914,-2.440503,0.0053100586,-1.1151123,78.0
296,0.21401417,1.6006012,-1.5357914,-1.2298096,-0.06265869,-0.8400513,78.0
297,0.04850626,1.5545883,-1.6519966,-1.2298096,-0.06265869,-0.8400513,78.0
298,0.04850626,1.5545883,-1.6519966,-0.13062744,-0.07752686,-0.7582764,78.0
299,-0.08812368,1.6101379,-1.5899086,-0.13062744,-0.07752686,-0.7582764,78.0
300,-0.08812368,1.6101379,-1.5899086,0.3706421,-0.029736329,-0.60216063,78.0
301,-0.17705417,1.7211761,-1.2824116,0.3706421,-0.029736329,-0.60216063,78.0
302,-0.17705417,1.7211761,-1.2824116,0.540564,0.0063720704,-0.44923097,78.0
303,-0.14709997,1.5035782,-0.975441,0.540564,0.0063720704,-0.44923097,78.0
304,-0.14709997,1.5035782,-0.975441,0.6074707,0.013806152,-0.3812622,78.0
305,-0.0044475794,1.6247101,-0.52163696,0.6074707,0.013806152,-0.3812622,78.0
306,-0.0044475794,1.6247101,-0.52163696,0.5129517,0.081774905,-0.24957275,78.0
307,0.031683683,1.3403702,-0.34482384,0.5129517,0.081774905,-0.24957275,78.0
308,0.031683683,1.3403702,-0.34482384,0.45560303,0.08496094,-0.1985962,78.0
309,0.009770751,1.2268372,-0.21014977,0.45560303,0.08496094,-0.1985962,78.0
310,0.009770751,1.2268372,-0.21014977,0.45560303,0.08496094,-0.1985962,79.0
311,0.009770751,1.2268372,-0.21014977,0.4704712,0.04141846,-0.0541626,79.0
312,-0.001668334,0.9659805,-0.19733047,0.4704712,0.04141846,-0.0541626,79.0
313,-0.001668334,0.9659805,-0.19733047,0.45454103,0.035046387,-0.021240234,79.0
314,0.020088673,0.8408737,-0.28177643,0.45454103,0.035046387,-0.021240234,79.0
315,0.020088673,0.8408737,-0.28177643,0.3345337,0.012744141,0.029736329,79.0
316,0.038360953,0.6427765,-0.2530098,0.3345337,0.012744141,0.029736329,79.0
317,0.038360953,0.6427765,-0.2530098,0.2803711,0.016992187,0.043542482,79.0
318,0.052368402,0.48155212,-0.15703583,0.2803711,0.016992187,0.043542482,79.0
319,0.052368402,0.48155212,-0.15703583,0.21558838,0.04141846,0.057348635,79.0
320,0.04130876,0.3679428,-0.06859779,0.21558838,0.04141846,0.057348635,79.0
321,0.04130876,0.3679428,-0.06859779,0.20072022,0.04248047,0.06159668,79.0
322,0.055446863,0.37272644,0.21257782,0.20072022,0.04248047,0.06159668,79.0
323,0.055446863,0.37272644,0.21257782,-0.020178223,0.13912354,0.059472658,79.0
324,0.069967866,0.35406494,0.23042488,-0.020178223,0.13912354,0.059472658,79.0
325,0.069967866,0.35406494,0.23042488,-0.14337158,0.18479005,0.057348635,79.0
326,0.055376053,0.38545227,0.22573471,-0.14337158,0.18479005,0.057348635,79.0
327,0.055376053,0.38545227,0.22573471,-0.52888185,0.32816163,0.0541626,79.0
328,0.10736239,0.4229126,0.15110779,-0.52888185,0.32816163,0.0541626,79.0
329,0.10736239,0.4229126,0.15110779,-0.71154785,0.32391357,0.07115479,79.0
330,0.5468885,0.4291153,-0.068639755,-0.71154785,0.32391357,0.07115479,79.0
331,0.5468885,0.4291153,-0.068639755,-1.1841431,0.4619751,0.1274414,79.0
332,0.81583107,0.46531677,-0.0961113,-1.1841431,0.4619751,0.1274414,79.0
333,0.81583107,0.46531677,-0.0961113,-1.2977784,0.49383545,0.15080567,79.0
334,1.8543615,0.32444763,-0.023641586,-1.2977784,0.49383545,0.15080567,79.0
335,1.8543615,0.32444763,-0.023641586,-1.2956543,0.46622315,0.3058594,79.0
336,1.7505426,0.42907715,0.0422554,-1.2956543,0.46622315,0.3058594,79.0
337,1.7505426,0.42907715,0.0422554,-1.2223755,0.4354248,0.38338622,79.0
338,1.0474434,0.5822525,0.15747452,-1.2223755,0.4354248,0.38338622,79.0
339,1.0474434,0.5822525,0.15747452,-0.7455322,0.25700685,0.59047854,79.0
340,-0.43266296,0.7000427,0.30207825,-0.7455322,0.25700685,0.59047854,79.0
341,-0.43266296,0.7000427,0.30207825,-0.007434082,-0.028674318,0.74871826,79.0
342,-1.4883423,0.6742325,0.35456657,-0.007434082,-0.028674318,0.74871826,79.0
343,-1.4883423,0.6742325,0.35456657,0.5883545,-0.2081543,0.75296634,79.0
344,-1.43385,0.5473709,0.29556656,0.5883545,-0.2081543,0.75296634,79.0
345,-1.43385,0.5473709,0.29556656,0.9494385,-0.23045655,0.77739257,79.0
346,-0.20887208,0.23886108,0.35296822,0.9494385,-0.23045655,0.77739257,79.0
347,-0.20887208,0.23886108,0.35296822,1.5080566,-0.19222413,0.77526855,79.0
348,0.19536567,-0.11702728,0.35623932,1.5080566,-0.19222413,0.77526855,79.0
349,0.19536567,-0.11702728,0.35623932,1.7427613,-0.2782471,0.7434082,79.0
350,0.8665221,0.04950714,0.4003849,1.7427613,-0.2782471,0.7434082,79.0
351,0.8665221,0.04950714,0.4003849,1.2744141,-0.098767094,0.68074954,79.0
352,0.70613265,0.16091919,0.31166458,1.2744141,-0.098767094,0.68074954,79.0
353,0.70613265,0.16091919,0.31166458,0.9866089,-0.045666505,0.68924564,79.0
354,0.34677863,0.457901,0.26932716,0.9866089,-0.045666505,0.68924564,79.0
355,0.34677863,0.457901,0.26932716,0.33028564,0.04460449,0.61065674,79.0
356,0.017889261,0.35583496,0.28806877,0.33028564,0.04460449,0.61065674,79.0
357,0.017889261,0.35583496,0.28806877,-0.19434814,0.083898924,0.51932377,79.0
358,-0.27802253,0.06211853,0.32601166,-0.19434814,0.083898924,0.51932377,79.0
359,-0.27802253,0.06211853,0.32601166,-0.43117675,0.09133301,0.35683593,79.0
360,-0.7098203,-0.11075592,0.34927368,-0.43117675,0.09133301,0.35683593,79.0
361,-0.7098203,-0.11075592,0.34927368,-0.47896728,0.08920898,0.20603028,79.0
362,-1.0807347,-0.05632019,0.27289963,-0.47896728,0.08920898,0.20603028,79.0
363,-1.0807347,-0.05632019,0.27289963,-0.4609131,0.13912354,0.09451904,79.0
364,-1.1110233,0.16892242,0.08310318,-0.4609131,0.13912354,0.09451904,79.0
365,-1.1110233,0.16892242,0.08310318,-0.5671143,0.23258057,0.025488282,79.0
366,-0.79879177,0.3455963,-0.066185,-0.5671143,0.23258057,0.025488282,79.0
367,-0.79879177,0.3455963,-0.066185,-0.7327881,0.3695801,0.028674318,79.0
368,-0.39052272,0.3176117,-0.05793953,-0.7327881,0.3695801,0.028674318,79.0
369,-0.39052272,0.3176117,-0.05793953,-1.0216553,0.39294434,-0.16885987,79.0
370,-0.04444945,0.11972809,0.1459961,-1.0216553,0.39294434,-0.16885987,79.0
371,-0.04444945,0.11972809,0.1459961,-1.1809571,0.45347902,-0.2824951,79.0
372,0.15541947,-0.07119751,0.3807373,-1.1809571,0.45347902,-0.2824951,79.0
373,0.15541947,-0.07119751,0.3807373,-1.1968873,0.5479981,-0.42161867,79.0
374,0.12741184,-0.116004944,0.49736214,-1.1968873,0.5479981,-0.42161867,79.0
375,0.12741184,-0.116004944,0.49736214,-1.088562,0.7041138,-0.34090576,79.0
376,-0.009654999,0.062576294,0.439003,-1.088562,0.7041138,-0.34090576,79.0
377,-0.009654999,0.062576294,0.439003,-1.0673218,0.81987303,-0.24320069,79.0
378,-0.047177196,0.23384857,0.1991272,-1.0673218,0.81987303,-0.24320069,79.0
379,-0.047177196,0.23384857,0.1991272,-0.8581055,0.7954468,-0.23682861,79.0
380,0.1670556,0.17666626,-0.03306961,-0.8581055,0.7954468,-0.23682861,79.0
381,0.1670556,0.17666626,-0.03306961,-0.5851685,0.6796875,-0.4088745,79.0
382,0.4761616,-0.018371582,0.028366089,-0.5851685,0.6796875,-0.4088745,79.0
383,0.4761616,-0.018371582,0.028366089,-0.5363159,0.5968506,-0.5607422,79.0
384,0.7630217,-0.101623535,0.26552773,-0.5363159,0.5968506,-0.5607422,79.0
385,0.7630217,-0.101623535,0.26552773,-0.6595093,0.38975832,-0.83898926,79.0
386,1.0855393,-0.037132263,0.3592968,-0.6595093,0.38975832,-0.83898926,79.0
387,1.0855393,-0.037132263,0.3592968,-0.5915405,0.35895997,-0.9515625,79.0
388,1.1097767,0.14124298,0.2994728,-0.5915405,0.35895997,-0.9515625,79.0
389,1.1097767,0.14124298,0.2994728,-0.7051758,0.33028564,-0.9674927,79.0
390,0.7949991,0.3955536,0.15110207,-0.7051758,0.33028564,-0.9674927,79.0
391,0.7949991,0.3955536,0.15110207,-0.8028809,0.3536499,-0.8889038,79.0
392,0.39598465,0.5997162,0.0055503845,-0.8028809,0.3536499,-0.8889038,79.0
393,0.39598465,0.5997162,0.0055503845,-0.74447024,0.27612305,-0.74659425,79.0
394,0.3463652,0.74827576,-0.068216324,-0.74447024,0.27612305,-0.74659425,79.0
395,0.3463652,0.74827576,-0.068216324,-0.74447024,0.2782471,-0.60109866,79.0
396,1.2027392,0.71549225,-0.10454941,-0.74447024,0.2782471,-0.60109866,79.0
397,1.2027392,0.71549225,-0.10454941,-0.6860596,0.20603028,-0.5363159,79.0
398,2.233395,0.46884155,-0.18439674,-0.6860596,0.20603028,-0.5363159,79.0
399,2.233395,0.46884155,-0.18439674,-0.5331299,0.053100586,-0.3345337,79.0
400,1.6934786,0.4979477,-0.38311386,-0.5331299,0.053100586,-0.3345337,79.0
401,1.6934786,0.4979477,-0.38311386,-0.5299439,-0.043542482,-0.04141846,79.0
402,-0.036403656,0.962204,-0.7107773,-0.5299439,-0.043542482,-0.04141846,79.0
403,-0.036403656,0.962204,-0.7107773,-0.60322267,-0.083898924,0.23045655,79.0
404,-0.98805857,1.3863297,-0.9578438,-0.60322267,-0.083898924,0.23045655,79.0
405,-0.98805857,1.3863297,-0.9578438,-0.5766724,-0.1444336,0.4163086,79.0
406,-0.5917897,1.3430939,-0.8327179,-0.5766724,-0.1444336,0.4163086,79.0
407,-0.5917897,1.3430939,-0.8327179,-0.4354248,-0.19647217,0.46728516,79.0
408,0.22156334,0.94773865,-0.415905,-0.4354248,-0.19647217,0.46728516,79.0
409,0.22156334,0.94773865,-0.415905,-0.29311523,-0.20603028,0.5065796,79.0
410,0.6287644,0.49128723,-0.08389664,-0.29311523,-0.20603028,0.5065796,79.0
411,0.6287644,0.49128723,-0.08389664,-0.14124756,-0.29099122,0.50233155,79.0
412,0.5969448,0.22776031,-0.12474632,-0.14124756,-0.29099122,0.50233155,79.0
413,0.5969448,0.22776031,-0.12474632,-0.09770508,-0.21027832,0.4056885,79.0
414,0.5969448,0.22776031,-0.12474632,-0.09770508,-0.21027832,0.4056885,80.0
415,0.1351366,0.25948334,-0.32628632,-0.09770508,-0.21027832,0.4056885,80.0
416,0.1351366,0.25948334,-0.32628632,-0.1731079,-0.23364258,0.3175415,80.0
417,-0.65190053,0.43236542,-0.3736992,-0.1731079,-0.23364258,0.3175415,80.0
418,-0.65190053,0.43236542,-0.3736992,-0.1529297,-0.32922363,0.21346436,80.0
419,-1.2948725,0.59054565,-0.20169258,-0.1529297,-0.32922363,0.21346436,80.0
420,-1.2948725,0.59054565,-0.20169258,-0.14549561,-0.25806886,0.17416993,80.0
421,-1.7110689,0.6174469,0.14245415,-0.14549561,-0.25806886,0.17416993,80.0
422,-1.7110689,0.6174469,0.14245415,-0.045666505,-0.37701416,0.17735596,80.0
423,-1.8583205,0.435318,0.4413929,-0.045666505,-0.37701416,0.17735596,80.0
424,-1.8583205,0.435318,0.4413929,0.14868164,-0.36533204,0.20072022,80.0
425,-1.6708727,0.1625824,0.5001354,0.14868164,-0.36533204,0.20072022,80.0
426,-1.6708727,0.1625824,0.5001354,0.30161133,-0.3175415,0.22514649,80.0
427,-1.2201698,-0.07587433,0.35396576,0.30161133,-0.3175415,0.22514649,80.0
428,-1.2201698,-0.07587433,0.35396576,0.50445557,-0.28461915,0.23151855,80.0
429,-0.60024464,-0.2188263,0.12767792,0.50445557,-0.28461915,0.23151855,80.0
430,-0.60024464,-0.2188263,0.12767792,0.61702883,-0.22089843,0.20603028,80.0
431,0.061918616,-0.27358246,-0.052789688,0.61702883,-0.22089843,0.20603028,80.0
432,0.061918616,-0.27358246,-0.052789688,0.630835,-0.14655761,0.18903808,80.0
433,0.65090203,-0.3037796,-0.12622833,0.630835,-0.14655761,0.18903808,80.0
434,0.65090203,-0.3037796,-0.12622833,0.542688,-0.057348635,0.12213135,80.0
435,1.0344789,-0.31861877,-0.08047485,0.542688,-0.057348635,0.12213135,80.0
436,1.0344789,-0.31861877,-0.08047485,0.3982544,0.014868164,0.057348635,80.0
437,1.0977125,-0.25095367,0.03951454,0.3982544,0.014868164,0.057348635,80.0
438,1.0977125,-0.25095367,0.03951454,0.17629395,0.07965088,-0.025488282,80.0
439,0.98571396,-0.07813263,0.21352005,0.17629395,0.07965088,-0.025488282,80.0
440,0.98571396,-0.07813263,0.21352005,-0.34727785,0.2793091,-0.090270996,80.0
441,0.9163542,0.0391922,0.42059708,-0.34727785,0.2793091,-0.090270996,80.0
442,0.9163542,0.0391922,0.42059708,-0.7784546,0.36427003,-0.14230958,80.0
443,0.8499291,-0.0048294067,0.5714512,-0.7784546,0.36427003,-0.14230958,80.0
444,0.8499291,-0.0048294067,0.5714512,-1.0779419,0.40250245,-0.22727051,80.0
445,0.59031916,-1.9836426E-4,0.58741,-1.0779419,0.40250245,-0.22727051,80.0
446,0.59031916,-1.9836426E-4,0.58741,-1.3147706,0.42692873,-0.27612305,80.0
447,0.17293882,0.1504898,0.50333977,-1.3147706,0.42692873,-0.27612305,80.0
448,0.17293882,0.1504898,0.50333977,-1.4984986,0.46516114,-0.3079834,80.0
449,-0.0824008,0.31385803,0.3438835,-1.4984986,0.46516114,-0.3079834,80.0
450,-0.0824008,0.31385803,0.3438835,-1.4921265,0.53950197,-0.3164795,80.0
451,0.23072243,0.32685852,0.14808083,-1.4921265,0.53950197,-0.3164795,80.0
452,0.23072243,0.32685852,0.14808083,-1.3370727,0.60959476,-0.4163086,80.0
453,1.1810989,0.16031647,-0.031583786,-1.3370727,0.60959476,-0.4163086,80.0
454,1.1810989,0.16031647,-0.031583786,-1.1076783,0.5564942,-0.56817627,80.0
455,1.529181,0.15381622,-0.15143776,-1.1076783,0.5564942,-0.56817627,80.0
456,1.529181,0.15381622,-0.15143776,-1.0598878,0.56180423,-0.67437744,80.0
457,0.44877195,0.43824768,-0.16693878,-1.0598878,0.56180423,-0.67437744,80.0
458,0.44877195,0.43824768,-0.16693878,-1.1204224,0.55755615,-0.7104859,80.0
459,-0.72606564,0.6640625,-0.07948685,-1.1204224,0.55755615,-0.7104859,80.0
460,-0.72606564,0.6640625,-0.07948685,-0.87615967,0.42161867,-0.55755615,80.0
461,-0.87760544,0.6761322,0.17395973,-0.87615967,0.42161867,-0.55755615,80.0
462,-0.87760544,0.6761322,0.17395973,-0.5915405,0.33028564,-0.4598511,80.0
463,-0.36861277,0.62117004,0.54037666,-0.5915405,0.33028564,-0.4598511,80.0
464,-0.36861277,0.62117004,0.54037666,-0.5734863,0.2888672,-0.35789797,80.0
465,0.28063488,0.52227783,0.7614651,-0.5734863,0.2888672,-0.35789797,80.0
466,0.28063488,0.52227783,0.7614651,-0.48746338,0.22089843,-0.25700685,80.0
467,0.6575279,0.49634552,0.64783096,-0.48746338,0.22089843,-0.25700685,80.0
468,0.6575279,0.49634552,0.64783096,-0.64782715,0.1178833,-0.21452637,80.0
469,0.37085867,0.7762604,0.33468246,-0.64782715,0.1178833,-0.21452637,80.0
470,0.37085867,0.7762604,0.33468246,-1.1448487,0.07434082,-0.11469727,80.0
471,-0.42017102,1.1417618,0.10829735,-1.1448487,0.07434082,-0.11469727,80.0
472,-0.42017102,1.1417618,0.10829735,-1.536731,-0.05522461,0.09133301,80.0
473,-1.1906533,1.171135,0.14678192,-1.536731,-0.05522461,0.09133301,80.0
474,-1.1906533,1.171135,0.14678192,-1.5685914,-0.1709839,0.22408448,80.0
475,-1.5487874,0.84052277,0.3833313,-1.5685914,-0.1709839,0.22408448,80.0
476,-1.5487874,0.84052277,0.3833313,-1.2106934,-0.2899292,0.21877442,80.0
477,-1.3943887,0.4770813,0.6453743,-1.2106934,-0.2899292,0.21877442,80.0
478,-1.3943887,0.4770813,0.6453743,-0.8092529,-0.43861085,0.20178223,80.0
479,-0.8254962,0.28575134,0.75086975,-0.8092529,-0.43861085,0.20178223,80.0
480,-0.8254962,0.28575134,0.75086975,-0.45772704,-0.4343628,0.057348635,80.0
481,-0.20223045,0.19934845,0.6783829,-0.45772704,-0.4343628,0.057348635,80.0
482,-0.20223045,0.19934845,0.6783829,-0.18372802,-0.36108398,-0.04248047,80.0
483,0.07141876,0.111213684,0.53030396,-0.18372802,-0.36108398,-0.04248047,80.0
484,0.07141876,0.111213684,0.53030396,0.0180542,-0.23045655,-0.19753419,80.0
485,-0.08629751,0.022125244,0.33569336,0.0180542,-0.23045655,-0.19753419,80.0
486,-0.08629751,0.022125244,0.33569336,0.04248047,-0.0010620117,-0.2623169,80.0
487,-0.45142317,-0.016906738,0.1155777,0.04248047,-0.0010620117,-0.2623169,80.0
488,-0.45142317,-0.016906738,0.1155777,-0.29417726,0.24744873,-0.28568116,80.0
489,-0.6389828,0.014305115,-0.10676956,-0.29417726,0.24744873,-0.28568116,80.0
490,-0.6389828,0.014305115,-0.10676956,-0.6924316,0.45347902,-0.2824951,80.0
491,-0.47097635,0.061080933,-0.26333237,-0.6924316,0.45347902,-0.2824951,80.0
492,-0.47097635,0.061080933,-0.26333237,-0.67437744,0.542688,-0.36533204,80.0
493,-0.18633914,-0.098838806,-0.30381775,-0.67437744,0.542688,-0.36533204,80.0
494,-0.18633914,-0.098838806,-0.30381775,0.60216063,0.25594482,-0.31966552,80.0
495,0.14702249,-0.2820511,-0.18626785,0.60216063,0.25594482,-0.31966552,80.0
496,0.14702249,-0.2820511,-0.18626785,0.88996583,0.18479005,-0.4078125,80.0
497,0.6133456,-0.09817505,-0.046512604,0.88996583,0.18479005,-0.4078125,80.0
498,0.6133456,-0.09817505,-0.046512604,0.5766724,0.3440918,-0.23789063,80.0
499,0.95155287,-0.012718201,-0.06528473,0.5766724,0.3440918,-0.23789063,80.0
500,0.95155287,-0.012718201,-0.06528473,0.813501,0.25063476,-0.016992187,80.0
501,1.5338621,-0.33668518,0.0414505,0.813501,0.25063476,-0.016992187,80.0
502,1.5338621,-0.33668518,0.0414505,0.817749,0.0063720704,-0.038232423,80.0
503,2.7064722,-0.63669586,0.07985306,0.817749,0.0063720704,-0.038232423,80.0
504,2.7064722,-0.63669586,0.07985306,1.174585,-0.19222413,0.07646485,80.0
505,2.859807,-0.42817688,-0.28533554,1.174585,-0.19222413,0.07646485,80.0
506,2.859807,-0.42817688,-0.28533554,1.4528321,-0.19434814,0.3971924,80.0
507,1.270597,0.21858215,-0.78819275,1.4528321,-0.19434814,0.3971924,80.0
508,1.270597,0.21858215,-0.78819275,1.350879,-0.24638672,0.5915405,80.0
509,-0.086354256,0.65065,-1.1236572,1.350879,-0.24638672,0.5915405,80.0
510,-0.086354256,0.65065,-1.1236572,1.1501588,-0.2623169,0.91014403,80.0
511,-0.19621944,0.47369385,-1.1040039,1.1501588,-0.2623169,0.91014403,80.0
512,-0.19621944,0.47369385,-1.1040039,1.3657471,-0.37807617,0.9685547,80.0
513,0.112397194,-0.09703827,-0.82497597,1.3657471,-0.37807617,0.9685547,80.0
514,0.112397194,-0.09703827,-0.82497597,1.6758546,-0.42692873,0.89208984,80.0
515,0.112397194,-0.09703827,-0.82497597,1.6758546,-0.42692873,0.89208984,81.0
516,0.2255621,-0.5827942,-0.59693146,1.6758546,-0.42692873,0.89208984,81.0
517,0.2255621,-0.5827942,-0.59693146,1.6801026,-0.4630371,0.8219971,81.0
518,0.14137506,-0.70804596,-0.64518356,1.6801026,-0.4630371,0.8219971,81.0
519,0.14137506,-0.70804596,-0.64518356,1.4581422,-0.40250245,0.74871826,81.0
520,-0.36872387,-0.44561005,-0.79039,1.4581422,-0.40250245,0.74871826,81.0
521,-0.36872387,-0.44561005,-0.79039,1.0503296,-0.3812622,0.6552612,81.0
522,-1.2672572,-0.023422241,-0.78591347,1.0503296,-0.3812622,0.6552612,81.0
523,-1.2672572,-0.023422241,-0.78591347,0.59047854,-0.38763428,0.58623046,81.0
524,-1.9759638,0.23124695,-0.5253258,0.59047854,-0.38763428,0.58623046,81.0
525,-1.9759638,0.23124695,-0.5253258,0.19222413,-0.32709962,0.62552494,81.0
526,-2.162436,0.07318115,-0.12240982,0.19222413,-0.32709962,0.62552494,81.0
527,-2.162436,0.07318115,-0.12240982,0.022302246,-0.34090576,0.5533081,81.0
528,-1.9195118,-0.34081268,0.16984558,0.022302246,-0.34090576,0.5533081,81.0
529,-1.9195118,-0.34081268,0.16984558,0.05628662,-0.35471192,0.5012695,81.0
530,-1.4304826,-0.6058426,0.19235992,0.05628662,-0.35471192,0.5012695,81.0
531,-1.4304826,-0.6058426,0.19235992,0.14761963,-0.2984253,0.40993652,81.0
532,-0.81775045,-0.57624817,0.01873207,0.14761963,-0.2984253,0.40993652,81.0
533,-0.81775045,-0.57624817,0.01873207,0.15611573,-0.22089843,0.36320803,81.0
534,-0.27829695,-0.37335968,-0.1273613,0.15611573,-0.22089843,0.36320803,81.0
535,-0.27829695,-0.37335968,-0.1273613,0.1083252,-0.15186767,0.3154175,81.0
536,0.024884462,-0.18242645,-0.086862564,0.1083252,-0.15186767,0.3154175,81.0
537,0.024884462,-0.18242645,-0.086862564,0.0031860352,-0.032922365,0.30267334,81.0
538,0.2586162,-0.0965271,0.13459778,0.0031860352,-0.032922365,0.30267334,81.0
539,0.2586162,-0.0965271,0.13459778,-0.23258057,0.20178223,0.23151855,81.0
540,0.6481161,-0.15171814,0.4477787,-0.23258057,0.20178223,0.23151855,81.0
541,0.6481161,-0.15171814,0.4477787,-0.5320679,0.40993652,0.18054199,81.0
542,1.16101,-0.34557343,0.6968689,-0.5320679,0.40993652,0.18054199,81.0
543,1.16101,-0.34557343,0.6968689,-0.72216797,0.48109132,0.035046387,81.0
544,1.4402461,-0.45845032,0.7702255,-0.72216797,0.48109132,0.035046387,81.0
545,1.4402461,-0.45845032,0.7702255,-0.9632446,0.5246338,-0.1263794,81.0
546,1.3801265,-0.30381775,0.68097687,-0.9632446,0.5246338,-0.1263794,81.0
547,1.3801265,-0.30381775,0.68097687,-1.2021973,0.59897465,-0.24851075,81.0
548,1.4329219,-0.27570343,0.47045326,-1.2021973,0.59897465,-0.24851075,81.0
549,1.4329219,-0.27570343,0.47045326,-0.99935305,0.51932377,-0.38444826,81.0
550,1.3623166,-0.38591766,0.30841827,-0.99935305,0.51932377,-0.38444826,81.0
551,1.3623166,-0.38591766,0.30841827,-0.5278198,0.37382814,-0.48640138,81.0
552,0.8393407,-0.25336456,0.3120041,-0.5278198,0.37382814,-0.48640138,81.0
553,0.8393407,-0.25336456,0.3120041,-0.31223145,0.3727661,-0.5065796,81.0
554,0.5289068,-0.023765564,0.4380436,-0.31223145,0.3727661,-0.5065796,81.0
555,0.5289068,-0.023765564,0.4380436,-0.11682129,0.33771974,-0.4694092,81.0
556,0.8005667,0.15441132,0.64936066,-0.11682129,0.33771974,-0.4694092,81.0
557,0.8005667,0.15441132,0.64936066,-0.29099122,0.38338622,-0.4056885,81.0
558,1.3224726,0.21743774,0.8345413,-0.29099122,0.38338622,-0.4056885,81.0
559,1.3224726,0.21743774,0.8345413,-0.540564,0.4078125,-0.35046387,81.0
560,1.4052067,0.18463135,0.7977371,-0.540564,0.4078125,-0.35046387,81.0
561,1.4052067,0.18463135,0.7977371,-0.78164065,0.3525879,-0.2888672,81.0
562,0.5327101,0.35131836,0.51394653,-0.78164065,0.3525879,-0.2888672,81.0
563,0.5327101,0.35131836,0.51394653,-1.2276856,0.32603762,-0.21452637,81.0
564,-0.86637354,0.71398926,0.1227417,-1.2276856,0.32603762,-0.21452637,81.0
565,-0.86637354,0.71398926,0.1227417,-1.5834595,0.33665773,-0.090270996,81.0
566,-1.9676714,0.8383026,-0.13580322,-1.5834595,0.33665773,-0.090270996,81.0
567,-1.9676714,0.8383026,-0.13580322,-1.5027466,0.26125488,-0.07115479,81.0
568,-2.2548137,0.56077576,-0.14944077,-1.5027466,0.26125488,-0.07115479,81.0
569,-2.2548137,0.56077576,-0.14944077,-1.1310425,0.18479005,-0.118945315,81.0
570,-1.8511043,0.23110199,-0.021568298,-1.1310425,0.18479005,-0.118945315,81.0
571,-1.8511043,0.23110199,-0.021568298,-0.8071289,0.16885987,-0.21134034,81.0
572,-1.4066281,0.10334015,0.11918259,-0.8071289,0.16885987,-0.21134034,81.0
573,-1.4066281,0.10334015,0.11918259,-0.63826907,0.18479005,-0.27293703,81.0
574,-1.297678,0.15325165,0.22907257,-0.63826907,0.18479005,-0.27293703,81.0
575,-1.297678,0.15325165,0.22907257,-0.49489745,0.21346436,-0.35683593,81.0
576,-1.3655472,0.28816223,0.29544067,-0.49489745,0.21346436,-0.35683593,81.0
577,-1.3655472,0.28816223,0.29544067,-0.32709962,0.22939454,-0.40993652,81.0
578,-1.3636415,0.3903427,0.33934402,-0.32709962,0.22939454,-0.40993652,81.0
579,-1.3636415,0.3903427,0.33934402,-0.08071289,0.18372802,-0.48533937,81.0
580,-1.2287796,0.3559494,0.348732,-0.08071289,0.18372802,-0.48533937,81.0
581,-1.2287796,0.3559494,0.348732,0.13381349,0.11682129,-0.52675784,81.0
582,-0.93487906,0.19956207,0.25940704,0.13381349,0.11682129,-0.52675784,81.0
583,-0.93487906,0.19956207,0.25940704,0.2803711,0.1178833,-0.5649902,81.0
584,-0.43246138,0.014595032,0.107307434,0.2803711,0.1178833,-0.5649902,81.0
585,-0.43246138,0.014595032,0.107307434,0.4725952,0.1359375,-0.61278075,81.0
586,0.24844003,-0.007637024,0.053081512,0.4725952,0.1359375,-0.61278075,81.0
587,0.24844003,-0.007637024,0.053081512,0.14230958,0.24107666,-0.6287109,81.0
588,0.7629976,0.093170166,0.02570343,0.14230958,0.24107666,-0.6287109,81.0
589,0.7629976,0.093170166,0.02570343,0.14868164,0.22833252,-0.41524658,81.0
590,1.2280252,-0.014511108,-0.024360657,0.14868164,0.22833252,-0.41524658,81.0
591,1.2280252,-0.014511108,-0.024360657,0.34940186,0.2527588,-0.362146,81.0
592,2.7328107,-0.39281464,-0.110954285,0.34940186,0.2527588,-0.362146,81.0
593,2.7328107,-0.39281464,-0.110954285,0.6467652,0.15505372,-0.2888672,81.0
594,4.5014467,-0.50263214,-0.34562302,0.6467652,0.15505372,-0.2888672,81.0
595,4.5014467,-0.50263214,-0.34562302,0.83898926,-0.07540283,0.014868164,81.0
596,4.101841,0.2441101,-0.68305206,0.83898926,-0.07540283,0.014868164,81.0
597,4.101841,0.2441101,-0.68305206,0.083898924,0.014868164,0.24107666,81.0
598,1.970438,1.0012436,-0.8238106,0.083898924,0.014868164,0.24107666,81.0
599,1.970438,1.0012436,-0.8238106,-0.40462646,-0.046728518,0.544812,81.0
600,0.61704874,0.7396393,-0.61925507,-0.40462646,-0.046728518,0.544812,81.0
601,0.61704874,0.7396393,-0.61925507,0.06478272,-0.3462158,0.6085327,81.0
602,0.5663562,0.040611267,-0.295269,0.06478272,-0.3462158,0.6085327,81.0
603,0.5663562,0.040611267,-0.295269,0.51082766,-0.4980835,0.5979126,81.0
604,0.5923548,-0.36172485,-0.10046005,0.51082766,-0.4980835,0.5979126,81.0
605,0.5923548,-0.36172485,-0.10046005,0.80606693,-0.5522461,0.50020754,81.0
606,0.030963898,-0.54844666,-0.20767593,0.80606693,-0.5522461,0.50020754,81.0
607,0.030963898,-0.54844666,-0.20767593,1.350879,-0.67225343,0.3802002,81.0
608,-0.97204256,-0.55120087,-0.5633335,1.350879,-0.67225343,0.3802002,81.0
609,-0.97204256,-0.55120087,-0.5633335,1.7523193,-0.6818115,0.2984253,81.0
610,-1.8579321,-0.20188904,-0.8492508,1.7523193,-0.6818115,0.2984253,81.0
611,-1.8579321,-0.20188904,-0.8492508,1.5940796,-0.632959,0.270813,81.0
612,-2.265716,0.20043945,-0.80524254,1.5940796,-0.632959,0.270813,81.0
613,-2.265716,0.20043945,-0.80524254,1.358313,-0.5883545,0.23895264,81.0
614,-2.296606,0.19194031,-0.45886612,1.358313,-0.5883545,0.23895264,81.0
615,-2.296606,0.19194031,-0.45886612,1.2287476,-0.50233155,0.26444092,81.0
616,-2.2149947,-0.10837555,-0.03473282,1.2287476,-0.50233155,0.26444092,81.0
617,-2.2149947,-0.10837555,-0.03473282,1.085376,-0.40250245,0.37382814,81.0
618,-2.1103625,-0.28765106,0.17515564,1.085376,-0.40250245,0.37382814,81.0
619,-2.1103625,-0.28765106,0.17515564,0.86341554,-0.31966552,0.52675784,81.0
620,-2.1103625,-0.28765106,0.17515564,0.86341554,-0.31966552,0.52675784,81.0
621,-1.9045012,-0.14537048,0.03201866,0.86341554,-0.31966552,0.52675784,81.0
622,-1.9045012,-0.14537048,0.03201866,0.58623046,-0.23682861,0.6552612,81.0
623,-1.5653977,0.13237,-0.26419067,0.58623046,-0.23682861,0.6552612,81.0
624,-1.5653977,0.13237,-0.26419067,0.29736328,-0.16779785,0.7072998,81.0
625,-1.0137684,0.2844925,-0.40157318,0.29736328,-0.16779785,0.7072998,81.0
626,-1.0137684,0.2844925,-0.40157318,-0.040356446,-0.08496094,0.72641605,81.0
627,-0.36394453,0.26986694,-0.25004196,-0.040356446,-0.08496094,0.72641605,81.0
628,-0.36394453,0.26986694,-0.25004196,-0.36851808,0.020178223,0.71579593,81.0
629,0.1862979,0.12398529,0.08431625,-0.36851808,0.020178223,0.71579593,81.0
630,0.1862979,0.12398529,0.08431625,-0.4428589,0.14124756,0.6425171,81.0
631,0.62680936,-0.11949158,0.40533066,-0.4428589,0.14124756,0.6425171,81.0
632,0.62680936,-0.11949158,0.40533066,-0.3971924,0.2516968,0.45560303,81.0
633,0.86293435,-0.24342346,0.5588722,-0.3971924,0.2516968,0.45560303,81.0
634,0.86293435,-0.24342346,0.5588722,-0.46516114,0.32391357,0.29523927,81.0
635,0.7366123,-0.19710541,0.50245667,-0.46516114,0.32391357,0.29523927,81.0
636,0.7366123,-0.19710541,0.50245667,-0.4895874,0.3993164,0.15611573,81.0
637,1.0340285,-0.19963837,0.27331543,-0.4895874,0.3993164,0.15611573,81.0
638,1.0340285,-0.19963837,0.27331543,-0.3706421,0.49489745,0.0031860352,81.0
639,2.5079355,-0.4387741,0.047912598,-0.3706421,0.49489745,0.0031860352,81.0
640,2.5079355,-0.4387741,0.047912598,-0.19541016,0.45772704,-0.21877442,81.0
641,4.0520763,-0.62553406,0.016662598,-0.19541016,0.45772704,-0.21877442,81.0
642,4.0520763,-0.62553406,0.016662598,-0.34940186,0.31116945,-0.5543701,81.0
643,3.935338,-0.58195496,0.09788704,-0.34940186,0.31116945,-0.5543701,81.0
644,3.935338,-0.58195496,0.09788704,-0.5320679,0.29736328,-0.7869507,81.0
645,2.1454997,-0.5514755,0.26229477,-0.5320679,0.29736328,-0.7869507,81.0
646,2.1454997,-0.5514755,0.26229477,-0.36427003,0.1985962,-0.86978763,81.0
647,0.43057203,-0.46342468,0.5479584,-0.36427003,0.1985962,-0.86978763,81.0
648,0.43057203,-0.46342468,0.5479584,-0.17523193,0.14337158,-0.8782837,81.0
649,-0.14801073,-0.31892395,0.8361435,-0.17523193,0.14337158,-0.8782837,81.0
650,-0.14801073,-0.31892395,0.8361435,-0.014868164,0.21983643,-0.8666016,81.0
651,-0.34512997,-0.2612915,0.9267998,-0.014868164,0.21983643,-0.8666016,81.0
652,-0.34512997,-0.2612915,0.9267998,0.13806152,0.16354981,-0.8464233,81.0
653,-0.98666286,-0.079940796,0.6118126,0.13806152,0.16354981,-0.8464233,81.0
654,-0.98666286,-0.079940796,0.6118126,0.06159668,0.14124756,-0.69986576,81.0
655,-1.9160757,0.3326416,0.02217865,0.06159668,0.14124756,-0.69986576,81.0
656,-1.9160757,0.3326416,0.02217865,-0.15611573,0.16354981,-0.5129517,81.0
657,-2.542602,0.7323227,-0.4349556,-0.15611573,0.16354981,-0.5129517,81.0
658,-2.542602,0.7323227,-0.4349556,-0.4959595,0.1996582,-0.40356445,81.0
659,-2.446362,0.73088837,-0.515007,-0.4959595,0.1996582,-0.40356445,81.0
660,-2.446362,0.73088837,-0.515007,-0.5915405,0.17947999,-0.37701416,81.0
661,-1.7277684,0.28990936,-0.26094437,-0.5915405,0.17947999,-0.37701416,81.0
662,-1.7277684,0.28990936,-0.26094437,-0.52675784,0.1178833,-0.44816896,81.0
663,-0.9394045,-0.16649628,0.090400696,-0.52675784,0.1178833,-0.44816896,81.0
664,-0.9394045,-0.16649628,0.090400696,-0.41843262,0.08496094,-0.5214478,81.0
665,-0.56552505,-0.37574005,0.3283615,-0.41843262,0.08496094,-0.5214478,81.0
666,-0.56552505,-0.37574005,0.3283615,-0.16461182,0.07540283,-0.60109866,81.0
667,-0.64060354,-0.39374542,0.38043594,-0.16461182,0.07540283,-0.60109866,81.0
668,-0.64060354,-0.39374542,0.38043594,0.25594482,0.032922365,-0.7126099,81.0
669,-0.83302736,-0.26423645,0.2766533,0.25594482,0.032922365,-0.7126099,81.0
670,-0.83302736,-0.26423645,0.2766533,0.40037844,0.059472658,-0.7784546,81.0
671,-0.9307041,-0.07385254,0.11748886,0.40037844,0.059472658,-0.7784546,81.0
672,-0.9307041,-0.07385254,0.11748886,0.39294434,0.087084964,-0.8007569,81.0
673,-0.85768604,0.023841858,0.0083351135,0.39294434,0.087084964,-0.8007569,81.0
674,-0.85768604,0.023841858,0.0083351135,0.35789797,0.09770508,-0.7975708,81.0
675,-0.5189493,0.04586029,-0.07196808,0.35789797,0.09770508,-0.7975708,81.0
676,-0.5189493,0.04586029,-0.07196808,0.24851075,0.10195313,-0.74022216,81.0
677,0.016566753,0.08596802,-0.18179321,0.24851075,0.10195313,-0.74022216,81.0
678,0.016566753,0.08596802,-0.18179321,0.027612304,0.0998291,-0.63614506,81.0
679,0.42425203,0.159935,-0.3177719,0.027612304,0.0998291,-0.63614506,81.0
680,0.42425203,0.159935,-0.3177719,-0.23364258,0.081774905,-0.4800293,81.0
681,0.453696,0.25719452,-0.41221237,-0.23364258,0.081774905,-0.4800293,81.0
682,0.453696,0.25719452,-0.41221237,-0.45878908,0.008496094,-0.2984253,81.0
683,0.33973885,0.31930542,-0.40054703,-0.45878908,0.008496094,-0.2984253,81.0
684,0.33973885,0.31930542,-0.40054703,-0.62340087,-0.03186035,-0.11469727,81.0
685,0.7946305,0.22078705,-0.2710228,-0.62340087,-0.03186035,-0.11469727,81.0
686,0.7946305,0.22078705,-0.2710228,-0.6064087,0.011682129,0.035046387,81.0
687,1.9691029,-0.08540344,-0.119125366,-0.6064087,0.011682129,0.035046387,81.0
688,1.9691029,-0.08540344,-0.119125366,-0.3451538,-0.16992188,0.20496826,81.0
689,2.477211,-0.07576752,-0.09932709,-0.3451538,-0.16992188,0.20496826,81.0
690,2.477211,-0.07576752,-0.09932709,-0.35046387,-0.21346436,0.4959595,81.0
691,1.6729188,0.42345428,-0.27734756,-0.35046387,-0.21346436,0.4959595,81.0
692,1.6729188,0.42345428,-0.27734756,-0.37595215,-0.26125488,0.7497803,81.0
693,0.9608083,0.711998,-0.5535183,-0.37595215,-0.26125488,0.7497803,81.0
694,0.9608083,0.711998,-0.5535183,-0.08071289,-0.34727785,0.89208984,81.0
695,1.0351872,0.52703094,-0.7128086,-0.08071289,-0.34727785,0.89208984,81.0
696,1.0351872,0.52703094,-0.7128086,0.16992188,-0.3971924,0.8623535,81.0
697,1.245264,0.22451782,-0.68507767,0.16992188,-0.3971924,0.8623535,81.0
698,1.245264,0.22451782,-0.68507767,0.22302246,-0.40462646,0.8294312,81.0
699,1.0711379,0.120910645,-0.6527481,0.22302246,-0.40462646,0.8294312,81.0
700,1.0711379,0.120910645,-0.6527481,0.18479005,-0.40144044,0.77314454,81.0
701,0.31682253,0.31380463,-0.6885071,0.18479005,-0.40144044,0.77314454,81.0
702,0.31682253,0.31380463,-0.6885071,0.13168946,-0.44710693,0.7041138,81.0
703,-0.84012127,0.60886383,-0.67647743,0.13168946,-0.44710693,0.7041138,81.0
704,-0.84012127,0.60886383,-0.67647743,0.21240234,-0.5957886,0.6085327,81.0
705,-1.8924217,0.71780396,-0.5432701,0.21240234,-0.5957886,0.6085327,81.0
706,-1.8924217,0.71780396,-0.5432701,0.3334717,-0.6966797,0.53950197,81.0
707,-2.487155,0.5960846,-0.27573013,0.3334717,-0.6966797,0.53950197,81.0
708,-2.487155,0.5960846,-0.27573013,0.55543214,-0.77526855,0.4800293,81.0
709,-2.5044212,0.27280426,0.042671204,0.55543214,-0.77526855,0.4800293,81.0
710,-2.5044212,0.27280426,0.042671204,0.8963379,-0.8464233,0.4248047,81.0
711,-1.9489229,-0.12944031,0.19032669,0.8963379,-0.8464233,0.4248047,81.0
712,-1.9489229,-0.12944031,0.19032669,1.1023682,-0.7614624,0.3154175,81.0
713,-1.1732373,-0.39014435,0.059303284,1.1023682,-0.7614624,0.3154175,81.0
714,-1.1732373,-0.39014435,0.059303284,1.1384766,-0.68712157,0.22302246,81.0
715,-0.60990334,-0.44571686,-0.22570229,1.1384766,-0.68712157,0.22302246,81.0
716,-0.60990334,-0.44571686,-0.22570229,1.0036011,-0.53737795,0.16142578,81.0
717,-0.34921408,-0.42119598,-0.43466187,1.0036011,-0.53737795,0.16142578,81.0
718,-0.34921408,-0.42119598,-0.43466187,0.9409424,-0.44073486,0.09664307,81.0
719,-0.1972425,-0.4521408,-0.40958214,0.9409424,-0.44073486,0.09664307,81.0
720,-0.1972425,-0.4521408,-0.40958214,0.8867798,-0.3154175,0.04248047,81.0
721,0.0036928654,-0.52207947,-0.20923233,0.8867798,-0.3154175,0.04248047,81.0
722,0.0036928654,-0.52207947,-0.20923233,0.7582764,-0.19222413,-0.019116212,81.0
723,0.16307402,-0.52211,0.0659523,0.7582764,-0.19222413,-0.019116212,81.0
724,0.16307402,-0.52211,0.0659523,0.4248047,-0.047790527,-0.10620117,81.0
725,0.20697284,-0.39328766,0.3360386,0.4248047,-0.047790527,-0.10620117,81.0
726,0.20697284,-0.39328766,0.3360386,-0.118945315,0.16673584,-0.13699952,81.0
727,0.18991923,-0.3119583,0.64076614,-0.118945315,0.16673584,-0.13699952,81.0
728,0.18991923,-0.3119583,0.64076614,-0.635083,0.34090576,-0.090270996,81.0
729,0.27636147,-0.33958435,0.94701195,-0.635083,0.34090576,-0.090270996,81.0
730,0.27636147,-0.33958435,0.94701195,-1.5250489,0.5586182,-0.30373535,81.0
731,0.51007843,-0.3160019,1.0721245,-1.5250489,0.5586182,-0.30373535,81.0
732,0.51007843,-0.3160019,1.0721245,-2.352356,0.78164065,-0.3982544,81.0
733,0.51007843,-0.3160019,1.0721245,-2.352356,0.78164065,-0.3982544,82.0
734,0.6106751,-0.22525787,0.9361305,-2.352356,0.78164065,-0.3982544,82.0
735,0.6106751,-0.22525787,0.9361305,-2.907788,0.9781128,-0.41843262,82.0
736,0.7507348,-0.26553345,0.6560707,-2.907788,0.9781128,-0.41843262,82.0
737,0.7507348,-0.26553345,0.6560707,-2.3810303,0.85385746,-0.2347046,82.0
738,1.168349,-0.6430435,0.3411293,-2.3810303,0.85385746,-0.2347046,82.0
739,1.168349,-0.6430435,0.3411293,-0.75296634,0.25700685,-0.23151855,82.0
740,1.3428578,-0.64813995,0.0064105988,-0.75296634,0.25700685,-0.23151855,82.0
741,1.3428578,-0.64813995,0.0064105988,0.28780517,0.10513916,-0.3154175,82.0
742,0.83936214,-0.055252075,-0.28406715,0.28780517,0.10513916,-0.3154175,82.0
743,0.83936214,-0.055252075,-0.28406715,0.724292,0.31435546,-0.10301514,82.0
744,0.28663874,0.3862381,-0.20727158,0.724292,0.31435546,-0.10301514,82.0
745,0.28663874,0.3862381,-0.20727158,0.6488892,0.32285157,0.14124756,82.0
746,0.37320757,0.47637177,0.16649437,0.6488892,0.32285157,0.14124756,82.0
747,0.37320757,0.47637177,0.16649437,0.7189819,0.27718505,0.270813,82.0
748,0.8388858,0.5144577,0.4428749,0.7189819,0.27718505,0.270813,82.0
749,0.8388858,0.5144577,0.4428749,0.57242435,0.20390625,0.40462646,82.0
750,1.0040674,0.6431351,0.44745255,0.57242435,0.20390625,0.40462646,82.0
751,1.0040674,0.6431351,0.44745255,0.12319336,0.12850343,0.46516114,82.0
752,0.5761299,0.75857544,0.22158432,0.12319336,0.12850343,0.46516114,82.0
753,0.5761299,0.75857544,0.22158432,-0.452417,0.118945315,0.4895874,82.0
754,-0.27762127,0.70261383,-0.055301666,-0.452417,0.118945315,0.4895874,82.0
755,-0.27762127,0.70261383,-0.055301666,-0.7147339,0.09239502,0.45666504,82.0
756,-1.1316919,0.48979187,-0.2576065,-0.7147339,0.09239502,0.45666504,82.0
757,-1.1316919,0.48979187,-0.2576065,-0.5883545,0.05628662,0.33878174,82.0
758,-1.4909492,0.1932602,-0.4017887,-0.5883545,0.05628662,0.33878174,82.0
759,-1.4909492,0.1932602,-0.4017887,-0.32709962,0.025488282,0.16461182,82.0
760,-1.2495341,-0.104019165,-0.46076202,-0.32709962,0.025488282,0.16461182,82.0
761,-1.2495341,-0.104019165,-0.46076202,-0.052038576,0.019116212,-0.04885254,82.0
762,-0.910162,-0.2732315,-0.31871986,-0.052038576,0.019116212,-0.04885254,82.0
763,-0.910162,-0.2732315,-0.31871986,0.13168946,0.03717041,-0.28461915,82.0
764,-0.96216273,-0.24845886,-0.019062042,0.13168946,0.03717041,-0.28461915,82.0
765,-0.96216273,-0.24845886,-0.019062042,0.27399904,0.022302246,-0.5171997,82.0
766,-1.2754188,-0.13543701,0.24687195,0.27399904,0.022302246,-0.5171997,82.0
767,-1.2754188,-0.13543701,0.24687195,0.35577393,0.0,-0.69136965,82.0
768,-1.4649518,-0.06967926,0.33403397,0.35577393,0.0,-0.69136965,82.0
769,-1.4649518,-0.06967926,0.33403397,0.36533204,-0.0010620117,-0.8092529,82.0
770,-1.3616343,-0.09086609,0.25842476,0.36533204,-0.0010620117,-0.8092529,82.0
771,-1.3616343,-0.09086609,0.25842476,0.30161133,0.0010620117,-0.8644776,82.0
772,-0.94185877,-0.15499115,0.10129547,0.30161133,0.0010620117,-0.8644776,82.0
773,-0.94185877,-0.15499115,0.10129547,0.22302246,0.004248047,-0.9165161,82.0
774,-0.2920246,-0.25071716,-0.06709671,0.22302246,0.004248047,-0.9165161,82.0
775,-0.2920246,-0.25071716,-0.06709671,0.25700685,0.0180542,-0.9228882,82.0
776,0.35474706,-0.34500885,-0.14339828,0.25700685,0.0180542,-0.9228882,82.0
777,0.35474706,-0.34500885,-0.14339828,0.35152587,-0.0021240234,-0.9345703,82.0
778,0.6469202,-0.41584015,-0.11585426,0.35152587,-0.0021240234,-0.9345703,82.0
779,0.6469202,-0.41584015,-0.11585426,0.3536499,0.0031860352,-0.9197022,82.0
780,0.46314168,-0.25891876,-0.07032013,0.3536499,0.0031860352,-0.9197022,82.0
781,0.46314168,-0.25891876,-0.07032013,-0.04885254,0.095581055,-0.72854006,82.0
782,0.33232975,-0.08747864,-0.005804062,-0.04885254,0.095581055,-0.72854006,82.0
783,0.33232975,-0.08747864,-0.005804062,-0.15930176,0.17735596,-0.41524658,82.0
784,1.3558173,-0.23596191,0.13525009,-0.15930176,0.17735596,-0.41524658,82.0
785,1.3558173,-0.23596191,0.13525009,0.08283692,-0.098767094,-0.24851075,82.0
786,3.2839704,-0.44254303,0.0484581,0.08283692,-0.098767094,-0.24851075,82.0
787,3.2839704,-0.44254303,0.0484581,0.92076415,-0.40462646,0.08602295,82.0
788,3.8475375,-0.02368927,-0.33711243,0.92076415,-0.40462646,0.08602295,82.0
789,3.8475375,-0.02368927,-0.33711243,0.7519043,-0.28674316,0.3451538,82.0
790,2.4388332,0.589592,-0.7061901,0.7519043,-0.28674316,0.3451538,82.0
791,2.4388332,0.589592,-0.7061901,0.6180908,-0.20178223,0.6223389,82.0
792,0.9717207,0.63534546,-0.81734467,0.6180908,-0.20178223,0.6223389,82.0
793,0.9717207,0.63534546,-0.81734467,0.9281983,-0.32603762,0.7327881,82.0
794,0.533236,0.3201294,-0.73241615,0.9281983,-0.32603762,0.7327881,82.0
795,0.533236,0.3201294,-0.73241615,1.2361816,-0.35895997,0.4991455,82.0
796,0.38701344,0.101364136,-0.545578,1.2361816,-0.35895997,0.4991455,82.0
797,0.38701344,0.101364136,-0.545578,1.4677002,-0.32603762,0.36533204,82.0
798,-0.4293542,0.09165192,-0.49089432,1.4677002,-0.32603762,0.36533204,82.0
799,-0.4293542,0.09165192,-0.49089432,1.1926392,-0.36533204,0.13912354,82.0
800,-2.03196,0.1282196,-0.6562538,1.1926392,-0.36533204,0.13912354,82.0
801,-2.03196,0.1282196,-0.6562538,1.2903442,-0.15186767,-0.19753419,82.0
802,-3.7535467,0.33380127,-0.7050686,1.2903442,-0.15186767,-0.19753419,82.0
803,-3.7535467,0.33380127,-0.7050686,1.0078491,-0.41843262,-0.17416993,82.0
804,-4.521343,0.6219406,-0.51179504,1.0078491,-0.41843262,-0.17416993,82.0
805,-4.521343,0.6219406,-0.51179504,0.71791995,-0.40993652,-0.24638672,82.0
806,-3.930637,0.4469757,-0.16716385,0.71791995,-0.40993652,-0.24638672,82.0
807,-3.930637,0.4469757,-0.16716385,0.75296634,-0.25806886,-0.26656494,82.0
808,-2.4061308,-0.26367188,0.16371727,0.75296634,-0.25806886,-0.26656494,82.0
809,-2.4061308,-0.26367188,0.16371727,0.96430665,-0.22514649,-0.2793091,82.0
810,-0.5785301,-0.7391205,0.21560478,0.96430665,-0.22514649,-0.2793091,82.0
811,-0.5785301,-0.7391205,0.21560478,0.7540283,-0.1083252,-0.20390625,82.0
812,0.8127253,-0.49692535,-0.07612419,0.7540283,-0.1083252,-0.20390625,82.0
813,0.8127253,-0.49692535,-0.07612419,0.13487549,0.035046387,-0.115759276,82.0
814,1.4689181,0.0044021606,-0.45462608,0.13487549,0.035046387,-0.115759276,82.0
815,1.4689181,0.0044021606,-0.45462608,-0.58198243,0.13699952,-0.06265869,82.0
816,1.5446413,0.14967346,-0.57538223,-0.58198243,0.13699952,-0.06265869,82.0
817,1.5446413,0.14967346,-0.57538223,-1.0567017,0.26762697,-0.06265869,82.0
818,1.296736,-0.15602112,-0.21697235,-1.0567017,0.26762697,-0.06265869,82.0
819,1.296736,-0.15602112,-0.21697235,-1.1427246,0.3802002,0.0053100586,82.0
820,1.2199571,-0.60754395,0.32826614,-1.1427246,0.3802002,0.0053100586,82.0
821,1.2199571,-0.60754395,0.32826614,-0.9876709,0.40037844,0.027612304,82.0
822,1.5816786,-0.8336563,0.5766506,-0.9876709,0.40037844,0.027612304,82.0
823,1.5816786,-0.8336563,0.5766506,-0.7805786,0.4088745,-0.014868164,82.0
824,1.658983,-0.6739197,0.52767944,-0.7805786,0.4088745,-0.014868164,82.0
825,1.658983,-0.6739197,0.52767944,-0.6977417,0.3791382,-0.053100586,82.0
826,1.4503307,-0.37861633,0.39150238,-0.6977417,0.3791382,-0.053100586,82.0
827,1.4503307,-0.37861633,0.39150238,-0.64782715,0.3355957,-0.11363526,82.0
828,0.7904525,-0.13785553,0.38357544,-0.64782715,0.3355957,-0.11363526,82.0
829,0.7904525,-0.13785553,0.38357544,-0.59047854,0.3717041,-0.10089111,82.0
830,-0.19431019,-0.009017944,0.4179325,-0.59047854,0.3717041,-0.10089111,82.0
831,-0.19431019,-0.009017944,0.4179325,-0.37382814,0.2166504,-0.18266602,82.0
832,-0.19331455,0.0182724,0.33406448,-0.37382814,0.2166504,-0.18266602,82.0
833,-0.19331455,0.0182724,0.33406448,-0.35152587,0.20496826,-0.2166504,82.0
834,-0.8526375,-0.031929016,0.28951645,-0.35152587,0.20496826,-0.2166504,82.0
835,-0.8526375,-0.031929016,0.28951645,-0.24744873,0.16036378,-0.090270996,82.0
836,-0.83988595,-0.07514191,0.28562927,-0.24744873,0.16036378,-0.090270996,82.0
837,-0.83988595,-0.07514191,0.28562927,-0.1444336,0.13806152,-0.03079834,82.0
838,0.024795294,-0.10996246,0.32307053,-0.1444336,0.13806152,-0.03079834,82.0
839,0.024795294,-0.10996246,0.32307053,-0.021240234,0.06265869,0.14974366,82.0
840,0.53802466,-0.084869385,0.22089386,-0.021240234,0.06265869,0.14974366,82.0
841,0.53802466,-0.084869385,0.22089386,0.0,0.033984374,0.21134034,82.0
842,0.53802466,-0.084869385,0.22089386,0.0,0.033984374,0.21134034,82.0
843,1.682385,-0.049194336,-0.11754799,0.0,0.033984374,0.21134034,82.0
844,1.682385,-0.049194336,-0.11754799,0.11044922,-0.14337158,0.32072756,82.0
845,1.2701511,0.015647888,-0.1707592,0.11044922,-0.14337158,0.32072756,82.0
846,1.2701511,0.015647888,-0.1707592,0.06265869,-0.14337158,0.35471192,82.0
847,-0.98884726,0.1990509,-0.10385513,0.06265869,-0.14337158,0.35471192,82.0
848,-0.98884726,0.1990509,-0.10385513,0.24107666,-0.19753419,0.35471192,82.0
849,-1.5151012,0.12132263,-0.05880356,0.24107666,-0.19753419,0.35471192,82.0
850,-1.5151012,0.12132263,-0.05880356,0.3717041,-0.21134034,0.32285157,82.0
851,-1.9058187,-0.11753845,0.08135033,0.3717041,-0.21134034,0.32285157,82.0
852,-1.9058187,-0.11753845,0.08135033,0.9420044,-0.36745605,0.21027832,82.0
853,-1.4214811,-0.3334961,0.050457,0.9420044,-0.36745605,0.21027832,82.0
854,-1.4214811,-0.3334961,0.050457,1.2340577,-0.4163086,0.14549561,82.0
855,-0.7625756,-0.40745544,0.12190819,1.2340577,-0.4163086,0.14549561,82.0
856,-0.7625756,-0.40745544,0.12190819,1.7087768,-0.45454103,0.011682129,82.0
857,-0.6917622,-0.46437073,0.048942566,1.7087768,-0.45454103,0.011682129,82.0
858,-0.6917622,-0.46437073,0.048942566,1.7565674,-0.45135498,-0.011682129,82.0
859,-0.8288369,-0.3557968,0.018743515,1.7565674,-0.45135498,-0.011682129,82.0
860,-0.8288369,-0.3557968,0.018743515,1.7066529,-0.3993164,-0.043542482,82.0
861,-0.9334674,-0.36315155,0.017936707,1.7066529,-0.3993164,-0.043542482,82.0
862,-0.9334674,-0.36315155,0.017936707,1.4804443,-0.30054933,-0.087084964,82.0
863,-0.8618984,-0.4187088,0.032844543,1.4804443,-0.30054933,-0.087084964,82.0
864,-0.8618984,-0.4187088,0.032844543,0.89208984,-0.08071289,-0.10620117,82.0
865,-0.73534393,-0.43643188,0.021038055,0.89208984,-0.08071289,-0.10620117,82.0
866,-0.73534393,-0.43643188,0.021038055,0.004248047,0.20390625,-0.028674318,82.0
867,-0.254889,-0.6811905,-0.11306381,0.004248047,0.20390625,-0.028674318,82.0
868,-0.254889,-0.6811905,-0.11306381,-0.67650145,0.22939454,-0.06903076,82.0
869,0.05886948,-0.6619568,-0.14670181,-0.67650145,0.22939454,-0.06903076,82.0
870,0.05886948,-0.6619568,-0.14670181,-0.4630371,0.1709839,-0.13487549,82.0
871,0.7035408,-0.99845123,-0.2583046,-0.4630371,0.1709839,-0.13487549,82.0
872,0.7035408,-0.99845123,-0.2583046,-0.0722168,-0.060534667,-0.2516968,82.0
873,0.6559601,-0.80270386,-0.24897766,-0.0722168,-0.060534667,-0.2516968,82.0
874,0.6559601,-0.80270386,-0.24897766,-0.18903808,0.013806152,-0.23258057,82.0
875,0.39614248,-0.51514435,-0.3392334,-0.18903808,0.013806152,-0.23258057,82.0
876,0.39614248,-0.51514435,-0.3392334,-0.32178956,0.057348635,-0.07540283,82.0
877,0.24739504,-0.48143768,-0.38026047,-0.32178956,0.057348635,-0.07540283,82.0
878,0.24739504,-0.48143768,-0.38026047,-0.2081543,0.10089111,-0.03079834,82.0
879,1.25369,-0.85176086,-0.33571625,-0.2081543,0.10089111,-0.03079834,82.0
880,1.25369,-0.85176086,-0.33571625,0.71579593,-0.1709839,0.035046387,82.0
881,2.7712383,-1.0211105,-0.35744095,0.71579593,-0.1709839,0.035046387,82.0
882,2.7712383,-1.0211105,-0.35744095,1.2776002,-0.3079834,0.15930176,82.0
883,2.92556,-0.30477905,-0.59300804,1.2776002,-0.3079834,0.15930176,82.0
884,2.92556,-0.30477905,-0.59300804,1.0195312,-0.19434814,0.3971924,82.0
885,1.8812561,0.53751373,-0.9047661,1.0195312,-0.19434814,0.3971924,82.0
886,1.8812561,0.53751373,-0.9047661,0.68499756,-0.14974366,0.5915405,82.0
887,1.1302004,0.5507355,-1.0527306,0.68499756,-0.14974366,0.5915405,82.0
888,1.1302004,0.5507355,-1.0527306,0.8241211,-0.24957275,0.5065796,82.0
889,0.99590826,0.12440491,-0.95762634,0.8241211,-0.24957275,0.5065796,82.0
890,0.99590826,0.12440491,-0.95762634,0.8644776,-0.29099122,0.35895997,82.0
891,0.77315474,-0.17311859,-0.7419815,0.8644776,-0.29099122,0.35895997,82.0
892,0.77315474,-0.17311859,-0.7419815,0.6903076,-0.28568116,0.19222413,82.0
893,-0.11912298,-0.15296936,-0.5705147,0.6903076,-0.28568116,0.19222413,82.0
894,-0.11912298,-0.15296936,-0.5705147,0.54587406,-0.24957275,0.070092775,82.0
895,-1.6275005,0.044517517,-0.41469955,0.54587406,-0.24957275,0.070092775,82.0
896,-1.6275005,0.044517517,-0.41469955,0.62340087,-0.34833986,-0.050976563,82.0
897,-3.0336533,0.18412781,-0.17998886,0.62340087,-0.34833986,-0.050976563,82.0
898,-3.0336533,0.18412781,-0.17998886,0.74447024,-0.36745605,-0.087084964,82.0
899,-3.6588929,0.07720947,0.1410675,0.74447024,-0.36745605,-0.087084964,82.0
900,-3.6588929,0.07720947,0.1410675,0.93138427,-0.40993652,-0.08814698,82.0
901,-3.3408227,-0.26548004,0.40673828,0.93138427,-0.40993652,-0.08814698,82.0
902,-3.3408227,-0.26548004,0.40673828,1.0917481,-0.37489015,-0.045666505,82.0
903,-2.3778706,-0.55280304,0.42770958,1.0917481,-0.37489015,-0.045666505,82.0
904,-2.3778706,-0.55280304,0.42770958,1.1289185,-0.29630128,0.0021240234,82.0
905,-1.3236831,-0.6203995,0.21238327,1.1289185,-0.29630128,0.0021240234,82.0
906,-1.3236831,-0.6203995,0.21238327,1.0131592,-0.16885987,0.083898924,82.0
907,-0.527843,-0.51008606,-0.08963776,1.0131592,-0.16885987,0.083898924,82.0
908,-0.527843,-0.51008606,-0.08963776,0.7508423,-0.09133301,0.16992188,82.0
909,0.019315004,-0.2645111,-0.2827072,0.7508423,-0.09133301,0.16992188,82.0
910,0.019315004,-0.2645111,-0.2827072,0.3164795,0.038232423,0.21558838,82.0
911,0.28851104,-0.051734924,-0.2138977,0.3164795,0.038232423,0.21558838,82.0
912,0.28851104,-0.051734924,-0.2138977,-0.18054199,0.18903808,0.2347046,82.0
913,0.32775712,-0.08834839,0.13345909,-0.18054199,0.18903808,0.2347046,82.0
914,0.32775712,-0.08834839,0.13345909,-0.5214478,0.2899292,0.26019287,82.0
915,0.5727403,-0.28944397,0.5091591,-0.5214478,0.2899292,0.26019287,82.0
916,0.5727403,-0.28944397,0.5091591,-0.72641605,0.35577393,0.26550293,82.0
917,1.0365858,-0.36631775,0.6601715,-0.72641605,0.35577393,0.26550293,82.0
918,1.0365858,-0.36631775,0.6601715,-0.91014403,0.44604492,0.27718505,82.0
919,1.1741419,-0.27070618,0.6239128,-0.91014403,0.44604492,0.27718505,82.0
920,1.1741419,-0.27070618,0.6239128,-0.9632446,0.44498292,0.29099122,82.0
921,0.8202462,-0.1754303,0.4989357,-0.9632446,0.44498292,0.29099122,82.0
922,0.8202462,-0.1754303,0.4989357,-0.9281983,0.4715332,0.2782471,82.0
923,0.84643126,-0.24189758,0.27679825,-0.9281983,0.4715332,0.2782471,82.0
924,0.84643126,-0.24189758,0.27679825,-0.725354,0.4163086,0.22833252,82.0
925,1.6747158,-0.35274506,-9.250641E-4,-0.725354,0.4163086,0.22833252,82.0
926,1.6747158,-0.35274506,-9.250641E-4,-0.6435791,0.3717041,0.13806152,82.0
927,2.1993918,-0.39260864,-0.14469719,-0.6435791,0.3717041,0.13806152,82.0
928,2.1993918,-0.39260864,-0.14469719,-0.45878908,0.23682861,-0.045666505,82.0
929,1.8382611,-0.46639252,-0.12272644,-0.45878908,0.23682861,-0.045666505,82.0
930,1.8382611,-0.46639252,-0.12272644,-0.043542482,0.08814698,-0.16992188,82.0
931,1.8382611,-0.46639252,-0.12272644,-0.043542482,0.08814698,-0.16992188,83.0
932,1.0603428,-0.40373993,0.0030269623,-0.043542482,0.08814698,-0.16992188,83.0
933,1.0603428,-0.40373993,0.0030269623,0.12319336,-0.02442627,-0.22302246,83.0
934,0.41039562,-0.18754578,0.26558113,0.12319336,-0.02442627,-0.22302246,83.0
935,0.41039562,-0.18754578,0.26558113,-0.016992187,-0.047790527,-0.1709839,83.0
936,0.26920986,-0.17219543,0.52467346,-0.016992187,-0.047790527,-0.1709839,83.0
937,0.26920986,-0.17219543,0.52467346,0.016992187,-0.15611573,-0.12531738,83.0
938,0.2513299,-0.26771545,0.5624008,0.016992187,-0.15611573,-0.12531738,83.0
939,0.2513299,-0.26771545,0.5624008,0.19222413,-0.31860352,-0.05522461,83.0
940,-0.4399271,-0.16899109,0.3615551,0.19222413,-0.31860352,-0.05522461,83.0
941,-0.4399271,-0.16899109,0.3615551,0.4333008,-0.42905274,0.02442627,83.0
942,-1.6240854,-0.036842346,0.07432556,0.4333008,-0.42905274,0.02442627,83.0
943,-1.6240854,-0.036842346,0.07432556,0.73597413,-0.452417,0.09133301,83.0
944,-2.483863,-0.09706116,-0.13434982,0.73597413,-0.452417,0.09133301,83.0
945,-2.483863,-0.09706116,-0.13434982,1.088562,-0.4248047,0.033984374,83.0
946,-2.5962336,-0.3501358,-0.19203758,1.088562,-0.4248047,0.033984374,83.0
947,-2.5962336,-0.3501358,-0.19203758,1.3455689,-0.3791382,-0.08602295,83.0
948,-2.126584,-0.6242142,-0.12501526,1.3455689,-0.3791382,-0.08602295,83.0
949,-2.126584,-0.6242142,-0.12501526,1.3784913,-0.32285157,-0.24213867,83.0
950,-1.566526,-0.6707306,-0.030151367,1.3784913,-0.32285157,-0.24213867,83.0
951,-1.566526,-0.6707306,-0.030151367,1.2149414,-0.2442627,-0.3717041,83.0
952,-1.2322125,-0.5153961,-0.0032596588,1.2149414,-0.2442627,-0.3717041,83.0
953,-1.2322125,-0.5153961,-0.0032596588,0.98873293,-0.17629395,-0.43861085,83.0
954,-1.0740879,-0.42834473,-0.067157745,0.98873293,-0.17629395,-0.43861085,83.0
955,-1.0740879,-0.42834473,-0.067157745,0.86978763,-0.1359375,-0.4704712,83.0
956,-0.9402762,-0.5541382,-0.15791321,0.86978763,-0.1359375,-0.4704712,83.0
957,-0.9402762,-0.5541382,-0.15791321,0.91014403,-0.16036378,-0.48321533,83.0
958,-0.7504631,-0.79128265,-0.22275543,0.91014403,-0.16036378,-0.48321533,83.0
959,-0.7504631,-0.79128265,-0.22275543,1.0354614,-0.17416993,-0.48109132,83.0
960,-0.36219913,-0.9734421,-0.24673462,1.0354614,-0.17416993,-0.48109132,83.0
961,-0.36219913,-0.9734421,-0.24673462,1.1257324,-0.16036378,-0.47471926,83.0
962,0.35443014,-1.1036301,-0.2403202,1.1257324,-0.16036378,-0.47471926,83.0
963,0.35443014,-1.1036301,-0.2403202,1.2542359,-0.14655761,-0.49064943,83.0
964,1.2138298,-1.1828079,-0.22491074,1.2542359,-0.14655761,-0.49064943,83.0
965,1.2138298,-1.1828079,-0.22491074,1.2914063,-0.1178833,-0.46834716,83.0
966,1.2138298,-1.1828079,-0.22491074,1.176709,-0.10407715,-0.3791382,83.0
967,1.9385077,-1.1768112,-0.22085762,1.176709,-0.10407715,-0.3791382,83.0
968,2.5610113,-1.0163422,-0.24821854,1.176709,-0.10407715,-0.3791382,83.0
969,2.5610113,-1.0163422,-0.24821854,0.88253176,-0.14761963,-0.2177124,83.0
970,2.900152,-0.5853424,-0.31388092,0.88253176,-0.14761963,-0.2177124,83.0
971,2.900152,-0.5853424,-0.31388092,0.48215333,-0.271875,0.078588866,83.0
972,2.0652633,0.068092346,-0.29735756,0.48215333,-0.271875,0.078588866,83.0
973,2.0652633,0.068092346,-0.29735756,0.16992188,-0.2984253,0.36851808,83.0
974,0.29930544,0.43338776,-0.08859444,0.16992188,-0.2984253,0.36851808,83.0
975,0.29930544,0.43338776,-0.08859444,0.14761963,-0.32922363,0.65419924,83.0
976,-0.61070204,-0.041999817,0.18242073,0.14761963,-0.32922363,0.65419924,83.0
977,-0.61070204,-0.041999817,0.18242073,0.86766356,-0.45772704,0.68287355,83.0
978,-0.1659298,-0.8570862,0.297657,0.86766356,-0.45772704,0.68287355,83.0
979,-0.1659298,-0.8570862,0.297657,1.720459,-0.65207523,0.5341919,83.0
980,0.48565197,-1.2050629,0.07442856,1.720459,-0.65207523,0.5341919,83.0
981,0.48565197,-1.2050629,0.07442856,2.2068603,-0.540564,0.4598511,83.0
982,0.59171987,-0.9959488,-0.36250305,2.2068603,-0.540564,0.4598511,83.0
983,0.59171987,-0.9959488,-0.36250305,2.342798,-0.4609131,0.2782471,83.0
984,0.17228961,-0.4434967,-0.63192177,2.342798,-0.4609131,0.2782471,83.0
985,0.17228961,-0.4434967,-0.63192177,1.9360474,-0.29417726,0.22089843,83.0
986,-0.6355815,0.1816864,-0.4481163,1.9360474,-0.29417726,0.22089843,83.0
987,-0.6355815,0.1816864,-0.4481163,1.1660889,-0.15611573,0.06903076,83.0
988,-1.5625668,0.3698578,0.16231918,1.1660889,-0.15611573,0.06903076,83.0
989,-1.5625668,0.3698578,0.16231918,0.80606693,-0.21877442,0.083898924,83.0
990,-2.1430223,-0.063064575,0.777792,0.80606693,-0.21877442,0.083898924,83.0
991,-2.1430223,-0.063064575,0.777792,0.72323,-0.28568116,0.07646485,83.0
992,-2.2744887,-0.61574554,0.98467255,0.72323,-0.28568116,0.07646485,83.0
993,-2.2744887,-0.61574554,0.98467255,0.7688965,-0.26762697,0.0637207,83.0
994,-2.2398057,-0.8289871,0.76431274,0.7688965,-0.26762697,0.0637207,83.0
995,-2.2398057,-0.8289871,0.76431274,0.87615967,-0.22196046,0.124255374,83.0
996,-2.026061,-0.6554718,0.3633423,0.87615967,-0.22196046,0.124255374,83.0
997,-2.026061,-0.6554718,0.3633423,0.8857178,-0.16248779,0.21134034,83.0
998,-1.5096306,-0.22975922,0.03394699,0.8857178,-0.16248779,0.21134034,83.0
999,-1.5096306,-0.22975922,0.03394699,0.64782715,-0.059472658,0.3058594,83.0
1000,-0.9461566,0.18946075,-0.07712746,0.64782715,-0.059472658,0.3058594,83.0
1001,-0.9461566,0.18946075,-0.07712746,0.21027832,0.039294433,0.35152587,83.0
1002,-0.6048257,0.2237854,0.107364655,0.21027832,0.039294433,0.35152587,83.0
1003,-0.6048257,0.2237854,0.107364655,-0.14761963,0.13487549,0.34940186,83.0
1004,-0.32010323,-0.17372131,0.48397446,-0.14761963,0.13487549,0.34940186,83.0
1005,-0.32010323,-0.17372131,0.48397446,-0.2347046,0.19434814,0.30267334,83.0
1006,0.1072353,-0.57818604,0.76581764,-0.2347046,0.19434814,0.30267334,83.0
1007,0.1072353,-0.57818604,0.76581764,-0.29099122,0.24320069,0.24532472,83.0
1008,0.37555873,-0.63282776,0.71939087,-0.29099122,0.24320069,0.24532472,83.0
1009,0.37555873,-0.63282776,0.71939087,-0.38975832,0.2899292,0.1996582,83.0
1010,0.16696312,-0.40824127,0.43288612,-0.38975832,0.2899292,0.1996582,83.0
1011,0.16696312,-0.40824127,0.43288612,-0.4248047,0.32816163,0.21877442,83.0
1012,0.15932733,-0.263237,0.11268997,-0.4248047,0.32816163,0.21877442,83.0
1013,0.15932733,-0.263237,0.11268997,-0.32178956,0.35789797,0.25806886,83.0
1014,1.5643759,-0.4838333,-0.085056305,-0.32178956,0.35789797,0.25806886,83.0
1015,1.5643759,-0.4838333,-0.085056305,-0.07752686,0.33984375,0.22833252,83.0
1016,3.9686882,-0.89663696,-0.11241913,-0.07752686,0.33984375,0.22833252,83.0
1017,3.9686882,-0.89663696,-0.11241913,0.04885254,0.06478272,0.15823975,83.0
1018,5.0402093,-1.0511551,-0.09214401,0.04885254,0.06478272,0.15823975,83.0
1019,5.0402093,-1.0511551,-0.09214401,-0.15717773,0.010620117,-0.13487549,83.0
1020,3.3723285,-0.8422394,0.072280884,-0.15717773,0.010620117,-0.13487549,83.0
1021,3.3723285,-0.8422394,0.072280884,-0.20178223,-0.03079834,-0.25700685,83.0
1022,0.79620266,-0.62713623,0.46297646,-0.20178223,-0.03079834,-0.25700685,83.0
1023,0.79620266,-0.62713623,0.46297646,0.16354981,-0.21240234,-0.12850343,83.0
1024,-0.53304505,-0.4937744,0.80015373,0.16354981,-0.21240234,-0.12850343,83.0
1025,-0.53304505,-0.4937744,0.80015373,0.41312256,-0.31966552,-0.057348635,83.0
1026,-1.0591998,-0.2979126,0.8614483,0.41312256,-0.31966552,-0.057348635,83.0
1027,-1.0591998,-0.2979126,0.8614483,0.5033936,-0.35152587,0.07540283,83.0
1028,-1.8755946,-0.10434723,0.6394634,0.5033936,-0.35152587,0.07540283,83.0
1029,-1.8755946,-0.10434723,0.6394634,0.60109866,-0.40462646,0.25594482,83.0
1030,-2.8359249,0.10848999,0.2549553,0.60109866,-0.40462646,0.25594482,83.0
1031,-2.8359249,0.10848999,0.2549553,0.6605713,-0.37807617,0.41206056,83.0
1032,-3.1913228,0.35581207,-0.05147934,0.6605713,-0.37807617,0.41206056,83.0
1033,-3.1913228,0.35581207,-0.05147934,0.5798584,-0.32922363,0.40462646,83.0
1034,-2.6585393,0.39270782,-0.10980034,0.5798584,-0.32922363,0.40462646,83.0
1035,-2.6585393,0.39270782,-0.10980034,0.41206056,-0.24213867,0.2516968,83.0
1036,-2.6585393,0.39270782,-0.10980034,0.41206056,-0.24213867,0.2516968,84.0
1037,-1.7190189,0.005302429,0.052150726,0.41206056,-0.24213867,0.2516968,84.0
1038,-1.7190189,0.005302429,0.052150726,0.33134767,-0.19222413,0.053100586,84.0
1039,-1.0722977,-0.49150085,0.32268906,0.33134767,-0.19222413,0.053100586,84.0
1040,-1.0722977,-0.49150085,0.32268906,0.44604492,-0.2081543,-0.14337158,84.0
1041,-0.9293714,-0.6499481,0.50779724,0.44604492,-0.2081543,-0.14337158,84.0
1042,-0.9293714,-0.6499481,0.50779724,0.57242435,-0.2357666,-0.2888672,84.0
1043,-1.0076329,-0.5846329,0.5414429,0.57242435,-0.2357666,-0.2888672,84.0
1044,-1.0076329,-0.5846329,0.5414429,0.68712157,-0.24001466,-0.3971924,84.0
1045,-0.978433,-0.59931946,0.51966476,0.68712157,-0.24001466,-0.3971924,84.0
1046,-0.978433,-0.59931946,0.51966476,0.83049315,-0.25063476,-0.48109132,84.0
1047,-0.6467967,-0.7752838,0.49401474,0.83049315,-0.25063476,-0.48109132,84.0
1048,-0.6467967,-0.7752838,0.49401474,0.96430665,-0.21452637,-0.53737795,84.0
1049,0.12671548,-0.97898865,0.44852066,0.96430665,-0.21452637,-0.53737795,84.0
1050,0.12671548,-0.97898865,0.44852066,1.0375855,-0.16567384,-0.5341919,84.0
1051,1.1571829,-1.1291656,0.38371658,1.0375855,-0.16567384,-0.5341919,84.0
1052,1.1571829,-1.1291656,0.38371658,1.0630738,-0.14549561,-0.55543214,84.0
1053,1.8370622,-1.1277237,0.30871964,1.0630738,-0.14549561,-0.55543214,84.0
1054,1.8370622,-1.1277237,0.30871964,0.95581055,-0.10513916,-0.52888185,84.0
1055,1.8310757,-0.8433914,0.26400375,0.95581055,-0.10513916,-0.52888185,84.0
1056,1.8310757,-0.8433914,0.26400375,0.53737795,0.016992187,-0.37489015,84.0
1057,1.5803146,-0.5034332,0.27210236,0.53737795,0.016992187,-0.37489015,84.0
1058,1.5803146,-0.5034332,0.27210236,0.14230958,0.09239502,-0.16567384,84.0
1059,1.5803146,-0.5034332,0.27210236,-0.13806152,0.0021240234,0.057348635,84.0
1060,1.4552429,-0.32289124,0.30307007,-0.13806152,0.0021240234,0.057348635,84.0
1061,0.28637445,-0.13755035,-0.28596115,-0.13806152,0.0021240234,0.057348635,84.0
1062,0.28637445,-0.13755035,-0.28596115,-0.043542482,-0.12213135,0.30054933,84.0
1063,0.28637445,-0.13755035,-0.28596115,0.18266602,-0.11363526,0.544812,84.0
1064,0.28637445,-0.13755035,-0.28596115,0.5511841,-0.16248779,0.6573853,84.0
1065,0.87267864,-0.25027466,-0.41373062,0.5511841,-0.16248779,0.6573853,84.0
1066,0.87267864,-0.25027466,-0.41373062,0.84748536,-0.18160401,0.66481936,84.0
1067,1.0320175,-0.17038727,-0.3674469,0.84748536,-0.18160401,0.66481936,84.0
1068,1.0320175,-0.17038727,-0.3674469,0.88253176,-0.15186767,0.5501221,84.0
1069,0.58161986,0.047294617,-0.2596321,0.88253176,-0.15186767,0.5501221,84.0
1070,0.58161986,0.047294617,-0.2596321,0.8857178,-0.17841797,0.45135498,84.0
1071,-0.15875196,0.27776337,-0.15150452,0.8857178,-0.17841797,0.45135498,84.0
1072,-0.15875196,0.27776337,-0.15150452,0.8326172,-0.18372802,0.33984375,84.0
1073,-0.9292965,0.44617462,-0.024097443,0.8326172,-0.18372802,0.33984375,84.0
1074,-0.9292965,0.44617462,-0.024097443,0.6711914,-0.23682861,0.25806886,84.0
1075,-1.5245895,0.44628143,0.12874603,0.6711914,-0.23682861,0.25806886,84.0
1076,-1.5245895,0.44628143,0.12874603,0.540564,-0.2516968,0.17947999,84.0
1077,-1.9268738,0.28949738,0.29055786,0.540564,-0.2516968,0.17947999,84.0
1078,-1.9268738,0.28949738,0.29055786,0.5320679,-0.31223145,0.12213135,84.0
1079,-2.1673536,0.07335663,0.435997,0.5320679,-0.31223145,0.12213135,84.0
1080,-2.1673536,0.07335663,0.435997,0.6956177,-0.3462158,0.043542482,84.0
1081,-2.102633,-0.16292572,0.5235672,0.6956177,-0.3462158,0.043542482,84.0
1082,-2.102633,-0.16292572,0.5235672,0.9526245,-0.32816163,-0.0180542,84.0
1083,-1.6590961,-0.3446808,0.5275841,0.9526245,-0.32816163,-0.0180542,84.0
1084,-1.6590961,-0.3446808,0.5275841,1.177771,-0.29417726,-0.045666505,84.0
1085,-1.0361027,-0.2853775,0.44233322,1.177771,-0.29417726,-0.045666505,84.0
1086,-1.0361027,-0.2853775,0.44233322,1.1639649,-0.20709229,-0.032922365,84.0
1087,-0.577991,-0.0057907104,0.3184166,1.1639649,-0.20709229,-0.032922365,84.0
1088,-0.577991,-0.0057907104,0.3184166,0.8708496,-0.09451904,-0.027612304,84.0
1089,-0.32071805,0.19587708,0.25419617,0.8708496,-0.09451904,-0.027612304,84.0
1090,-0.32071805,0.19587708,0.25419617,0.42799073,0.023364259,-0.0541626,84.0
1091,-0.01226294,0.11430359,0.3353386,0.42799073,0.023364259,-0.0541626,84.0
1092,-0.01226294,0.11430359,0.3353386,-0.009558106,0.1274414,-0.090270996,84.0
1093,0.56754553,-0.17488861,0.50172806,-0.009558106,0.1274414,-0.090270996,84.0
1094,0.56754553,-0.17488861,0.50172806,-0.30054933,0.21983643,-0.14761963,84.0
1095,1.429598,-0.49834442,0.55672836,-0.30054933,0.21983643,-0.14761963,84.0
1096,1.429598,-0.49834442,0.55672836,-0.45347902,0.2824951,-0.22196046,84.0
1097,2.083815,-0.67404175,0.43888855,-0.45347902,0.2824951,-0.22196046,84.0
1098,2.083815,-0.67404175,0.43888855,-0.5872925,0.31435546,-0.3069214,84.0
1099,1.7616444,-0.6019974,0.26366043,-0.5872925,0.31435546,-0.3069214,84.0
1100,1.7616444,-0.6019974,0.26366043,-0.70305175,0.35046387,-0.28568116,84.0
1101,1.7616444,-0.6019974,0.26366043,-0.6903076,0.362146,-0.18372802,84.0
1102,0.78691566,-0.38858032,0.18253326,-0.6903076,0.362146,-0.18372802,84.0
1103,0.59433967,-0.2432251,0.12732697,-0.6903076,0.362146,-0.18372802,84.0
1104,0.59433967,-0.2432251,0.12732697,-0.64570314,0.270813,-0.13381349,84.0
1105,1.1402545,-0.20489502,0.014839172,-0.64570314,0.270813,-0.13381349,84.0
1106,1.1402545,-0.20489502,0.014839172,-0.7720825,0.18903808,-0.14974366,84.0
1107,1.2527308,-0.30430603,0.024726868,-0.7720825,0.18903808,-0.14974366,84.0
1108,1.2527308,-0.30430603,0.024726868,-0.68287355,0.087084964,-0.1709839,84.0
1109,0.9625728,-0.5506134,0.23070526,-0.68287355,0.087084964,-0.1709839,84.0
1110,0.9625728,-0.5506134,0.23070526,-0.31435546,-0.078588866,-0.20709229,84.0
1111,0.6556783,-0.67559814,0.5340996,-0.31435546,-0.078588866,-0.20709229,84.0
1112,0.6556783,-0.67559814,0.5340996,0.10195313,-0.18160401,-0.18160401,84.0
1113,0.42531168,-0.6115875,0.8131561,0.10195313,-0.18160401,-0.18160401,84.0
1114,0.42531168,-0.6115875,0.8131561,0.4970215,-0.2357666,-0.047790527,84.0
1115,0.42720008,-0.49043274,0.8886833,0.4970215,-0.2357666,-0.047790527,84.0
1116,0.42720008,-0.49043274,0.8886833,0.7943848,-0.27293703,0.10407715,84.0
1117,0.101135015,-0.23130035,0.6777191,0.7943848,-0.27293703,0.10407715,84.0
1118,0.101135015,-0.23130035,0.6777191,0.8857178,-0.24001466,0.2548828,84.0
1119,-1.0737185,0.24331665,0.3840561,0.8857178,-0.24001466,0.2548828,84.0
1120,-1.0737185,0.24331665,0.3840561,0.5894165,-0.28461915,0.44816896,84.0
1121,-2.3710842,0.64310455,0.21090698,0.5894165,-0.28461915,0.44816896,84.0
1122,-2.3710842,0.64310455,0.21090698,0.24107666,-0.2527588,0.540564,84.0
1123,-2.8047166,0.5920334,0.22590256,0.24107666,-0.2527588,0.540564,84.0
1124,-2.8047166,0.5920334,0.22590256,0.1359375,-0.26975098,0.5055176,84.0
1125,-2.3640127,0.02986145,0.4291954,0.1359375,-0.26975098,0.5055176,84.0
1126,-2.3640127,0.02986145,0.4291954,0.5129517,-0.48427734,0.37595215,84.0
1127,-1.6137443,-0.4185791,0.60201263,0.5129517,-0.48427734,0.37595215,84.0
1128,-1.6137443,-0.4185791,0.60201263,0.635083,-0.4078125,0.24001466,84.0
1129,-1.0418134,-0.36057281,0.52664185,0.635083,-0.4078125,0.24001466,84.0
1130,-1.0418134,-0.36057281,0.52664185,0.45029297,-0.25594482,0.09770508,84.0
1131,-0.8742709,-0.25016785,0.2613907,0.45029297,-0.25594482,0.09770508,84.0
1132,-0.8742709,-0.25016785,0.2613907,0.29099122,-0.08283692,-0.008496094,84.0
1133,-1.012405,-0.3029709,0.078300476,0.29099122,-0.08283692,-0.008496094,84.0
1134,-1.012405,-0.3029709,0.078300476,0.3440918,0.035046387,-0.08602295,84.0
1135,-1.012405,-0.3029709,0.078300476,0.3440918,0.035046387,-0.08602295,84.0
1136,-1.0961668,-0.5357971,0.1943779,0.3440918,0.035046387,-0.08602295,84.0
1137,-1.0961668,-0.5357971,0.1943779,0.8591675,-0.15186767,-0.25700685,84.0
1138,-0.8244188,-0.78681946,0.4064293,0.8591675,-0.15186767,-0.25700685,84.0
1139,-0.8244188,-0.78681946,0.4064293,1.2138795,-0.17841797,-0.36427003,84.0
1140,-0.16226935,-0.7673111,0.44532394,1.2138795,-0.17841797,-0.36427003,84.0
1141,-0.16226935,-0.7673111,0.44532394,1.0375855,-0.035046387,-0.41949463,84.0
1142,0.55038476,-0.5565872,0.32079697,1.0375855,-0.035046387,-0.41949463,84.0
1143,0.55038476,-0.5565872,0.32079697,0.6510132,0.14549561,-0.34940186,84.0
1144,0.8401613,-0.3421936,0.19798279,0.6510132,0.14549561,-0.34940186,84.0
1145,0.8401613,-0.3421936,0.19798279,0.26337892,0.14868164,-0.24744873,84.0
1146,0.80585706,-0.0539093,0.13133621,0.26337892,0.14868164,-0.24744873,84.0
1147,0.80585706,-0.0539093,0.13133621,-0.24213867,0.22727051,-0.03079834,84.0
1148,1.5426714,-0.046585083,0.17861557,-0.24213867,0.22727051,-0.03079834,84.0
1149,1.5426714,-0.046585083,0.17861557,-0.058410645,0.07115479,0.124255374,84.0
1150,3.1512637,-0.32756042,0.24738312,-0.058410645,0.07115479,0.124255374,84.0
1151,3.1512637,-0.32756042,0.24738312,0.5628662,-0.1263794,0.4630371,84.0
1152,3.858743,-0.14583588,-0.077568054,0.5628662,-0.1263794,0.4630371,84.0
1153,3.858743,-0.14583588,-0.077568054,0.37807617,-0.11257324,0.71154785,84.0
1154,3.0995066,0.29961395,-0.57333374,0.37807617,-0.11257324,0.71154785,84.0
1155,3.0995066,0.29961395,-0.57333374,0.11044922,0.09770508,0.8251831,84.0
1156,1.7750033,0.6007309,-0.60762787,0.11044922,0.09770508,0.8251831,84.0
1157,1.7750033,0.6007309,-0.60762787,-0.0361084,0.040356446,1.0439576,84.0
1158,0.71544933,0.72771454,-0.25566864,-0.0361084,0.040356446,1.0439576,84.0
1159,0.71544933,0.72771454,-0.25566864,-0.09133301,-0.0637207,1.0365235,84.0
1160,0.10122895,0.6455765,0.018913269,-0.09133301,-0.0637207,1.0365235,84.0
1161,0.10122895,0.6455765,0.018913269,-0.15080567,-0.20072022,0.7986328,84.0
1162,-0.6382673,0.42326355,-0.0206604,-0.15080567,-0.20072022,0.7986328,84.0
1163,-0.6382673,0.42326355,-0.0206604,-0.06584473,-0.30479738,0.49277344,84.0
1164,-1.9606017,0.23414612,-0.19200516,-0.06584473,-0.30479738,0.49277344,84.0
1165,-1.9606017,0.23414612,-0.19200516,0.14337158,-0.362146,0.21558838,84.0
1166,-3.390393,0.27440643,-0.18694305,0.14337158,-0.362146,0.21558838,84.0
1167,-3.390393,0.27440643,-0.18694305,0.41737062,-0.43011475,0.016992187,84.0
1168,-4.091355,0.5360184,0.022857666,0.41737062,-0.43011475,0.016992187,84.0
1169,-4.091355,0.5360184,0.022857666,0.54375,-0.3695801,-0.115759276,84.0
1170,-3.8123417,0.5526352,0.36257172,0.54375,-0.3695801,-0.115759276,84.0
1171,-3.8123417,0.5526352,0.36257172,0.69136965,-0.36639404,-0.21346436,84.0
1172,-2.8206377,0.11640167,0.7114334,0.69136965,-0.36639404,-0.21346436,84.0
1173,-2.8206377,0.11640167,0.7114334,1.0184692,-0.33134767,-0.21346436,84.0
1174,-1.5327554,-0.22797394,0.8512993,1.0184692,-0.33134767,-0.21346436,84.0
1175,-1.5327554,-0.22797394,0.8512993,1.1172364,-0.25063476,-0.15823975,84.0
1176,-0.4022174,-0.06525421,0.65646744,1.1172364,-0.25063476,-0.15823975,84.0
1177,-0.4022174,-0.06525421,0.65646744,0.88359374,-0.16248779,-0.08283692,84.0
1178,0.27750587,0.45417786,0.2292862,0.88359374,-0.16248779,-0.08283692,84.0
1179,0.27750587,0.45417786,0.2292862,0.37595215,-0.047790527,-0.0063720704,84.0
1180,0.5333574,0.8653641,-0.127594,0.37595215,-0.047790527,-0.0063720704,84.0
1181,0.5333574,0.8653641,-0.127594,-0.33771974,0.13699952,0.06265869,84.0
1182,0.68690324,0.70877075,-0.1338005,-0.33771974,0.13699952,0.06265869,84.0
1183,0.68690324,0.70877075,-0.1338005,-0.9420044,0.3419678,0.0637207,84.0
1184,1.0431505,0.088516235,0.11817932,-0.9420044,0.3419678,0.0637207,84.0
1185,1.0431505,0.088516235,0.11817932,-1.2255615,0.34727785,-0.028674318,84.0
1186,1.5633901,-0.42468262,0.22138596,-1.2255615,0.34727785,-0.028674318,84.0
1187,1.5633901,-0.42468262,0.22138596,-1.3944215,0.36108398,-0.19541016,84.0
1188,1.6982708,-0.53261566,-0.010845184,-1.3944215,0.36108398,-0.19541016,84.0
1189,1.6982708,-0.53261566,-0.010845184,-1.5016845,0.36320803,-0.36639404,84.0
1190,0.9159043,-0.42783356,-0.29384613,-1.5016845,0.36320803,-0.36639404,84.0
1191,0.9159043,-0.42783356,-0.29384613,-1.3222046,0.38551027,-0.47578126,84.0
1192,-0.34995478,-0.31924438,-0.3625412,-1.3222046,0.38551027,-0.47578126,84.0
1193,-0.34995478,-0.31924438,-0.3625412,-1.0683838,0.4364868,-0.54693604,84.0
1194,-0.592769,-0.41812897,-0.3786049,-1.0683838,0.4364868,-0.54693604,84.0
1195,-0.592769,-0.41812897,-0.3786049,-0.74022216,0.47790527,-0.6446411,84.0
1196,0.9179479,-0.72418976,-0.5067787,-0.74022216,0.47790527,-0.6446411,84.0
1197,0.9179479,-0.72418976,-0.5067787,-0.42905274,0.3982544,-0.8050049,84.0
1198,2.6850052,-0.8622513,-0.6232796,-0.42905274,0.3982544,-0.8050049,84.0
1199,2.6850052,-0.8622513,-0.6232796,-0.41843262,0.30054933,-1.0057251,84.0
1200,2.88714,-0.731514,-0.566494,-0.41843262,0.30054933,-1.0057251,84.0
1201,2.88714,-0.731514,-0.566494,-0.44179687,0.24638672,-1.0715698,84.0
1202,1.5356642,-0.5659256,-0.3188095,-0.44179687,0.24638672,-1.0715698,84.0
1203,1.5356642,-0.5659256,-0.3188095,-0.22302246,0.1720459,-0.9717407,84.0
1204,0.20035756,-0.52511597,0.029083252,-0.22302246,0.1720459,-0.9717407,84.0
1205,0.20035756,-0.52511597,0.029083252,0.2357666,0.10195313,-0.81031495,84.0
1206,-0.06720424,-0.4981308,0.2870369,0.2357666,0.10195313,-0.81031495,84.0
1207,-0.06720424,-0.4981308,0.2870369,0.57242435,0.020178223,-0.6117188,84.0
1208,0.035811782,-0.18708801,0.2541046,0.57242435,0.020178223,-0.6117188,84.0
1209,0.035811782,-0.18708801,0.2541046,0.52250975,-0.0361084,-0.3525879,84.0
1210,-0.43225145,0.41666412,-0.077697754,0.52250975,-0.0361084,-0.3525879,84.0
1211,-0.43225145,0.41666412,-0.077697754,0.18054199,-0.04885254,-0.07434082,84.0
1212,-1.2088016,0.91407776,-0.42183685,0.18054199,-0.04885254,-0.07434082,84.0
1213,-1.2088016,0.91407776,-0.42183685,-0.28568116,-0.06903076,0.23364258,84.0
1214,-1.5761478,0.92733,-0.4329872,-0.28568116,-0.06903076,0.23364258,84.0
1215,-1.5761478,0.92733,-0.4329872,-0.57454836,-0.090270996,0.37595215,84.0
1216,-1.3467214,0.4739685,-0.16934967,-0.57454836,-0.090270996,0.37595215,84.0
1217,-1.3467214,0.4739685,-0.16934967,-0.45772704,-0.13806152,0.34727785,84.0
1218,-0.6932951,-0.10408783,0.024177551,-0.45772704,-0.13806152,0.34727785,84.0
1219,-0.6932951,-0.10408783,0.024177551,-0.1996582,-0.1529297,0.24320069,84.0
1220,0.057400018,-0.5335922,0.041801453,-0.1996582,-0.1529297,0.24320069,84.0
1221,0.057400018,-0.5335922,0.041801453,0.08602295,-0.16248779,0.07965088,84.0
1222,0.3811373,-0.6367874,-0.016132355,0.08602295,-0.16248779,0.07965088,84.0
1223,0.3811373,-0.6367874,-0.016132355,0.3058594,-0.1359375,-0.11469727,84.0
1224,0.0042506754,-0.37590027,-0.016139984,0.3058594,-0.1359375,-0.11469727,84.0
1225,0.0042506754,-0.37590027,-0.016139984,0.37595215,-0.09770508,-0.25594482,84.0
1226,-0.6678275,-0.07633209,0.08100891,0.37595215,-0.09770508,-0.25594482,84.0
1227,-0.6678275,-0.07633209,0.08100891,0.33028564,-0.06796875,-0.3355957,84.0
1228,-0.99002373,-0.04096222,0.21784592,0.33028564,-0.06796875,-0.3355957,84.0
1229,-0.99002373,-0.04096222,0.21784592,0.26762697,-0.04248047,-0.3440918,84.0
1230,-0.6510156,-0.19155121,0.28151703,0.26762697,-0.04248047,-0.3440918,84.0
1231,-0.6510156,-0.19155121,0.28151703,0.20284425,-0.0063720704,-0.33771974,84.0
1232,0.10664117,-0.29371643,0.18867874,0.20284425,-0.0063720704,-0.33771974,84.0
1233,0.10664117,-0.29371643,0.18867874,0.009558106,0.009558106,-0.32497558,84.0
1234,0.61312056,-0.1889267,-0.044418335,0.009558106,0.009558106,-0.32497558,84.0
1235,0.61312056,-0.1889267,-0.044418335,-0.2899292,0.03079834,-0.21983643,84.0
1236,0.4924862,0.016441345,-0.28815842,-0.2899292,0.03079834,-0.21983643,84.0
1237,0.4924862,0.016441345,-0.28815842,-0.5703003,0.04248047,-0.0361084,84.0
1238,0.44035128,0.021224976,-0.3810997,-0.5703003,0.04248047,-0.0361084,84.0
1239,0.44035128,0.021224976,-0.3810997,-0.45878908,0.070092775,0.18266602,84.0
1240,1.3946638,-0.32015228,-0.23894882,-0.45878908,0.070092775,0.18266602,84.0
1241,1.3946638,-0.32015228,-0.23894882,0.2548828,-0.12213135,0.33878174,84.0
1242,2.5168176,-0.3344345,-0.15192413,0.2548828,-0.12213135,0.33878174,84.0
1243,2.5168176,-0.3344345,-0.15192413,0.63826907,-0.37807617,0.542688,84.0
1244,2.5419087,0.2858429,-0.4140091,0.63826907,-0.37807617,0.542688,84.0
1245,2.5419087,0.2858429,-0.4140091,0.43967286,-0.28780517,0.73703617,84.0
1246,2.5419087,0.2858429,-0.4140091,0.43967286,-0.28780517,0.73703617,85.0
1247,1.8676579,0.75416565,-0.63671494,0.43967286,-0.28780517,0.73703617,85.0
1248,1.8676579,0.75416565,-0.63671494,0.39294434,-0.29417726,0.8931519,85.0
1249,1.2705545,0.7472153,-0.39738464,0.39294434,-0.29417726,0.8931519,85.0
1250,1.2705545,0.7472153,-0.39738464,0.57242435,-0.3695801,0.9611206,85.0
1251,0.7856331,0.52269745,0.048789978,0.57242435,-0.3695801,0.9611206,85.0
1252,0.7856331,0.52269745,0.048789978,0.6425171,-0.40993652,0.81881106,85.0
1253,0.07193899,0.34931183,0.34762573,0.6425171,-0.40993652,0.81881106,85.0
1254,0.07193899,0.34931183,0.34762573,0.634021,-0.44498292,0.5065796,85.0
1255,-1.2704151,0.17894745,0.43494797,0.634021,-0.44498292,0.5065796,85.0
1256,-1.2704151,0.17894745,0.43494797,1.0609497,-0.4895874,0.45560303,85.0
1257,-2.8124013,0.21298218,0.32406998,1.0609497,-0.4895874,0.45560303,85.0
1258,-2.8124013,0.21298218,0.32406998,0.91864014,-0.47471926,0.18479005,85.0
1259,-3.712177,0.5033951,0.16892624,0.91864014,-0.47471926,0.18479005,85.0
1260,-3.712177,0.5033951,0.16892624,0.46728516,-0.4322388,0.17629395,85.0
1261,-3.7133698,0.60749054,0.18154144,0.46728516,-0.4322388,0.17629395,85.0
1262,-3.7133698,0.60749054,0.18154144,0.26975098,-0.34727785,0.06265869,85.0
1263,-3.074541,0.32365417,0.49399948,0.26975098,-0.34727785,0.06265869,85.0
1264,-3.074541,0.32365417,0.49399948,0.6701294,-0.36533204,-0.008496094,85.0
1265,-2.055751,-0.16661072,0.8094673,0.6701294,-0.36533204,-0.008496094,85.0
1266,-2.055751,-0.16661072,0.8094673,1.084314,-0.3695801,-0.0722168,85.0
1267,-0.93344355,-0.3484497,0.8050308,1.084314,-0.3695801,-0.0722168,85.0
1268,-0.93344355,-0.3484497,0.8050308,1.1172364,-0.24638672,-0.03186035,85.0
1269,-0.011513233,-0.12813568,0.57600784,1.1172364,-0.24638672,-0.03186035,85.0
1270,-0.011513233,-0.12813568,0.57600784,0.8782837,-0.087084964,0.032922365,85.0
1271,0.6036922,0.2162323,0.35194397,0.8782837,-0.087084964,0.032922365,85.0
1272,0.6036922,0.2162323,0.35194397,0.39613038,0.013806152,0.118945315,85.0
1273,0.98872757,0.5389023,0.24517822,0.39613038,0.013806152,0.118945315,85.0
1274,0.98872757,0.5389023,0.24517822,-0.26762697,0.15611573,0.18797608,85.0
1275,1.4004914,0.5795212,0.22403717,-0.26762697,0.15611573,0.18797608,85.0
1276,1.4004914,0.5795212,0.22403717,-0.9589966,0.32178956,0.21558838,85.0
1277,1.9057204,0.21116638,0.21758652,-0.9589966,0.32178956,0.21558838,85.0
1278,1.9057204,0.21116638,0.21758652,-1.4305298,0.39400634,0.098767094,85.0
1279,1.8457189,-0.2559433,0.13775253,-1.4305298,0.39400634,0.098767094,85.0
1280,1.8457189,-0.2559433,0.13775253,-1.6684204,0.36108398,-0.028674318,85.0
1281,0.4850346,-0.44046783,-0.0463295,-1.6684204,0.36108398,-0.028674318,85.0
1282,0.4850346,-0.44046783,-0.0463295,-1.634436,0.39188233,-0.11151123,85.0
1283,0.4850346,-0.44046783,-0.0463295,-1.4220337,0.42799073,-0.0180542,85.0
1284,-1.6136935,-0.17411804,-0.2521515,-1.4220337,0.42799073,-0.0180542,85.0
1285,3.001062,-0.89604187,-0.7186508,-1.4220337,0.42799073,-0.0180542,85.0
1286,3.001062,-0.89604187,-0.7186508,-0.91120607,0.39294434,0.011682129,85.0
1287,3.001062,-0.89604187,-0.7186508,-0.270813,0.29417726,-0.10513916,85.0
1288,3.001062,-0.89604187,-0.7186508,-0.04248047,0.083898924,-0.32709962,85.0
1289,4.0917797,-0.8588486,-0.5969429,-0.04248047,0.083898924,-0.32709962,85.0
1290,4.0917797,-0.8588486,-0.5969429,-0.14655761,0.13062744,-0.52038574,85.0
1291,2.5420272,-0.551033,-0.31907272,-0.14655761,0.13062744,-0.52038574,85.0
1292,2.5420272,-0.551033,-0.31907272,-0.115759276,0.09239502,-0.50870365,85.0
1293,0.6175573,-0.3864212,0.051662445,-0.115759276,0.09239502,-0.50870365,85.0
1294,0.6175573,-0.3864212,0.051662445,0.07327881,0.0010620117,-0.47365722,85.0
1295,-0.9046968,-0.19876099,0.250206,0.07327881,0.0010620117,-0.47365722,85.0
1296,-0.9046968,-0.19876099,0.250206,0.11363526,-0.06903076,-0.31966552,85.0
1297,-2.3334255,0.092430115,0.18508911,0.11363526,-0.06903076,-0.31966552,85.0
1298,-2.3334255,0.092430115,0.18508911,0.11151123,-0.10513916,-0.13806152,85.0
1299,-3.259099,0.3685379,-0.0651474,0.11151123,-0.10513916,-0.13806152,85.0
1300,-3.259099,0.3685379,-0.0651474,0.04460449,-0.095581055,0.087084964,85.0
1301,-3.123124,0.5420151,-0.30820847,0.04460449,-0.095581055,0.087084964,85.0
1302,-3.123124,0.5420151,-0.30820847,-0.11257324,-0.083898924,0.12850343,85.0
1303,-2.143177,0.48605347,-0.41330338,-0.11257324,-0.083898924,0.12850343,85.0
1304,-2.143177,0.48605347,-0.41330338,-0.36427003,0.0031860352,0.1178833,85.0
1305,-1.1391021,0.19989777,-0.37660217,-0.36427003,0.0031860352,0.1178833,85.0
1306,-1.1391021,0.19989777,-0.37660217,-0.5787964,0.050976563,-0.028674318,85.0
1307,-0.5728173,-0.170784,-0.26646805,-0.5787964,0.050976563,-0.028674318,85.0
1308,-0.5728173,-0.170784,-0.26646805,-0.5787964,0.06159668,-0.16885987,85.0
1309,-0.4047016,-0.38302612,-0.17574692,-0.5787964,0.06159668,-0.16885987,85.0
1310,-0.4047016,-0.38302612,-0.17574692,-0.4078125,0.0361084,-0.28674316,85.0
1311,-0.5809268,-0.3258438,-0.10738373,-0.4078125,0.0361084,-0.28674316,85.0
1312,-0.5809268,-0.3258438,-0.10738373,-0.2166504,0.0063720704,-0.42055663,85.0
1313,-0.82719266,-0.22544861,-0.0490036,-0.2166504,0.0063720704,-0.42055663,85.0
1314,-0.82719266,-0.22544861,-0.0490036,-0.03079834,0.0,-0.5076416,85.0
1315,-0.44025755,-0.38480377,0.009002686,-0.03079834,0.0,-0.5076416,85.0
1316,-0.44025755,-0.38480377,0.009002686,0.24001466,0.03717041,-0.6138428,85.0
1317,0.6379185,-0.7135925,0.09899902,0.24001466,0.03717041,-0.6138428,85.0
1318,0.6379185,-0.7135925,0.09899902,0.4885254,0.07965088,-0.72854006,85.0
1319,1.5162674,-0.8671036,0.19680023,0.4885254,0.07965088,-0.72854006,85.0
1320,1.5162674,-0.8671036,0.19680023,0.6053467,0.059472658,-0.72004396,85.0
1321,1.3519422,-0.5733032,0.15374374,0.6053467,0.059472658,-0.72004396,85.0
1322,1.3519422,-0.5733032,0.15374374,0.36639404,0.06584473,-0.54587406,85.0
1323,0.6348618,-0.036705017,-0.060634613,0.36639404,0.06584473,-0.54587406,85.0
1324,0.6348618,-0.036705017,-0.060634613,0.0031860352,0.20709229,-0.33134767,85.0
1325,0.6348618,-0.036705017,-0.060634613,0.43861085,0.25700685,0.107263185,85.0
1326,1.3687172,-0.046150208,-0.11127472,0.43861085,0.25700685,0.107263185,85.0
1327,4.3364534,0.4796753,-0.22260284,0.43861085,0.25700685,0.107263185,85.0
1328,4.3364534,0.4796753,-0.22260284,1.0439576,-0.16354981,0.1901001,85.0
1329,4.3364534,0.4796753,-0.22260284,0.8050049,-0.16885987,0.50445557,85.0
1330,4.3364534,0.4796753,-0.22260284,0.13062744,0.007434082,0.82836914,85.0
1331,2.169358,0.814621,-0.31959915,0.13062744,0.007434082,0.82836914,85.0
1332,2.169358,0.814621,-0.31959915,0.18903808,-0.09133301,1.1597168,85.0
1333,1.228211,0.6381073,-0.0068740845,0.18903808,-0.09133301,1.1597168,85.0
1334,1.228211,0.6381073,-0.0068740845,0.34833986,-0.26444092,1.26698,85.0
1335,1.0036138,0.5056,0.25377655,0.34833986,-0.26444092,1.26698,85.0
1336,1.0036138,0.5056,0.25377655,0.18372802,-0.2814331,1.0545777,85.0
1337,0.048642993,0.47855377,0.2515564,0.18372802,-0.2814331,1.0545777,85.0
1338,0.048642993,0.47855377,0.2515564,-0.007434082,-0.32178956,0.83686525,85.0
1339,-0.8522843,0.4223938,0.14577484,-0.007434082,-0.32178956,0.83686525,85.0
1340,-0.8522843,0.4223938,0.14577484,-0.022302246,-0.3355957,0.75296634,85.0
1341,-0.8522843,0.4223938,0.14577484,-0.022302246,-0.3355957,0.75296634,82.0
1342,-3.5693884,0.4308014,-0.14525604,-0.022302246,-0.3355957,0.75296634,82.0
1343,-3.5693884,0.4308014,-0.14525604,-0.07646485,-0.34833986,0.5777344,82.0
1344,-3.6083064,0.4468155,-0.11600876,-0.07646485,-0.34833986,0.5777344,82.0
1345,-3.6083064,0.4468155,-0.11600876,-0.053100586,-0.35046387,0.5140137,82.0
1346,-3.4128902,0.5259247,0.1748085,-0.053100586,-0.35046387,0.5140137,82.0
1347,-3.4128902,0.5259247,0.1748085,0.26550293,-0.27612305,0.23151855,82.0
1348,-2.497939,0.33712006,0.28539276,0.26550293,-0.27612305,0.23151855,82.0
1349,-2.497939,0.33712006,0.28539276,0.39188233,-0.24957275,0.18585205,82.0
1350,-0.99542165,-0.009498596,0.40232468,0.39188233,-0.24957275,0.18585205,82.0
1351,-0.99542165,-0.009498596,0.40232468,0.6180908,-0.15611573,0.1731079,82.0
1352,-0.6386957,0.028388977,0.3842392,0.6180908,-0.15611573,0.1731079,82.0
1353,-0.6386957,0.028388977,0.3842392,0.59260255,-0.12213135,0.21346436,82.0
1354,-0.41698694,0.60684204,0.21017456,0.59260255,-0.12213135,0.21346436,82.0
1355,-0.41698694,0.60684204,0.21017456,0.2782471,0.011682129,0.2623169,82.0
1356,-0.36276436,0.6950836,0.15967941,0.2782471,0.011682129,0.2623169,82.0
1357,-0.36276436,0.6950836,0.15967941,0.07752686,0.08071289,0.2814331,82.0
1358,0.046446323,0.66752625,0.27818298,0.07752686,0.08071289,0.2814331,82.0
1359,0.046446323,0.66752625,0.27818298,-0.72641605,0.362146,0.22514649,82.0
1360,0.3536365,0.41601562,0.23463058,-0.72641605,0.362146,0.22514649,82.0
1361,0.3536365,0.41601562,0.23463058,-0.9154541,0.4248047,0.1709839,82.0
1362,1.3141592,-0.30706787,0.36024857,-0.9154541,0.4248047,0.1709839,82.0
1363,1.3141592,-0.30706787,0.36024857,-1.1629028,0.42055663,-0.008496094,82.0
1364,1.1397063,-0.27122498,0.13069153,-1.1629028,0.42055663,-0.008496094,82.0
1365,1.1397063,-0.27122498,0.13069153,-1.1650269,0.42055663,-0.06159668,82.0
1366,0.40380597,-0.16339874,-0.3642578,-1.1650269,0.42055663,-0.06159668,82.0
1367,0.40380597,-0.16339874,-0.3642578,-0.9143921,0.5055176,-0.26125488,82.0
1368,0.5562601,-0.14602661,-0.5879631,-0.9143921,0.5055176,-0.26125488,82.0
1369,0.5562601,-0.14602661,-0.5879631,-0.8326172,0.5012695,-0.35471192,82.0
1370,2.7814217,-0.63370514,-0.86494064,-0.8326172,0.5012695,-0.35471192,82.0
1371,2.7814217,-0.63370514,-0.86494064,-0.8230591,0.45029297,-0.7678345,82.0
1372,3.1165314,-0.7218933,-0.77129745,-0.8230591,0.45029297,-0.7678345,82.0
1373,3.1165314,-0.7218933,-0.77129745,-0.8071289,0.4248047,-0.92076415,82.0
1374,2.5868044,-1.1224213,-0.21208191,-0.8071289,0.4248047,-0.92076415,82.0
1375,2.5868044,-1.1224213,-0.21208191,-0.4619751,0.2888672,-1.088562,82.0
1376,1.6006324,-0.9533539,0.03479004,-0.4619751,0.2888672,-1.088562,82.0
1377,1.6006324,-0.9533539,0.03479004,-0.2824951,0.26975098,-1.0227174,82.0
1378,0.53544974,-0.72811127,0.4573593,-0.2824951,0.26975098,-1.0227174,82.0
1379,0.53544974,-0.72811127,0.4573593,0.18054199,0.19222413,-0.8517334,82.0
1380,0.44372845,-0.41474152,0.46370316,0.18054199,0.19222413,-0.8517334,82.0
1381,0.44372845,-0.41474152,0.46370316,0.4715332,0.10513916,-0.73809814,82.0
1382,-0.68411636,0.30497742,-0.21062851,0.4715332,0.10513916,-0.73809814,82.0
1383,-0.68411636,0.30497742,-0.21062851,0.3154175,0.025488282,-0.35789797,82.0
1384,-1.2479156,0.42478943,-0.39250183,0.3154175,0.025488282,-0.35789797,82.0
1385,-1.2479156,0.42478943,-0.39250183,0.16673584,0.027612304,-0.20709229,82.0
1386,-2.5213063,0.64198303,-0.61704254,0.16673584,0.027612304,-0.20709229,82.0
1387,-2.5213063,0.64198303,-0.61704254,-0.27506104,0.04885254,0.032922365,82.0
1388,-2.0791667,0.5250397,-0.4459648,-0.27506104,0.04885254,0.032922365,82.0
1389,-2.0791667,0.5250397,-0.4459648,-0.38232422,0.039294433,0.02442627,82.0
1390,-1.3661165,0.21083069,-0.1409874,-0.38232422,0.039294433,0.02442627,82.0
1391,-1.3661165,0.21083069,-0.1409874,-0.58198243,0.08071289,-0.016992187,82.0
1392,-0.77768326,-0.16158295,0.013038635,-0.58198243,0.08071289,-0.016992187,82.0
1393,-0.77768326,-0.16158295,0.013038635,-0.5872925,0.058410645,-0.13062744,82.0
1394,-0.6080353,-0.34783173,-0.048858643,-0.5872925,0.058410645,-0.13062744,82.0
1395,-0.6080353,-0.34783173,-0.048858643,-0.44498292,0.026550293,-0.22302246,82.0
1396,-0.71307623,-0.22554016,-0.19084549,-0.44498292,0.026550293,-0.22302246,82.0
1397,-0.71307623,-0.22554016,-0.19084549,-0.27399904,0.020178223,-0.3345337,82.0
1398,-0.8731221,-0.0126953125,-0.27010727,-0.27399904,0.020178223,-0.3345337,82.0
1399,-0.8731221,-0.0126953125,-0.27010727,-0.15611573,0.027612304,-0.46622315,82.0
1400,-0.80286777,-0.06677246,-0.21366882,-0.15611573,0.027612304,-0.46622315,82.0
1401,-0.80286777,-0.06677246,-0.21366882,-0.06690674,0.06690674,-0.54693604,82.0
1402,0.04524231,-0.5239105,-0.045886993,-0.06690674,0.06690674,-0.54693604,82.0
1403,0.04524231,-0.5239105,-0.045886993,0.20709229,0.09770508,-0.6510132,82.0
1404,0.4580567,-0.57741547,0.0102005005,0.20709229,0.09770508,-0.6510132,82.0
1405,0.4580567,-0.57741547,0.0102005005,0.26550293,0.083898924,-0.66481936,82.0
1406,0.8529444,-0.4916916,-0.005619049,0.26550293,0.083898924,-0.66481936,82.0
1407,0.8529444,-0.4916916,-0.005619049,0.24532472,0.07646485,-0.61702883,82.0
1408,0.82100296,-0.18882751,-0.13435364,0.24532472,0.07646485,-0.61702883,82.0
1409,0.82100296,-0.18882751,-0.13435364,0.06265869,0.20284425,-0.47896728,82.0
1410,1.5992707,-0.23295593,-0.17501068,0.06265869,0.20284425,-0.47896728,82.0
1411,1.5992707,-0.23295593,-0.17501068,0.36745605,0.29417726,-0.17416993,82.0
1412,3.6427956,-0.68203735,0.03048706,0.36745605,0.29417726,-0.17416993,82.0
1413,3.6427956,-0.68203735,0.03048706,0.8973999,0.06478272,0.038232423,82.0
1414,5.0870757,-0.5257721,0.084373474,0.8973999,0.06478272,0.038232423,82.0
1415,5.0870757,-0.5257721,0.084373474,0.67331547,-0.095581055,0.35152587,82.0
1416,4.273799,0.37114716,-0.24988556,0.67331547,-0.095581055,0.35152587,82.0
1417,4.273799,0.37114716,-0.24988556,-0.007434082,-0.0053100586,0.6966797,82.0
1418,2.096139,0.96704865,-0.5339775,-0.007434082,-0.0053100586,0.6966797,82.0
1419,2.096139,0.96704865,-0.5339775,-0.32497558,-0.07752686,1.0460815,82.0
1420,0.432209,0.9054642,-0.4002304,-0.32497558,-0.07752686,1.0460815,82.0
1421,0.432209,0.9054642,-0.4002304,-0.22302246,-0.3079834,1.2276856,82.0
1422,-0.84716487,0.62114716,0.017925262,-0.22302246,-0.3079834,1.2276856,82.0
1423,-0.84716487,0.62114716,0.017925262,-0.15717773,-0.48533937,1.1692749,82.0
1424,-1.375901,0.5230179,0.08264923,-0.15717773,-0.48533937,1.1692749,82.0
1425,-1.375901,0.5230179,0.08264923,-0.06903076,-0.5129517,1.1055542,82.0
1426,-2.6497931,0.3822708,0.08698273,-0.06903076,-0.5129517,1.1055542,82.0
1427,-2.6497931,0.3822708,0.08698273,0.26125488,-0.5766724,0.98873293,82.0
1428,-3.6615458,0.19361115,0.08686066,0.26125488,-0.5766724,0.98873293,82.0
1429,-3.6615458,0.19361115,0.08686066,0.75509036,-0.6446411,0.86341554,82.0
1430,-3.8960824,0.13528442,0.18033981,0.75509036,-0.6446411,0.86341554,82.0
1431,-3.8960824,0.13528442,0.18033981,1.1437867,-0.66588134,0.7497803,82.0
1432,-3.3075032,0.25859833,0.33699417,1.1437867,-0.66588134,0.7497803,82.0
1433,-3.3075032,0.25859833,0.33699417,1.3190186,-0.59260255,0.6202149,82.0
1434,-2.3350894,0.3438797,0.54120255,1.3190186,-0.59260255,0.6202149,82.0
1435,-2.3350894,0.3438797,0.54120255,1.4294678,-0.4885254,0.48215333,82.0
1436,-1.5434012,0.28466034,0.75317764,1.4294678,-0.4885254,0.48215333,82.0
1437,-1.5434012,0.28466034,0.75317764,1.4379638,-0.3727661,0.41206056,82.0
1438,-1.1738689,0.24773407,0.848259,1.4379638,-0.3727661,0.41206056,82.0
1439,-1.1738689,0.24773407,0.848259,1.2478638,-0.2623169,0.39400634,82.0
1440,-1.0461385,0.39536285,0.7583542,1.2478638,-0.2623169,0.39400634,82.0
1441,-1.0461385,0.39536285,0.7583542,0.85704345,-0.1263794,0.4056885,82.0
1442,-0.86604905,0.5578079,0.6118355,0.85704345,-0.1263794,0.4056885,82.0
1443,-0.86604905,0.5578079,0.6118355,0.35789797,0.021240234,0.40144044,82.0
1444,-0.86604905,0.5578079,0.6118355,0.35789797,0.021240234,0.40144044,84.0
1445,-0.33032703,0.51013947,0.49557114,0.35789797,0.021240234,0.40144044,84.0
1446,-0.33032703,0.51013947,0.49557114,-0.15080567,0.16461182,0.33984375,84.0
1447,0.55201054,0.21067047,0.43854523,-0.15080567,0.16461182,0.33984375,84.0
1448,0.55201054,0.21067047,0.43854523,-0.61278075,0.3090454,0.2442627,84.0
1449,1.1878731,-0.10462952,0.34929657,-0.61278075,0.3090454,0.2442627,84.0
1450,1.1878731,-0.10462952,0.34929657,-1.0471436,0.37595215,0.11044922,84.0
1451,0.9632137,-0.24234772,0.19083786,-1.0471436,0.37595215,0.11044922,84.0
1452,0.9632137,-0.24234772,0.19083786,-1.273352,0.3982544,-0.0180542,84.0
1453,0.46812952,-0.35942078,-0.051078796,-1.273352,0.3982544,-0.0180542,84.0
1454,0.46812952,-0.35942078,-0.051078796,-1.0428956,0.41206056,-0.13699952,84.0
1455,1.059965,-0.6501465,-0.32985306,-1.0428956,0.41206056,-0.13699952,84.0
1456,1.059965,-0.6501465,-0.32985306,-0.6085327,0.3090454,-0.30479738,84.0
1457,1.059965,-0.6501465,-0.32985306,-0.3727661,0.17416993,-0.53737795,84.0
1458,2.4844346,-0.86348724,-0.52840805,-0.3727661,0.17416993,-0.53737795,84.0
1459,1.6295764,-0.84565735,0.2678604,-0.3727661,0.17416993,-0.53737795,84.0
1460,1.6295764,-0.84565735,0.2678604,-0.25913087,0.14549561,-0.6860596,84.0
1461,1.6295764,-0.84565735,0.2678604,-0.08602295,0.093457036,-0.70942384,84.0
1462,1.6295764,-0.84565735,0.2678604,0.21027832,0.038232423,-0.5777344,84.0
1463,0.9349844,-0.5981064,0.6795349,0.21027832,0.038232423,-0.5777344,84.0
1464,0.9349844,-0.5981064,0.6795349,0.38232422,0.04141846,-0.46516114,84.0
1465,0.80432296,-0.34217072,0.6596298,0.38232422,0.04141846,-0.46516114,84.0
1466,0.80432296,-0.34217072,0.6596298,0.39082032,0.025488282,-0.29630128,84.0
1467,0.18370494,-0.09931946,0.2192688,0.39082032,0.025488282,-0.29630128,84.0
1468,0.18370494,-0.09931946,0.2192688,0.20284425,-0.043542482,-0.12850343,84.0
1469,-0.895663,0.22892761,-0.403759,0.20284425,-0.043542482,-0.12850343,84.0
1470,-0.895663,0.22892761,-0.403759,-0.15611573,-0.03186035,0.07540283,84.0
1471,-1.6401389,0.51379395,-0.7932701,-0.15611573,-0.03186035,0.07540283,84.0
1472,-1.6401389,0.51379395,-0.7932701,-0.5649902,0.047790527,0.17523193,84.0
1473,-1.6516374,0.48576355,-0.6951256,-0.5649902,0.047790527,0.17523193,84.0
1474,-1.6516374,0.48576355,-0.6951256,-0.84536135,0.07434082,0.07646485,84.0
1475,-1.3042079,0.18583679,-0.3140831,-0.84536135,0.07434082,0.07646485,84.0
1476,-1.3042079,0.18583679,-0.3140831,-1.09281,0.13275146,-0.07540283,84.0
1477,-1.1429635,-0.24656677,-0.02973175,-1.09281,0.13275146,-0.07540283,84.0
1478,-1.1429635,-0.24656677,-0.02973175,-1.2064453,0.18479005,-0.107263185,84.0
1479,-1.189786,-0.6037445,0.011116028,-1.2064453,0.18479005,-0.107263185,84.0
1480,-1.189786,-0.6037445,0.011116028,-1.0726318,0.18372802,-0.33665773,84.0
1481,-1.2463355,-0.6039276,-0.14144897,-1.0726318,0.18372802,-0.33665773,84.0
1482,-1.2463355,-0.6039276,-0.14144897,-0.7412842,0.11257324,-0.49171144,84.0
1483,-1.1617534,-0.39019775,-0.29437256,-0.7412842,0.11257324,-0.49171144,84.0
1484,-1.1617534,-0.39019775,-0.29437256,-0.26550293,0.0541626,-0.69986576,84.0
1485,-0.76361895,-0.2682724,-0.35772705,-0.26550293,0.0541626,-0.69986576,84.0
1486,-0.76361895,-0.2682724,-0.35772705,0.10513916,0.08602295,-0.72323,84.0
1487,0.15852642,-0.4247589,-0.37467194,0.10513916,0.08602295,-0.72323,84.0
1488,0.15852642,-0.4247589,-0.37467194,0.38763428,0.15611573,-0.81243896,84.0
1489,1.1820824,-0.6762924,-0.29894638,0.38763428,0.15611573,-0.81243896,84.0
1490,1.1820824,-0.6762924,-0.29894638,0.58304447,0.19647217,-0.90270996,84.0
1491,1.4488397,-0.64930725,-0.14783478,0.58304447,0.19647217,-0.90270996,84.0
1492,1.4488397,-0.64930725,-0.14783478,0.4980835,0.23045655,-0.93138427,84.0
1493,1.0191548,-0.35329437,-0.042842865,0.4980835,0.23045655,-0.93138427,84.0
1494,1.0191548,-0.35329437,-0.042842865,0.13699952,0.31010744,-0.7880127,84.0
1495,1.0191548,-0.35329437,-0.042842865,0.107263185,0.42268068,-0.54693604,84.0
1496,1.447343,-0.2394867,-0.097774506,0.107263185,0.42268068,-0.54693604,84.0
1497,5.4902964,0.10959625,-0.66789246,0.107263185,0.42268068,-0.54693604,84.0
1498,5.4902964,0.10959625,-0.66789246,0.72960204,0.1985962,-0.30161133,84.0
1499,5.4902964,0.10959625,-0.66789246,0.74022216,-0.06584473,-0.15080567,84.0
1500,5.4902964,0.10959625,-0.66789246,0.26868898,0.011682129,0.29630128,84.0
1501,2.6984627,0.7229538,-0.70415115,0.26868898,0.011682129,0.29630128,84.0
1502,2.6984627,0.7229538,-0.70415115,0.06584473,-0.04460449,0.6159668,84.0
1503,1.1629572,0.7209549,-0.35828018,0.06584473,-0.04460449,0.6159668,84.0
1504,1.1629572,0.7209549,-0.35828018,0.04248047,-0.20284425,0.87191164,84.0
1505,1.1798652,0.45738983,0.027095795,0.04248047,-0.20284425,0.87191164,84.0
1506,1.1798652,0.45738983,0.027095795,-0.07965088,-0.3079834,0.90058595,84.0
1507,1.034029,0.19845581,0.17415619,-0.07965088,-0.3079834,0.90058595,84.0
1508,1.034029,0.19845581,0.17415619,-0.12956543,-0.40993652,0.78376466,84.0
1509,-0.22381437,0.09641266,0.07266235,-0.12956543,-0.40993652,0.78376466,84.0
1510,-0.22381437,0.09641266,0.07266235,0.010620117,-0.45666504,0.6754395,84.0
1511,-1.9690906,0.14974976,-0.050682068,0.010620117,-0.45666504,0.6754395,84.0
1512,-1.9690906,0.14974976,-0.050682068,0.28461915,-0.50233155,0.5872925,84.0
1513,-3.1297402,0.22904205,0.004535675,0.28461915,-0.50233155,0.5872925,84.0
1514,-3.1297402,0.22904205,0.004535675,0.6860596,-0.540564,0.49383545,84.0
1515,-3.0885334,0.26325226,0.22817612,0.6860596,-0.540564,0.49383545,84.0
1516,-3.0885334,0.26325226,0.22817612,1.0513916,-0.4619751,0.35683593,84.0
1517,-2.1319718,0.20394897,0.4713211,1.0513916,-0.4619751,0.35683593,84.0
1518,-2.1319718,0.20394897,0.4713211,1.2584839,-0.35152587,0.22833252,84.0
1519,-1.1887805,0.14524078,0.6089401,1.2584839,-0.35152587,0.22833252,84.0
1520,-1.1887805,0.14524078,0.6089401,1.264856,-0.23682861,0.15611573,84.0
1521,-0.8669424,0.2534485,0.59897995,1.264856,-0.23682861,0.15611573,84.0
1522,-0.8669424,0.2534485,0.59897995,1.0821899,-0.16036378,0.16461182,84.0
1523,-0.96567297,0.5508194,0.5016937,1.0821899,-0.16036378,0.16461182,84.0
1524,-0.96567297,0.5508194,0.5016937,0.6903076,-0.07646485,0.21240234,84.0
1525,-0.9939618,0.8665619,0.43076324,0.6903076,-0.07646485,0.21240234,84.0
1526,-0.9939618,0.8665619,0.43076324,0.09239502,0.058410645,0.2623169,84.0
1527,-0.6502476,0.8870621,0.38855743,0.09239502,0.058410645,0.2623169,84.0
1528,-0.6502476,0.8870621,0.38855743,-0.50870365,0.18691407,0.26125488,84.0
1529,0.025724888,0.51187134,0.3123474,-0.50870365,0.18691407,0.26125488,84.0
1530,0.025724888,0.51187134,0.3123474,-0.9345703,0.28355715,0.20496826,84.0
1531,0.6363759,0.03630066,0.16887283,-0.9345703,0.28355715,0.20496826,84.0
1532,0.6363759,0.03630066,0.16887283,-1.1512207,0.32178956,0.10620117,84.0
1533,0.7275212,-0.20831299,-0.03207779,-1.1512207,0.32178956,0.10620117,84.0
1534,0.7275212,-0.20831299,-0.03207779,-1.1862671,0.33665773,0.03717041,84.0
1535,0.33909702,-0.19449615,-0.21701813,-1.1862671,0.33665773,0.03717041,84.0
1536,0.33909702,-0.19449615,-0.21701813,-0.99510497,0.35046387,-0.008496094,84.0
1537,0.47454917,-0.2297287,-0.3658142,-0.99510497,0.35046387,-0.008496094,84.0
1538,0.47454917,-0.2297287,-0.3658142,-0.6701294,0.31860352,-0.0722168,84.0
1539,1.9021369,-0.5181961,-0.45571518,-0.6701294,0.31860352,-0.0722168,84.0
1540,1.9021369,-0.5181961,-0.45571518,-0.28461915,0.2166504,-0.21027832,84.0
1541,1.9021369,-0.5181961,-0.45571518,-0.28461915,0.2166504,-0.21027832,84.0
