,accx,accy,accz,gyrox,gyroy,gyroz,heart rate
0,walk,walk,walk,walk,walk,walk,walk
1,-10.023218,-57.4583,43.20304,0.0,0.0,0.0,0.0
2,-10.023218,-57.4583,43.20304,-0.23789063,-0.16036378,0.032922365,0.0
3,-7.91728,-46.005714,34.69036,-0.23789063,-0.16036378,0.032922365,0.0
4,-7.91728,-46.005714,34.69036,-0.2081543,-0.0637207,0.052038576,0.0
5,-6.313536,-36.904648,27.785028,-0.2081543,-0.0637207,0.052038576,0.0
6,-6.313536,-36.904648,27.785028,0.10513916,0.008496094,-0.03079834,0.0
7,-5.0983024,-29.426285,22.156746,0.10513916,0.008496094,-0.03079834,0.0
8,-5.0983024,-29.426285,22.156746,0.013806152,0.1709839,0.038232423,0.0
9,-4.1956587,-23.352943,17.633354,0.013806152,0.1709839,0.038232423,0.0
10,-4.1956587,-23.352943,17.633354,-0.029736329,0.10195313,0.045666505,0.0
11,-3.4623013,-18.631767,13.999104,-0.029736329,0.10195313,0.045666505,0.0
12,-3.4623013,-18.631767,13.999104,-0.09239502,0.08814698,0.0053100586,0.0
13,-2.8117962,-14.961494,11.065739,-0.09239502,0.08814698,0.0053100586,0.0
14,-2.8117962,-14.961494,11.065739,0.083898924,0.046728518,0.014868164,0.0
15,-2.2268667,-12.030426,8.659611,0.083898924,0.046728518,0.014868164,0.0
16,-2.2268667,-12.030426,8.659611,0.06478272,0.10620117,0.023364259,0.0
17,-1.7887201,-9.67329,6.82753,0.06478272,0.10620117,0.023364259,0.0
18,-1.7887201,-9.67329,6.82753,0.10301514,0.07752686,0.0180542,0.0
19,-1.4607849,-7.764122,5.5914803,0.10301514,0.07752686,0.0180542,0.0
20,-1.4607849,-7.764122,5.5914803,-0.07540283,-0.05628662,-0.09239502,0.0
21,-1.0761356,-6.1615067,4.6582794,-0.07540283,-0.05628662,-0.09239502,0.0
22,-1.0761356,-6.1615067,4.6582794,-0.20178223,-0.11044922,-0.07646485,0.0
23,-0.70571995,-4.9778976,3.726059,-0.20178223,-0.11044922,-0.07646485,0.0
24,-0.70571995,-4.9778976,3.726059,-0.07434082,0.022302246,-0.0063720704,0.0
25,-0.52752686,-4.1099777,2.9397354,-0.07434082,0.022302246,-0.0063720704,0.0
26,-0.52752686,-4.1099777,2.9397354,-0.013806152,0.058410645,-0.009558106,0.0
27,-0.53212833,-3.3034363,2.407341,-0.013806152,0.058410645,-0.009558106,0.0
28,-0.53212833,-3.3034363,2.407341,-0.025488282,0.023364259,0.0180542,0.0
29,-0.53212833,-3.3034363,2.407341,-0.04885254,0.0053100586,0.016992187,0.0
30,-0.53345394,-2.5569916,1.9410477,-0.04885254,0.0053100586,0.016992187,0.0
31,-0.53345394,-2.5569916,1.9410477,-0.04885254,0.0053100586,0.016992187,96.0
32,-0.44047165,-1.9397812,1.5151939,-0.04885254,0.0053100586,0.016992187,96.0
33,-0.44047165,-1.9397812,1.5151939,-0.07434082,0.0053100586,0.0021240234,96.0
34,-0.31501198,-1.5309143,1.1663895,-0.07434082,0.0053100586,0.0021240234,96.0
35,-0.31501198,-1.5309143,1.1663895,-0.06159668,0.015930176,-0.013806152,96.0
36,-0.2380085,-1.2795029,0.9007263,-0.06159668,0.015930176,-0.013806152,96.0
37,-0.2380085,-1.2795029,0.9007263,-0.0031860352,0.026550293,-0.025488282,96.0
38,-0.20693493,-1.0622177,0.7084007,-0.0031860352,0.026550293,-0.025488282,96.0
39,-0.20693493,-1.0622177,0.7084007,-0.013806152,0.021240234,-0.02442627,96.0
40,-0.17713165,-0.8630676,0.56448746,-0.013806152,0.021240234,-0.02442627,96.0
41,-0.17713165,-0.8630676,0.56448746,-0.03079834,-0.0063720704,-0.019116212,96.0
42,-0.10110474,-0.71195984,0.46847153,-0.03079834,-0.0063720704,-0.019116212,96.0
43,-0.10110474,-0.71195984,0.46847153,-0.026550293,-0.012744141,-0.026550293,96.0
44,-0.026574135,-0.564003,0.3685646,-0.026550293,-0.012744141,-0.026550293,96.0
45,-0.026574135,-0.564003,0.3685646,-0.035046387,-0.009558106,-0.009558106,96.0
46,-0.027070045,-0.4484558,0.25468063,-0.035046387,-0.009558106,-0.009558106,96.0
47,-0.027070045,-0.4484558,0.25468063,-0.012744141,0.022302246,-0.0031860352,96.0
48,-0.07962704,-0.38658142,0.21474457,-0.012744141,0.022302246,-0.0031860352,96.0
49,-0.07962704,-0.38658142,0.21474457,0.025488282,0.0010620117,-0.026550293,96.0
50,-0.064263344,-0.26708984,0.22250366,0.025488282,0.0010620117,-0.026550293,96.0
51,-0.064263344,-0.26708984,0.22250366,-0.02442627,-0.032922365,-0.014868164,96.0
52,0.00740242,-0.14992523,0.16048813,-0.02442627,-0.032922365,-0.014868164,96.0
53,0.00740242,-0.14992523,0.16048813,-0.06690674,-0.011682129,-0.0031860352,96.0
54,0.031446457,-0.1563263,0.07206726,-0.06690674,-0.011682129,-0.0031860352,96.0
55,0.031446457,-0.1563263,0.07206726,-0.010620117,0.02442627,-0.026550293,96.0
56,0.031446457,-0.1563263,0.07206726,0.022302246,0.0010620117,-0.012744141,96.0
57,-0.024744987,-0.17617035,0.049243927,0.022302246,0.0010620117,-0.012744141,96.0
58,-0.08567715,-0.11695099,0.04907608,0.022302246,0.0010620117,-0.012744141,96.0
59,-0.08567715,-0.11695099,0.04907608,-0.010620117,-0.045666505,-0.0053100586,96.0
60,-0.028416634,-0.02570343,0.015419006,-0.010620117,-0.045666505,-0.0053100586,96.0
61,-0.028416634,-0.02570343,0.015419006,-0.028674318,-0.038232423,0.004248047,96.0
62,0.10887146,0.041549683,-0.017951965,-0.028674318,-0.038232423,0.004248047,96.0
63,0.10887146,0.041549683,-0.017951965,-0.0063720704,-0.0063720704,0.022302246,96.0
64,0.14385986,0.10064697,0.0055351257,-0.0063720704,-0.0063720704,0.022302246,96.0
65,0.14385986,0.10064697,0.0055351257,-0.059472658,0.0053100586,0.020178223,96.0
66,0.06518555,0.13891602,0.07481384,-0.059472658,0.0053100586,0.020178223,96.0
67,0.06518555,0.13891602,0.07481384,-0.18797608,-0.0180542,-0.0180542,96.0
68,0.01763916,0.048561096,0.063266754,-0.18797608,-0.0180542,-0.0180542,96.0
69,0.01763916,0.048561096,0.063266754,-0.15505372,0.0053100586,-0.046728518,96.0
70,0.027306557,-0.10826111,-0.047542572,-0.15505372,0.0053100586,-0.046728518,96.0
71,0.027306557,-0.10826111,-0.047542572,-0.011682129,0.087084964,-0.090270996,96.0
72,-0.017717361,-0.122154236,-0.13837433,-0.011682129,0.087084964,-0.090270996,96.0
73,-0.017717361,-0.122154236,-0.13837433,0.04141846,0.09770508,-0.08602295,96.0
74,-0.017717361,-0.122154236,-0.13837433,-0.025488282,0.04248047,-0.087084964,96.0
75,-0.071876526,0.012313843,-0.17234421,-0.025488282,0.04248047,-0.087084964,96.0
76,-0.009685516,0.1303482,-0.24233246,-0.025488282,0.04248047,-0.087084964,96.0
77,-0.009685516,0.1303482,-0.24233246,-0.04248047,0.0180542,-0.118945315,96.0
78,0.14726925,0.18486786,-0.35587692,-0.04248047,0.0180542,-0.118945315,96.0
79,0.14726925,0.18486786,-0.35587692,0.0010620117,0.04248047,-0.15930176,96.0
80,0.21333599,0.2534256,-0.45439148,0.0010620117,0.04248047,-0.15930176,96.0
81,0.21333599,0.2534256,-0.45439148,0.06903076,0.029736329,-0.1709839,96.0
82,0.18963909,0.32952118,-0.48947906,0.06903076,0.029736329,-0.1709839,96.0
83,0.18963909,0.32952118,-0.48947906,0.13699952,-0.013806152,-0.21240234,96.0
84,0.24090767,0.42798615,-0.4916687,0.13699952,-0.013806152,-0.21240234,96.0
85,0.24090767,0.42798615,-0.4916687,0.22196046,-0.07115479,-0.2357666,96.0
86,0.36382008,0.54422,-0.5707054,0.22196046,-0.07115479,-0.2357666,96.0
87,0.36382008,0.54422,-0.5707054,0.38763428,-0.11044922,-0.23682861,96.0
88,0.52884865,0.6242523,-0.73152924,0.38763428,-0.11044922,-0.23682861,96.0
89,0.52884865,0.6242523,-0.73152924,0.6637573,-0.11044922,-0.20178223,96.0
90,0.71553516,0.70871735,-0.9516182,0.6637573,-0.11044922,-0.20178223,96.0
91,0.71553516,0.70871735,-0.9516182,1.1055542,-0.1274414,-0.124255374,96.0
92,0.9528122,0.92253876,-1.2828407,1.1055542,-0.1274414,-0.124255374,96.0
93,0.9528122,0.92253876,-1.2828407,1.716211,-0.083898924,0.0031860352,96.0
94,1.2043762,1.2678528,-1.7277527,1.716211,-0.083898924,0.0031860352,96.0
95,1.2043762,1.2678528,-1.7277527,2.4043946,0.021240234,0.15611573,96.0
96,1.365283,1.5392685,-2.0864983,2.4043946,0.021240234,0.15611573,96.0
97,1.365283,1.5392685,-2.0864983,3.254004,0.08602295,0.36745605,96.0
98,1.4936428,1.5814972,-2.2004395,3.254004,0.08602295,0.36745605,96.0
99,1.4936428,1.5814972,-2.2004395,4.257605,0.10089111,0.55543214,96.0
100,1.6181564,1.4507828,-2.0835953,4.257605,0.10089111,0.55543214,96.0
101,1.6181564,1.4507828,-2.0835953,5.4714847,0.13699952,0.9303223,96.0
102,1.6698055,1.4040604,-1.760334,5.4714847,0.13699952,0.9303223,96.0
103,1.6698055,1.4040604,-1.760334,6.7533326,0.010620117,1.1862671,96.0
104,1.7404709,1.9244537,-1.404789,6.7533326,0.010620117,1.1862671,96.0
105,1.7404709,1.9244537,-1.404789,7.7123294,-0.26762697,1.8054199,96.0
106,2.1415462,3.3061981,-1.0979156,7.7123294,-0.26762697,1.8054199,96.0
107,2.1415462,3.3061981,-1.0979156,8.128638,-0.5129517,2.5859985,96.0
108,3.0015059,5.0794907,-0.6993866,8.128638,-0.5129517,2.5859985,96.0
109,3.0015059,5.0794907,-0.6993866,8.017127,-0.6180908,3.6023438,96.0
110,3.926742,6.1966248,-0.36128235,8.017127,-0.6180908,3.6023438,96.0
111,3.926742,6.1966248,-0.36128235,7.7431273,-0.8814697,4.8480835,96.0
112,4.5175776,6.349682,-0.29267883,7.7431273,-0.8814697,4.8480835,96.0
113,4.5175776,6.349682,-0.29267883,6.9912233,-1.1055542,5.610608,96.0
114,4.9297853,6.6418304,-0.2821312,6.9912233,-1.1055542,5.610608,96.0
115,4.9297853,6.6418304,-0.2821312,4.9309206,-1.089624,6.1341796,96.0
116,5.114873,7.0326195,-0.054100037,4.9309206,-1.089624,6.1341796,96.0
117,5.114873,7.0326195,-0.054100037,1.7958618,-1.3402588,6.592969,96.0
118,5.1206584,5.5364494,-0.11829376,1.7958618,-1.3402588,6.592969,96.0
119,5.1206584,5.5364494,-0.11829376,-0.36320803,-1.7969239,6.8616576,96.0
120,5.4646177,2.3033066,-0.8728218,-0.36320803,-1.7969239,6.8616576,96.0
121,5.4646177,2.3033066,-0.8728218,-1.4719483,-1.903125,6.412427,96.0
122,5.4646177,2.3033066,-0.8728218,-2.001892,-1.5016845,6.0088625,96.0
123,6.343032,-0.30574036,-1.7463303,-2.001892,-1.5016845,6.0088625,96.0
124,7.083667,-1.4263077,-1.9050751,-2.001892,-1.5016845,6.0088625,96.0
125,7.083667,-1.4263077,-1.9050751,-2.1505737,-1.1597168,5.8293824,96.0
126,7.293813,-1.6705017,-1.2204475,-2.1505737,-1.1597168,5.8293824,96.0
127,7.293813,-1.6705017,-1.2204475,-2.0210083,-1.0163453,5.78053,96.0
128,7.2176557,-1.510582,-0.21085358,-2.0210083,-1.0163453,5.78053,96.0
129,7.2176557,-1.510582,-0.21085358,-1.9211792,-0.9876709,5.9876223,96.0
130,6.9263706,-1.2253952,0.7438431,-1.9211792,-0.9876709,5.9876223,96.0
131,6.9263706,-1.2253952,0.7438431,-2.0496826,-1.2351197,6.3943725,96.0
132,6.294649,-1.215744,1.2959557,-2.0496826,-1.2351197,6.3943725,96.0
133,6.294649,-1.215744,1.2959557,-2.440503,-1.6652344,6.697046,96.0
134,5.297963,-1.5965805,1.1683426,-2.440503,-1.6652344,6.697046,96.0
135,5.297963,-1.5965805,1.1683426,-3.175415,-1.9721558,6.7352786,96.0
136,4.1483803,-2.157318,0.32852173,-3.175415,-1.9721558,6.7352786,96.0
137,4.1483803,-2.157318,0.32852173,-3.175415,-1.9721558,6.7352786,96.0
138,4.1483803,-2.157318,0.32852173,-4.1535277,-2.2302246,6.5515504,96.0
139,2.9366245,-2.7864876,-1.1951752,-4.1535277,-2.2302246,6.5515504,96.0
140,2.9366245,-2.7864876,-1.1951752,-5.131641,-2.080481,6.1883426,96.0
141,2.0027542,-3.5945244,-3.1472282,-5.131641,-2.080481,6.1883426,96.0
142,2.0027542,-3.5945244,-3.1472282,-5.804956,-1.5770874,5.5798097,96.0
143,1.2782412,-4.5980835,-4.731308,-5.804956,-1.5770874,5.5798097,96.0
144,1.2782412,-4.5980835,-4.731308,-6.137366,-0.56392825,4.635681,96.0
145,-0.025734901,-5.4592743,-5.1545906,-6.137366,-0.56392825,4.635681,96.0
146,-0.025734901,-5.4592743,-5.1545906,-5.9069095,0.13275146,3.6756227,96.0
147,-1.9008121,-5.85421,-4.3530807,-5.9069095,0.13275146,3.6756227,96.0
148,-1.9008121,-5.85421,-4.3530807,-5.149695,0.66481936,2.822827,96.0
149,-3.5720778,-5.8204193,-2.9060364,-5.149695,0.66481936,2.822827,96.0
150,-3.5720778,-5.8204193,-2.9060364,-3.9719238,0.90695804,1.9233032,96.0
151,-4.571334,-5.49115,-1.3625832,-3.9719238,0.90695804,1.9233032,96.0
152,-4.571334,-5.49115,-1.3625832,-2.4235108,0.7625244,1.0312134,96.0
153,-4.7119865,-4.7724,-0.16631317,-2.4235108,0.7625244,1.0312134,96.0
154,-4.7119865,-4.7724,-0.16631317,-0.8867798,0.4333008,0.1901001,96.0
155,-3.994113,-3.4856796,0.5332718,-0.8867798,0.4333008,0.1901001,96.0
156,-3.994113,-3.4856796,0.5332718,0.18903808,0.118945315,-0.3727661,96.0
157,-2.8550806,-1.9611053,0.86421585,0.18903808,0.118945315,-0.3727661,96.0
158,-2.8550806,-1.9611053,0.86421585,0.79119873,-0.46409914,-0.6531372,96.0
159,-1.861762,-0.82218933,0.8173256,0.79119873,-0.46409914,-0.6531372,96.0
160,-1.861762,-0.82218933,0.8173256,1.0790039,-0.9791748,-0.7126099,96.0
161,-1.2464166,-0.30202484,0.26651764,1.0790039,-0.9791748,-0.7126099,96.0
162,-1.2464166,-0.30202484,0.26651764,1.002539,-1.2542359,-0.78164065,96.0
163,-0.8460469,-0.27897644,-0.7411461,1.002539,-1.2542359,-0.78164065,96.0
164,-0.8460469,-0.27897644,-0.7411461,0.65632325,-1.1204224,-0.94625247,96.0
165,-0.6096258,-0.45282745,-1.8069687,0.65632325,-1.1204224,-0.94625247,96.0
166,-0.6096258,-0.45282745,-1.8069687,0.11363526,-0.5872925,-1.2574219,96.0
167,-0.7704277,-0.4394989,-2.4423294,0.11363526,-0.5872925,-1.2574219,96.0
168,-0.7704277,-0.4394989,-2.4423294,-0.61702883,0.02442627,-1.5855836,96.0
169,-1.0689545,-0.16980743,-2.5929985,-0.61702883,0.02442627,-1.5855836,96.0
170,-1.0689545,-0.16980743,-2.5929985,-1.3466309,0.57561034,-1.8489624,96.0
171,-0.8767338,-0.08226776,-2.4111404,-1.3466309,0.57561034,-1.8489624,96.0
172,-0.8767338,-0.08226776,-2.4111404,-1.5611572,1.080066,-2.0560548,96.0
173,-0.12022257,-0.38300323,-1.9131546,-1.5611572,1.080066,-2.0560548,96.0
174,-0.12022257,-0.38300323,-1.9131546,-1.1862671,1.5558472,-2.267395,96.0
175,0.67762566,-0.6634598,-1.1149979,-1.1862671,1.5558472,-2.267395,96.0
176,0.67762566,-0.6634598,-1.1149979,-0.48427734,1.7077149,-2.5711305,96.0
177,1.12888,-0.4248581,-0.36492157,-0.48427734,1.7077149,-2.5711305,96.0
178,1.12888,-0.4248581,-0.36492157,0.25700685,1.5972656,-2.7984009,96.0
179,1.2102203,0.40209198,-0.053546906,0.25700685,1.5972656,-2.7984009,96.0
180,1.2102203,0.40209198,-0.053546906,0.6977417,1.4284058,-2.89823,96.0
181,1.1044436,1.2916794,-0.09862518,0.6977417,1.4284058,-2.89823,96.0
182,1.1044436,1.2916794,-0.09862518,0.80606693,1.2085694,-2.8504395,96.0
183,0.97800064,1.6914215,-0.26555634,0.80606693,1.2085694,-2.8504395,96.0
184,0.97800064,1.6914215,-0.26555634,0.81243896,1.0322754,-2.7537963,96.0
185,0.80952454,1.5862808,-0.33353806,0.81243896,1.0322754,-2.7537963,96.0
186,0.80952454,1.5862808,-0.33353806,0.7699585,0.85491943,-2.6390991,96.0
187,0.493567,1.2827301,-0.1743393,0.7699585,0.85491943,-2.6390991,96.0
188,0.493567,1.2827301,-0.1743393,0.721106,0.6117188,-2.4829834,96.0
189,0.14481688,1.0215912,0.16796112,0.721106,0.6117188,-2.4829834,96.0
190,0.14481688,1.0215912,0.16796112,0.5851685,0.32391357,-2.3003175,96.0
191,0.04792118,0.8701782,0.48067093,0.5851685,0.32391357,-2.3003175,96.0
192,0.04792118,0.8701782,0.48067093,0.4354248,0.047790527,-2.0911012,96.0
193,0.34962845,0.79881287,0.6417999,0.4354248,0.047790527,-2.0911012,96.0
194,0.34962845,0.79881287,0.6417999,0.30479738,-0.22939454,-1.7852417,96.0
195,0.79916096,0.7696533,0.69944,0.30479738,-0.22939454,-1.7852417,96.0
196,0.79916096,0.7696533,0.69944,0.10195313,-0.5543701,-1.4347779,96.0
197,1.1251078,0.7797241,0.6836128,0.10195313,-0.5543701,-1.4347779,96.0
198,1.1251078,0.7797241,0.6836128,-0.23151855,-0.83049315,-1.0343994,96.0
199,1.2493658,0.75761414,0.48849106,-0.23151855,-0.83049315,-1.0343994,96.0
200,1.2493658,0.75761414,0.48849106,-0.6138428,-1.0280274,-0.63720703,96.0
201,1.1127129,0.55163574,0.17499542,-0.6138428,-1.0280274,-0.63720703,96.0
202,1.1127129,0.55163574,0.17499542,-0.9483765,-1.1342286,-0.24744873,96.0
203,0.78548336,0.13722992,-0.034942627,-0.9483765,-1.1342286,-0.24744873,96.0
204,0.78548336,0.13722992,-0.034942627,-1.1990112,-1.1852051,0.095581055,96.0
205,0.766387,-0.31803894,-0.061367035,-1.1990112,-1.1852051,0.095581055,96.0
206,0.766387,-0.31803894,-0.061367035,-1.4337158,-1.1151123,0.49277344,96.0
207,0.83810997,-0.5600357,0.0578537,-1.4337158,-1.1151123,0.49277344,96.0
208,0.83810997,-0.5600357,0.0578537,-1.7947998,-1.2478638,0.904834,96.0
209,0.5351486,-0.5514679,1.8692017E-4,-1.7947998,-1.2478638,0.904834,96.0
210,0.5351486,-0.5514679,1.8692017E-4,-1.9721558,-1.3466309,1.3933594,96.0
211,0.15872192,-0.43385315,-0.46037292,-1.9721558,-1.3466309,1.3933594,96.0
212,0.15872192,-0.43385315,-0.46037292,-2.0135744,-1.2712281,1.906311,96.0
213,-0.027503014,-0.4277954,-1.225502,-2.0135744,-1.2712281,1.906311,96.0
214,-0.027503014,-0.4277954,-1.225502,-1.8627685,-1.0630738,2.350232,96.0
215,0.18071938,-0.7673111,-1.9138107,-1.8627685,-1.0630738,2.350232,96.0
216,0.18071938,-0.7673111,-1.9138107,-1.3253907,-0.54906005,2.6210449,96.0
217,0.5916338,-1.3252106,-2.065216,-1.3253907,-0.54906005,2.6210449,96.0
218,0.5916338,-1.3252106,-2.065216,-0.58410645,-0.07646485,2.6943238,96.0
219,0.81894875,-1.6937714,-1.6777573,-0.58410645,-0.07646485,2.6943238,96.0
220,0.81894875,-1.6937714,-1.6777573,0.014868164,0.3440918,2.6677735,96.0
221,0.5237751,-1.6241913,-1.0732117,0.014868164,0.3440918,2.6677735,96.0
222,0.5237751,-1.6241913,-1.0732117,0.39506838,0.635083,2.5881226,96.0
223,-0.4922228,-1.309082,-0.48996353,0.39506838,0.635083,2.5881226,96.0
224,-0.4922228,-1.309082,-0.48996353,0.5055176,0.7338501,2.4606812,96.0
225,-1.8911171,-1.0802002,-0.09026337,0.5055176,0.7338501,2.4606812,96.0
226,-1.8911171,-1.0802002,-0.09026337,0.4725952,0.68074954,2.3077514,96.0
227,-3.0203276,-1.024437,0.103141785,0.4725952,0.68074954,2.3077514,96.0
228,-3.0203276,-1.024437,0.103141785,0.33878174,0.58198243,2.1898682,96.0
229,-3.4018579,-1.0968323,0.152668,0.33878174,0.58198243,2.1898682,96.0
230,-3.4018579,-1.0968323,0.152668,0.12850343,0.44073486,2.0210083,96.0
231,-3.0567765,-1.2035599,0.13467026,0.12850343,0.44073486,2.0210083,96.0
232,-3.0567765,-1.2035599,0.13467026,-0.027612304,0.31116945,1.8447144,96.0
233,-2.4511223,-1.1869354,0.16635513,-0.027612304,0.31116945,1.8447144,96.0
234,-2.4511223,-1.1869354,0.16635513,-0.23045655,0.09451904,1.7119629,96.0
235,-1.9048796,-0.9412079,0.25421524,-0.23045655,0.09451904,1.7119629,96.0
236,-1.9048796,-0.9412079,0.25421524,-0.56817627,-0.13168946,1.6046997,96.0
237,-1.3584619,-0.58984375,0.22320938,-0.56817627,-0.13168946,1.6046997,96.0
238,-1.3584619,-0.58984375,0.22320938,-0.94731444,-0.29205322,1.6185058,96.0
239,-0.75007534,-0.39105225,-0.061153412,-0.94731444,-0.29205322,1.6185058,96.0
240,-0.75007534,-0.39105225,-0.061153412,-1.2468017,-0.32285157,1.5877075,96.0
241,-0.21981144,-0.38777924,-0.4391098,-1.2468017,-0.32285157,1.5877075,96.0
242,-0.21981144,-0.38777924,-0.4391098,-1.3476928,-0.27399904,1.5802735,96.0
243,0.017864227,-0.43042755,-0.68745804,-1.3476928,-0.27399904,1.5802735,96.0
244,0.017864227,-0.43042755,-0.68745804,-1.3476928,-0.17947999,1.6025757,96.0
245,0.017864227,-0.43042755,-0.68745804,-1.3476928,-0.17947999,1.6025757,95.0
246,-0.019888401,-0.41082,-0.7870407,-1.3476928,-0.17947999,1.6025757,95.0
247,-0.019888401,-0.41082,-0.7870407,-1.2319336,-0.0180542,1.632312,95.0
248,-0.06735134,-0.36062622,-0.8185959,-1.2319336,-0.0180542,1.632312,95.0
249,-0.06735134,-0.36062622,-0.8185959,-0.9632446,0.16354981,1.6970948,95.0
250,0.040063858,-0.34376526,-0.89977264,-0.9632446,0.16354981,1.6970948,95.0
251,0.040063858,-0.34376526,-0.89977264,-0.45772704,0.43011475,1.7544434,95.0
252,0.089143276,-0.27614594,-0.89525986,-0.45772704,0.43011475,1.7544434,95.0
253,0.089143276,-0.27614594,-0.89525986,0.12850343,0.6467652,1.7979859,95.0
254,-0.040379524,-0.01461792,-0.665123,0.12850343,0.6467652,1.7979859,95.0
255,-0.040379524,-0.01461792,-0.665123,0.55968016,0.7954468,1.7746216,95.0
256,-0.114163876,0.37226105,-0.28329468,0.55968016,0.7954468,1.7746216,95.0
257,-0.114163876,0.37226105,-0.28329468,0.90695804,0.8995239,1.6609863,95.0
258,0.26689672,0.6716461,0.07745361,0.90695804,0.8995239,1.6609863,95.0
259,0.26689672,0.6716461,0.07745361,1.1894531,0.98873293,1.4634522,95.0
260,0.4786787,0.6724167,0.05861664,1.1894531,0.98873293,1.4634522,95.0
261,0.4786787,0.6724167,0.05861664,1.5515991,0.94731444,1.1682129,95.0
262,-0.07543087,0.4884796,-0.17943573,1.5515991,0.94731444,1.1682129,95.0
263,-0.07543087,0.4884796,-0.17943573,1.9498535,0.9759888,0.6138428,95.0
264,-0.8603811,0.26262665,0.048957825,1.9498535,0.9759888,0.6138428,95.0
265,-0.8603811,0.26262665,0.048957825,2.1962402,0.9324463,0.035046387,95.0
266,-1.2389398,-0.21981812,0.92926407,2.1962402,0.9324463,0.035046387,95.0
267,-1.2389398,-0.21981812,0.92926407,2.2886353,0.50020754,-0.8326172,95.0
268,-0.9484396,-0.7552109,2.000126,2.2886353,0.50020754,-0.8326172,95.0
269,-0.9484396,-0.7552109,2.000126,2.3927124,-0.10620117,-1.6875366,95.0
270,-0.19533587,-0.89138794,2.7496376,2.3927124,-0.10620117,-1.6875366,95.0
271,-0.19533587,-0.89138794,2.7496376,2.6868896,-0.89421386,-2.3757203,95.0
272,0.8007746,-0.5738754,2.9804344,2.6868896,-0.89421386,-2.3757203,95.0
273,0.8007746,-0.5738754,2.9804344,3.0267334,-1.5335449,-2.822827,95.0
274,1.783576,-0.07384491,2.7254105,3.0267334,-1.5335449,-2.822827,95.0
275,1.783576,-0.07384491,2.7254105,3.2062135,-2.1335816,-3.1509888,95.0
276,2.3771782,0.27772522,2.11269,3.2062135,-2.1335816,-3.1509888,95.0
277,2.3771782,0.27772522,2.11269,3.4186158,-2.4744873,-3.4706542,95.0
278,2.4284883,0.4939804,1.4783478,3.4186158,-2.4744873,-3.4706542,95.0
279,2.4284883,0.4939804,1.4783478,3.516321,-2.5573242,-3.7892578,95.0
280,2.1198902,0.78811646,1.1902847,3.516321,-2.5573242,-3.7892578,95.0
281,2.1198902,0.78811646,1.1902847,3.454724,-2.546704,-4.0207763,95.0
282,1.7304826,1.1632309,1.1033249,3.454724,-2.546704,-4.0207763,95.0
283,1.7304826,1.1632309,1.1033249,3.1074464,-2.451123,-4.1938844,95.0
284,1.4884872,1.5283661,0.86663055,3.1074464,-2.451123,-4.1938844,95.0
285,1.4884872,1.5283661,0.86663055,2.5955567,-2.1813722,-4.286279,95.0
286,1.3679743,1.904274,0.56287384,2.5955567,-2.1813722,-4.286279,95.0
287,1.3679743,1.904274,0.56287384,2.0231323,-1.8691406,-4.13866,95.0
288,1.2114086,2.2976608,0.42860794,2.0231323,-1.8691406,-4.13866,95.0
289,1.2114086,2.2976608,0.42860794,1.4984986,-1.6461182,-3.809436,95.0
290,0.98067474,2.5885468,0.4480133,1.4984986,-1.6461182,-3.809436,95.0
291,0.98067474,2.5885468,0.4480133,1.1034302,-1.4294678,-3.3187866,95.0
292,0.7444277,2.5408401,0.49558258,1.1034302,-1.4294678,-3.3187866,95.0
293,0.7444277,2.5408401,0.49558258,0.90802,-1.268042,-2.7516725,95.0
294,0.5036106,2.1233978,0.52937317,0.90802,-1.268042,-2.7516725,95.0
295,0.5036106,2.1233978,0.52937317,0.8772217,-1.1618408,-2.2057984,95.0
296,0.3607006,1.6168823,0.5662117,0.8772217,-1.1618408,-2.2057984,95.0
297,0.3607006,1.6168823,0.5662117,0.9632446,-1.1469727,-1.6726685,95.0
298,0.42828178,1.2813492,0.46044922,0.9632446,-1.1469727,-1.6726685,95.0
299,0.42828178,1.2813492,0.46044922,1.1140503,-1.1459106,-1.176709,95.0
300,0.6419172,1.2444763,0.21762848,1.1140503,-1.1459106,-1.176709,95.0
301,0.6419172,1.2444763,0.21762848,1.1522827,-1.084314,-0.7412842,95.0
302,0.9552326,1.4601288,0.0796814,1.1522827,-1.084314,-0.7412842,95.0
303,0.9552326,1.4601288,0.0796814,0.8644776,-1.0567017,-0.29630128,95.0
304,1.3435564,1.6510773,0.020523071,0.8644776,-1.0567017,-0.29630128,95.0
305,1.3435564,1.6510773,0.020523071,0.3536499,-0.991919,0.07752686,95.0
306,1.4968548,1.6344604,-0.06853104,0.3536499,-0.991919,0.07752686,95.0
307,1.4968548,1.6344604,-0.06853104,-0.33028564,-0.87191164,0.34090576,95.0
308,1.0500841,1.4053574,-0.17900848,-0.33028564,-0.87191164,0.34090576,95.0
309,1.0500841,1.4053574,-0.17900848,-1.1629028,-0.8251831,0.46728516,95.0
310,0.64036083,0.67845917,-0.31936646,-1.1629028,-0.8251831,0.46728516,95.0
311,0.64036083,0.67845917,-0.31936646,-1.8893188,-0.68924564,0.5235718,95.0
312,1.02806,-0.60295105,-0.21931076,-1.8893188,-0.68924564,0.5235718,95.0
313,1.02806,-0.60295105,-0.21931076,-2.7060058,-0.32072756,0.43967286,95.0
314,1.2048454,-1.7527695,-0.014205933,-2.7060058,-0.32072756,0.43967286,95.0
315,1.2048454,-1.7527695,-0.014205933,-3.535437,-0.26550293,0.40993652,95.0
316,0.70414734,-2.3294144,-0.49752426,-3.535437,-0.26550293,0.40993652,95.0
317,0.70414734,-2.3294144,-0.49752426,-3.9283814,-0.05522461,0.65419924,95.0
318,0.39111328,-2.3042297,-1.6615944,-3.9283814,-0.05522461,0.65419924,95.0
319,0.39111328,-2.3042297,-1.6615944,-3.7297852,0.5894165,1.2181275,95.0
320,0.26381874,-1.7349701,-2.234356,-3.7297852,0.5894165,1.2181275,95.0
321,0.26381874,-1.7349701,-2.234356,-3.2083375,1.1873292,2.0454347,95.0
322,0.090681076,-1.241272,-1.9081879,-3.2083375,1.1873292,2.0454347,95.0
323,0.090681076,-1.241272,-1.9081879,-2.2716432,1.1395386,3.0182374,95.0
324,0.33107758,-1.3560562,-1.5338631,-2.2716432,1.1395386,3.0182374,95.0
325,0.33107758,-1.3560562,-1.5338631,-0.74871826,1.5813354,3.6766846,95.0
326,0.7948427,-1.6840363,-1.1997108,-0.74871826,1.5813354,3.6766846,95.0
327,0.7948427,-1.6840363,-1.1997108,0.54587406,1.9753418,3.9655519,95.0
328,0.6867161,-1.7099228,-0.5348282,0.54587406,1.9753418,3.9655519,95.0
329,0.6867161,-1.7099228,-0.5348282,1.4315919,2.170752,4.0218387,95.0
330,-0.26108837,-1.3588791,0.2806816,1.4315919,2.170752,4.0218387,95.0
331,-0.26108837,-1.3588791,0.2806816,1.7831177,2.2440307,3.9368775,95.0
332,-1.6168423,-0.7604065,0.831089,1.7831177,2.2440307,3.9368775,95.0
333,-1.6168423,-0.7604065,0.831089,1.5515991,2.1941164,3.7743897,95.0
334,-2.7179127,-0.15155792,1.0316925,1.5515991,2.1941164,3.7743897,95.0
335,-2.7179127,-0.15155792,1.0316925,0.7678345,2.1155274,3.5853517,95.0
336,-3.2485237,0.08855438,1.1056404,0.7678345,2.1155274,3.5853517,95.0
337,-3.2485237,0.08855438,1.1056404,-0.30054933,1.809668,3.440918,95.0
338,-3.2554474,-0.25945282,0.97581863,-0.30054933,1.809668,3.440918,95.0
339,-3.2554474,-0.25945282,0.97581863,-1.2786621,1.4326538,3.2040894,95.0
340,-2.866394,-0.8071747,0.49110413,-1.2786621,1.4326538,3.2040894,95.0
341,-2.866394,-0.8071747,0.49110413,-1.9572877,1.1544068,3.0543458,95.0
342,-2.3245726,-0.9894028,-0.14655685,-1.9572877,1.1544068,3.0543458,95.0
343,-2.3245726,-0.9894028,-0.14655685,-2.356604,0.903772,2.9640749,95.0
344,-1.9723654,-0.80542755,-0.58849716,-2.356604,0.903772,2.9640749,95.0
345,-1.9723654,-0.80542755,-0.58849716,-2.5881226,0.67650145,2.8738039,95.0
346,-1.8958368,-0.6199875,-0.77127457,-2.5881226,0.67650145,2.8738039,95.0
347,-1.8958368,-0.6199875,-0.77127457,-2.6401613,0.45666504,2.7346802,95.0
348,-2.0203319,-0.6062546,-0.8611374,-2.6401613,0.45666504,2.7346802,95.0
349,-2.0203319,-0.6062546,-0.8611374,-2.5636964,0.25913087,2.532898,95.0
350,-2.153717,-0.71082306,-1.0646553,-2.5636964,0.25913087,2.532898,95.0
351,-2.153717,-0.71082306,-1.0646553,-2.3757203,0.13168946,2.262085,95.0
352,-2.0474977,-0.7830124,-1.373146,-2.3757203,0.13168946,2.262085,95.0
353,-2.0474977,-0.7830124,-1.373146,-2.0210083,0.1731079,1.9296753,95.0
354,-1.8129373,-0.63599396,-1.5078659,-2.0210083,0.1731079,1.9296753,95.0
355,-1.8129373,-0.63599396,-1.5078659,-1.6163819,0.20603028,1.5898316,95.0
356,-1.6166706,-0.29367065,-1.3686104,-1.6163819,0.20603028,1.5898316,95.0
357,-1.6166706,-0.29367065,-1.3686104,-1.1459106,0.22302246,1.264856,95.0
358,-1.5312638,0.02016449,-1.0070229,-1.1459106,0.22302246,1.264856,95.0
359,-1.5312638,0.02016449,-1.0070229,-0.6488892,0.21134034,0.8973999,95.0
360,-1.5312638,0.02016449,-1.0070229,-0.6488892,0.21134034,0.8973999,94.0
361,-1.3367662,0.2239685,-0.48989487,-0.6488892,0.21134034,0.8973999,94.0
362,-1.3367662,0.2239685,-0.48989487,-0.38444826,0.09451904,0.44498292,94.0
363,-0.7791908,0.2957306,-0.22102737,-0.38444826,0.09451904,0.44498292,94.0
364,-0.7791908,0.2957306,-0.22102737,-0.13912354,0.07646485,0.008496094,94.0
365,-0.4502449,0.21522522,-0.35721588,-0.13912354,0.07646485,0.008496094,94.0
366,-0.4502449,0.21522522,-0.35721588,0.08071289,-0.04248047,-0.49489745,94.0
367,-0.64347243,0.050704956,-0.4248848,0.08071289,-0.04248047,-0.49489745,94.0
368,-0.64347243,0.050704956,-0.4248848,0.20496826,-0.028674318,-1.0174073,94.0
369,-0.8083935,-0.21002197,-0.15884018,0.20496826,-0.028674318,-1.0174073,94.0
370,-0.8083935,-0.21002197,-0.15884018,0.43754885,-0.20284425,-1.5664673,94.0
371,-0.42103124,-0.49552155,0.3047409,0.43754885,-0.20284425,-1.5664673,94.0
372,-0.42103124,-0.49552155,0.3047409,1.0057251,-0.3812622,-2.077295,94.0
373,0.66018414,-0.58283234,0.76477814,1.0057251,-0.3812622,-2.077295,94.0
374,0.66018414,-0.58283234,0.76477814,1.7799317,-0.62127686,-2.5020998,94.0
375,2.1655498,-0.4083786,1.1643486,1.7799317,-0.62127686,-2.5020998,94.0
376,2.1655498,-0.4083786,1.1643486,2.611487,-0.88253176,-2.8801758,94.0
377,3.4090023,-0.11860657,1.472786,2.611487,-0.88253176,-2.8801758,94.0
378,3.4090023,-0.11860657,1.472786,3.2040894,-1.2138795,-3.2752442,94.0
379,4.032817,0.15589905,1.7026176,3.2040894,-1.2138795,-3.2752442,94.0
380,4.032817,0.15589905,1.7026176,3.4154298,-1.44646,-3.6894288,94.0
381,3.9657679,0.3664322,1.7472153,3.4154298,-1.44646,-3.6894288,94.0
382,3.9657679,0.3664322,1.7472153,3.3633912,-1.7884277,-4.12804,94.0
383,3.2058783,0.5977936,1.5755577,3.3633912,-1.7884277,-4.12804,94.0
384,3.2058783,0.5977936,1.5755577,3.1031983,-1.9360474,-4.5029297,94.0
385,2.3649588,0.92935944,1.3501053,3.1031983,-1.9360474,-4.5029297,94.0
386,2.3649588,0.92935944,1.3501053,2.7421143,-2.0677369,-4.7854247,94.0
387,1.979186,1.2940826,1.1276169,2.7421143,-2.0677369,-4.7854247,94.0
388,1.979186,1.2940826,1.1276169,2.4351928,-2.1144655,-4.964905,94.0
389,2.0330315,1.6335831,0.9352722,2.4351928,-2.1144655,-4.964905,94.0
390,2.0330315,1.6335831,0.9352722,2.2068603,-2.151636,-5.0328736,94.0
391,2.159091,1.9027023,0.8135605,2.2068603,-2.151636,-5.0328736,94.0
392,2.159091,1.9027023,0.8135605,2.069861,-2.182434,-4.9436646,94.0
393,2.0653715,2.1352615,0.6686325,2.069861,-2.182434,-4.9436646,94.0
394,2.0653715,2.1352615,0.6686325,2.0518067,-2.16969,-4.710022,94.0
395,1.7219381,2.3715973,0.4367981,2.0518067,-2.16969,-4.710022,94.0
396,1.7219381,2.3715973,0.4367981,2.073047,-2.1261475,-4.352124,94.0
397,1.2649155,2.5848236,0.15955734,2.073047,-2.1261475,-4.352124,94.0
398,1.2649155,2.5848236,0.15955734,2.080481,-1.991272,-3.891211,94.0
399,0.905694,2.7375336,-0.109745026,2.080481,-1.991272,-3.891211,94.0
400,0.905694,2.7375336,-0.109745026,1.9190552,-1.8362182,-3.3687012,94.0
401,0.76281166,2.774582,-0.3775177,1.9190552,-1.8362182,-3.3687012,94.0
402,0.76281166,2.774582,-0.3775177,1.628064,-1.5930176,-2.8164551,94.0
403,0.71497345,2.6445312,-0.5770035,1.628064,-1.5930176,-2.8164551,94.0
404,0.71497345,2.6445312,-0.5770035,1.2754761,-1.3296387,-2.250403,94.0
405,0.40597534,2.4242554,-0.5457077,1.2754761,-1.3296387,-2.250403,94.0
406,0.40597534,2.4242554,-0.5457077,0.75721437,-1.1575928,-1.7151489,94.0
407,-0.255579,2.173256,-0.25411987,0.75721437,-1.1575928,-1.7151489,94.0
408,-0.255579,2.173256,-0.25411987,0.040356446,-1.089624,-1.2128174,94.0
409,-0.80005646,1.7586365,0.046836853,0.040356446,-1.089624,-1.2128174,94.0
410,-0.80005646,1.7586365,0.046836853,-0.7083618,-1.0630738,-0.817749,94.0
411,-0.44646645,1.1064835,0.0100746155,-0.7083618,-1.0630738,-0.817749,94.0
412,-0.44646645,1.1064835,0.0100746155,-1.2722901,-0.7858887,-0.36320803,94.0
413,0.2095623,0.48294067,-0.18699646,-1.2722901,-0.7858887,-0.36320803,94.0
414,0.2095623,0.48294067,-0.18699646,-1.5760254,-0.46728516,0.08496094,94.0
415,0.15186596,0.11395264,-0.3012085,-1.5760254,-0.46728516,0.08496094,94.0
416,0.15186596,0.11395264,-0.3012085,-1.8404664,-0.19753419,0.64782715,94.0
417,-0.20157814,-0.12845612,-0.6094208,-1.8404664,-0.19753419,0.64782715,94.0
418,-0.20157814,-0.12845612,-0.6094208,-1.9583496,0.24001466,1.2468017,94.0
419,-0.26419258,-0.38037872,-1.1335182,-1.9583496,0.24001466,1.2468017,94.0
420,-0.26419258,-0.38037872,-1.1335182,-1.9371094,0.8326172,1.8500245,94.0
421,-0.08698845,-0.6355057,-1.2582321,-1.9371094,0.8326172,1.8500245,94.0
422,-0.08698845,-0.6355057,-1.2582321,-1.9753418,1.2563599,2.3651001,94.0
423,0.05545807,-0.9238434,-0.72045517,-1.9753418,1.2563599,2.3651001,94.0
424,0.05545807,-0.9238434,-0.72045517,-2.005078,1.4974365,2.884424,94.0
425,0.23740864,-1.2579803,-0.061950684,-2.005078,1.4974365,2.884424,94.0
426,0.23740864,-1.2579803,-0.061950684,-1.9349854,1.634436,3.4005616,94.0
427,0.48980522,-1.5197144,0.19715881,-1.9349854,1.634436,3.4005616,94.0
428,0.48980522,-1.5197144,0.19715881,-1.7236451,1.7597535,3.9082031,94.0
429,0.49018383,-1.6360092,0.14460754,-1.7236451,1.7597535,3.9082031,94.0
430,0.49018383,-1.6360092,0.14460754,-1.5292969,1.906311,4.347876,94.0
431,0.062458992,-1.7099838,0.07089996,-1.5292969,1.906311,4.347876,94.0
432,0.062458992,-1.7099838,0.07089996,-1.4623902,1.9987061,4.715332,94.0
433,-0.44875145,-1.8032303,0.02999878,-1.4623902,1.9987061,4.715332,94.0
434,-0.44875145,-1.8032303,0.02999878,-1.4857544,2.1017213,4.972339,94.0
435,-0.7203407,-1.91259,0.03263855,-1.4857544,2.1017213,4.972339,94.0
436,-0.7203407,-1.91259,0.03263855,-1.5091187,2.1431396,5.1284547,94.0
437,-1.045682,-2.0943909,0.11342621,-1.5091187,2.1431396,5.1284547,94.0
438,-1.045682,-2.0943909,0.11342621,-1.4942505,2.1325195,5.1337647,94.0
439,-0.8025732,-2.2160416,0.47359085,-1.4942505,2.1325195,5.1337647,94.0
440,-0.8025732,-2.2160416,0.47359085,-1.3115845,1.8224121,5.074292,94.0
441,-1.0868826,-2.1783142,0.5262718,-1.3115845,1.8224121,5.074292,94.0
442,-1.0868826,-2.1783142,0.5262718,-1.2584839,1.7140869,5.0180054,94.0
443,-0.7378168,-1.6633072,0.65551376,-1.2584839,1.7140869,5.0180054,94.0
444,-0.7378168,-1.6633072,0.65551376,-1.4039795,1.3094605,4.727014,94.0
445,-1.1037426,-1.4276199,0.33268738,-1.4039795,1.3094605,4.727014,94.0
446,-1.1037426,-1.4276199,0.33268738,-1.5091187,1.2351197,4.590015,94.0
447,-1.5865707,-0.7610016,-0.3167839,-1.5091187,1.2351197,4.590015,94.0
448,-1.5865707,-0.7610016,-0.3167839,-2.1272094,0.9420044,4.078125,94.0
449,-2.0775452,-0.61486816,-0.70027924,-2.1272094,0.9420044,4.078125,94.0
450,-2.0775452,-0.61486816,-0.70027924,-2.3725343,0.8782837,3.8752809,94.0
451,-2.601697,-0.655983,-1.4190521,-2.3725343,0.8782837,3.8752809,94.0
452,-2.601697,-0.655983,-1.4190521,-2.6051147,0.7890747,3.1265626,94.0
453,-2.556919,-0.80176544,-1.6775246,-2.6051147,0.7890747,3.1265626,94.0
454,-2.556919,-0.80176544,-1.6775246,-2.4946656,0.81243896,2.8323853,94.0
455,-2.4794827,-1.1488342,-1.864212,-2.4946656,0.81243896,2.8323853,94.0
456,-2.4794827,-1.1488342,-1.864212,-1.8277222,0.70198977,1.9753418,94.0
457,-2.4896407,-0.8172531,-1.7025146,-1.8277222,0.70198977,1.9753418,94.0
458,-2.4896407,-0.8172531,-1.7025146,-1.5197388,0.6446411,1.7618774,94.0
459,-2.8944101,0.40412903,-1.3325081,-1.5197388,0.6446411,1.7618774,94.0
460,-2.8944101,0.40412903,-1.3325081,-0.4609131,0.46622315,1.2436157,94.0
461,-2.6313972,0.7244873,-1.1994438,-0.4609131,0.46622315,1.2436157,94.0
462,-2.6313972,0.7244873,-1.1994438,-0.004248047,0.4056885,1.1023682,94.0
463,-3.1624422,1.047142,-1.3995934,-0.004248047,0.4056885,1.1023682,94.0
464,-3.1624422,1.047142,-1.3995934,1.083252,0.270813,0.3982544,94.0
465,-3.066331,0.69182587,-0.9341278,1.083252,0.270813,0.3982544,94.0
466,-3.066331,0.69182587,-0.9341278,1.2563599,0.15611573,0.06903076,94.0
467,-3.24076,-0.14205933,-0.16801834,1.2563599,0.15611573,0.06903076,94.0
468,-3.24076,-0.14205933,-0.16801834,1.4061035,-0.22196046,-0.814563,94.0
469,-2.580926,-0.73731995,0.64380646,1.4061035,-0.22196046,-0.814563,94.0
470,-2.580926,-0.73731995,0.64380646,1.6376221,-0.6754395,-1.6694825,94.0
471,-1.2187569,-0.7364502,1.2565384,1.6376221,-0.6754395,-1.6694825,94.0
472,-1.2187569,-0.7364502,1.2565384,2.0964112,-1.1841431,-2.3056276,94.0
473,0.48047543,-0.49775696,1.6809998,2.0964112,-1.1841431,-2.3056276,94.0
474,0.48047543,-0.49775696,1.6809998,2.5552003,-1.5898316,-2.812207,94.0
475,2.854522,-0.5908356,2.0790634,2.5552003,-1.5898316,-2.812207,94.0
476,2.854522,-0.5908356,2.0790634,2.9789429,-2.1866822,-3.5322511,94.0
477,3.4795403,-0.45454407,2.1104546,2.9789429,-2.1866822,-3.5322511,94.0
478,3.4795403,-0.45454407,2.1104546,3.0373535,-2.351294,-3.7637696,94.0
479,4.027578,-0.56355286,1.899437,3.0373535,-2.351294,-3.7637696,94.0
480,4.027578,-0.56355286,1.899437,2.9513307,-2.6667116,-4.3563724,94.0
481,3.8821578,-0.10912323,1.7493095,2.9513307,-2.6667116,-4.3563724,94.0
482,3.8821578,-0.10912323,1.7493095,2.8642457,-2.6996338,-4.4816895,94.0
483,3.5373182,0.40864563,1.6197586,2.8642457,-2.6996338,-4.4816895,94.0
484,3.5373182,0.40864563,1.6197586,2.6359131,-2.804773,-4.647363,94.0
485,3.3378134,0.9253082,1.470562,2.6359131,-2.804773,-4.647363,94.0
486,3.3378134,0.9253082,1.470562,2.433069,-2.812207,-4.71427,94.0
487,3.3513546,1.3189926,1.2476387,2.433069,-2.812207,-4.71427,94.0
488,3.3513546,1.3189926,1.2476387,2.3236816,-2.788843,-4.6792235,94.0
489,3.4600754,1.5836716,0.98654175,2.3236816,-2.788843,-4.6792235,94.0
490,3.4600754,1.5836716,0.98654175,2.3289917,-2.716626,-4.532666,94.0
491,3.4986029,1.8013611,0.69555664,2.3289917,-2.716626,-4.532666,94.0
492,3.4986029,1.8013611,0.69555664,2.4012086,-2.633789,-4.3117676,94.0
493,3.3626404,2.0572052,0.40875244,2.4012086,-2.633789,-4.3117676,94.0
494,3.3626404,2.0572052,0.40875244,2.4670532,-2.538208,-4.0165286,94.0
495,3.0850344,2.3881226,0.13978577,2.4670532,-2.538208,-4.0165286,94.0
496,3.0850344,2.3881226,0.13978577,2.3789062,-2.4574952,-3.6671264,94.0
497,2.6711407,2.6634064,-0.04517746,2.3789062,-2.4574952,-3.6671264,94.0
498,2.6711407,2.6634064,-0.04517746,2.080481,-2.3884645,-3.2975464,94.0
499,2.6711407,2.6634064,-0.04517746,2.080481,-2.3884645,-3.2975464,93.0
500,2.2530136,2.8602066,-0.09548187,2.080481,-2.3884645,-3.2975464,93.0
501,2.2530136,2.8602066,-0.09548187,1.5335449,-2.4213867,-2.884424,93.0
502,1.8814516,2.8229828,-0.046272278,1.5335449,-2.4213867,-2.884424,93.0
503,1.8814516,2.8229828,-0.046272278,0.7604004,-2.3204956,-2.453247,93.0
504,1.1408424,2.322342,0.05239868,0.7604004,-2.3204956,-2.453247,93.0
505,1.1408424,2.322342,0.05239868,-0.26656494,-2.1484497,-2.182434,93.0
506,0.044070244,1.3483353,0.25330734,-0.26656494,-2.1484497,-2.182434,93.0
507,0.044070244,1.3483353,0.25330734,-1.3614991,-2.0486207,-2.1038454,93.0
508,-0.7082863,0.30580902,0.4989357,-1.3614991,-2.0486207,-2.1038454,93.0
509,-0.7082863,0.30580902,0.4989357,-2.3013794,-1.8627685,-2.0114503,93.0
510,-0.69112873,-0.7834244,0.5678253,-2.3013794,-1.8627685,-2.0114503,93.0
511,-0.69112873,-0.7834244,0.5678253,-2.809021,-1.3094605,-1.7512573,93.0
512,-0.69523716,-1.4982452,0.29701996,-2.809021,-1.3094605,-1.7512573,93.0
513,-0.69523716,-1.4982452,0.29701996,-2.6890137,-1.0906861,-1.4528321,93.0
514,-1.1425304,-1.3671417,-0.40541458,-2.6890137,-1.0906861,-1.4528321,93.0
515,-1.1425304,-1.3671417,-0.40541458,-2.362976,-0.62340087,-0.61702883,93.0
516,-1.2917099,-0.5093384,-1.367569,-2.362976,-0.62340087,-0.61702883,93.0
517,-1.2917099,-0.5093384,-1.367569,-1.9424194,0.038232423,0.4959595,93.0
518,-0.92285824,0.38396454,-2.130005,-1.9424194,0.038232423,0.4959595,93.0
519,-0.92285824,0.38396454,-2.130005,-1.4740723,0.8687256,1.8277222,93.0
520,-0.37363815,0.51272583,-2.4506721,-1.4740723,0.8687256,1.8277222,93.0
521,-0.37363815,0.51272583,-2.4506721,-0.8687256,1.6705445,2.803711,93.0
522,0.05491066,-0.011817932,-2.3180695,-0.8687256,1.6705445,2.803711,93.0
523,0.05491066,-0.011817932,-2.3180695,-0.19541016,2.445813,3.534375,93.0
524,0.35017776,-0.469635,-1.6328735,-0.19541016,2.445813,3.534375,93.0
525,0.35017776,-0.469635,-1.6328735,0.16567384,3.1711671,4.0218387,93.0
526,0.35714436,-0.5182953,-0.3569603,0.16567384,3.1711671,4.0218387,93.0
527,0.35714436,-0.5182953,-0.3569603,0.059472658,3.4950807,4.3903565,93.0
528,-0.01644516,-0.45942688,0.95113754,0.059472658,3.4950807,4.3903565,93.0
529,-0.01644516,-0.45942688,0.95113754,-0.33984375,3.4738405,4.720642,93.0
530,-0.53094196,-0.6463165,1.4955788,-0.33984375,3.4738405,4.720642,93.0
531,-0.53094196,-0.6463165,1.4955788,-0.68074954,3.2890503,4.967029,93.0
532,-0.92944145,-1.0034027,1.1289825,-0.68074954,3.2890503,4.967029,93.0
533,-0.92944145,-1.0034027,1.1289825,-0.7688965,3.2019653,5.2049193,93.0
534,-1.150341,-1.3462601,0.48563004,-0.7688965,3.2019653,5.2049193,93.0
535,-1.150341,-1.3462601,0.48563004,-0.5809204,3.1562989,5.317493,93.0
536,-1.3170128,-1.5459671,0.38622284,-0.5809204,3.1562989,5.317493,93.0
537,-1.3170128,-1.5459671,0.38622284,-0.3154175,3.0862062,5.3026247,93.0
538,-1.554184,-1.4497375,1.0674629,-0.3154175,3.0862062,5.3026247,93.0
539,-1.554184,-1.4497375,1.0674629,-0.39400634,2.732556,5.138013,93.0
540,-1.8458004,-1.0592651,1.903614,-0.39400634,2.732556,5.138013,93.0
541,-1.8458004,-1.0592651,1.903614,-0.9494385,2.162256,4.88844,93.0
542,-2.0394945,-0.66506195,1.9531174,-0.9494385,2.162256,4.88844,93.0
543,-2.0394945,-0.66506195,1.9531174,-1.7629395,1.6163819,4.4880614,93.0
544,-2.1017246,-0.4967804,1.0426674,-1.7629395,1.6163819,4.4880614,93.0
545,-2.1017246,-0.4967804,1.0426674,-2.613611,1.1862671,3.9198854,93.0
546,-2.14991,-0.63726807,-0.29964447,-2.613611,1.1862671,3.9198854,93.0
547,-2.14991,-0.63726807,-0.29964447,-3.2901123,0.8666016,3.2922363,93.0
548,-2.20722,-1.1962051,-1.486908,-3.2901123,0.8666016,3.2922363,93.0
549,-2.20722,-1.1962051,-1.486908,-3.620398,0.8527954,2.531836,93.0
550,-2.211235,-1.9643478,-2.0618172,-3.620398,0.8527954,2.531836,93.0
551,-2.211235,-1.9643478,-2.0618172,-3.7489014,0.8878418,1.7278931,93.0
552,-2.1766176,-2.394928,-2.1710587,-3.7489014,0.8878418,1.7278931,93.0
553,-2.1766176,-2.394928,-2.1710587,-3.4218018,0.9866089,1.1214844,93.0
554,-2.2489357,-2.1649628,-2.1188927,-3.4218018,0.9866089,1.1214844,93.0
555,-2.2489357,-2.1649628,-2.1188927,-2.5785644,1.0949341,0.813501,93.0
556,-2.5509677,-1.3054581,-1.7299385,-2.5785644,1.0949341,0.813501,93.0
557,-2.5509677,-1.3054581,-1.7299385,-1.442212,1.0290893,0.7688965,93.0
558,-2.4213653,-0.19983673,-1.1454849,-1.442212,1.0290893,0.7688965,93.0
559,-2.4213653,-0.19983673,-1.1454849,-0.107263185,0.86341554,0.8931519,93.0
560,-2.0342603,0.6967468,-0.9547806,-0.107263185,0.86341554,0.8931519,93.0
561,-2.0342603,0.6967468,-0.9547806,1.3859253,0.62127686,0.98873293,93.0
562,-2.169828,1.0889511,-0.9370308,1.3859253,0.62127686,0.98873293,93.0
563,-2.169828,1.0889511,-0.9370308,2.442627,0.5363159,0.721106,93.0
564,-2.4674175,0.81775665,-0.37230682,2.442627,0.5363159,0.721106,93.0
565,-2.4674175,0.81775665,-0.37230682,2.885486,0.1996582,0.16248779,93.0
566,-2.2550008,0.09202576,0.4778633,2.885486,0.1996582,0.16248779,93.0
567,-2.2550008,0.09202576,0.4778633,2.8207033,-0.35683593,-0.7412842,93.0
568,-1.3090055,-0.48883057,1.1702805,2.8207033,-0.35683593,-0.7412842,93.0
569,-1.3090055,-0.48883057,1.1702805,2.8461914,-0.9802368,-1.7597535,93.0
570,0.21768832,-0.4825821,1.8387985,2.8461914,-0.9802368,-1.7597535,93.0
571,0.21768832,-0.4825821,1.8387985,3.0925782,-1.7087768,-2.540332,93.0
572,1.9917655,-0.036262512,2.5433655,3.0925782,-1.7087768,-2.540332,93.0
573,1.9917655,-0.036262512,2.5433655,3.1339967,-2.5063477,-3.1000123,93.0
574,3.4399457,0.27983093,2.9422722,3.1339967,-2.5063477,-3.1000123,93.0
575,3.4399457,0.27983093,2.9422722,2.9247804,-3.344275,-3.6384523,93.0
576,4.071207,0.29402924,2.6379623,2.9247804,-3.344275,-3.6384523,93.0
577,4.071207,0.29402924,2.6379623,2.6210449,-3.9273193,-4.166272,93.0
578,3.9148636,0.35704803,1.8492126,2.6210449,-3.9273193,-4.166272,93.0
579,3.9148636,0.35704803,1.8492126,2.2716432,-4.13335,-4.5730224,93.0
580,3.5082455,0.6708679,0.9870453,2.2716432,-4.13335,-4.5730224,93.0
581,3.5082455,0.6708679,0.9870453,1.9243653,-4.134412,-4.881006,93.0
582,3.3074512,1.1395111,0.29985428,1.9243653,-4.134412,-4.881006,93.0
583,3.3074512,1.1395111,0.29985428,1.6620483,-3.8689086,-5.060486,93.0
584,3.3975964,1.5577774,-0.066963196,1.6620483,-3.8689086,-5.060486,93.0
585,3.3975964,1.5577774,-0.066963196,1.5261109,-3.6076539,-5.1114626,93.0
586,3.5775862,1.7941818,-0.17792511,1.5261109,-3.6076539,-5.1114626,93.0
587,3.5775862,1.7941818,-0.17792511,1.5282348,-3.258252,-5.0158815,93.0
588,3.5106163,1.9912415,-0.091537476,1.5282348,-3.258252,-5.0158815,93.0
589,3.5106163,1.9912415,-0.091537476,1.5271729,-2.998059,-4.7418823,93.0
590,2.9650116,2.2594452,0.024551392,1.5271729,-2.998059,-4.7418823,93.0
591,2.9650116,2.2594452,0.024551392,1.5239868,-2.8270752,-4.321326,93.0
592,2.0964108,2.569809,-0.05385971,1.5239868,-2.8270752,-4.321326,93.0
593,2.0964108,2.569809,-0.05385971,1.4623902,-2.6890137,-3.7722657,93.0
594,1.3592567,2.7730103,-0.3201294,1.4623902,-2.6890137,-3.7722657,93.0
595,1.3592567,2.7730103,-0.3201294,1.3200806,-2.5201538,-3.2009034,93.0
596,0.98595333,2.7101593,-0.57666016,1.3200806,-2.5201538,-3.2009034,93.0
597,0.98595333,2.7101593,-0.57666016,1.0970582,-2.3077514,-2.6465333,93.0
598,0.7669735,2.4361343,-0.7086334,1.0970582,-2.3077514,-2.6465333,93.0
599,0.7669735,2.4361343,-0.7086334,0.77526855,-2.1410158,-2.1728761,93.0
600,0.42862988,2.0716858,-0.5928345,0.77526855,-2.1410158,-2.1728761,93.0
601,0.42862988,2.0716858,-0.5928345,0.29311523,-1.9541016,-1.7682495,93.0
602,-0.28339005,1.7665176,-0.2140007,0.29311523,-1.9541016,-1.7682495,93.0
603,-0.28339005,1.7665176,-0.2140007,-0.39613038,-1.8840088,-1.4337158,93.0
604,-1.4011745,1.5506134,0.062309265,-0.39613038,-1.8840088,-1.4337158,93.0
605,-1.4011745,1.5506134,0.062309265,-1.088562,-1.8404664,-1.1671509,93.0
606,-1.6300945,1.1254883,-0.30096054,-1.088562,-1.8404664,-1.1671509,93.0
607,-1.6300945,1.1254883,-0.30096054,-1.5420411,-1.6535523,-0.83898926,93.0
608,-0.65583324,0.4380951,-0.89372253,-1.5420411,-1.6535523,-0.83898926,93.0
609,-0.65583324,0.4380951,-0.89372253,-1.6896607,-0.73597413,-0.542688,93.0
610,-0.28819275,-0.07476807,-1.2463112,-1.6896607,-0.73597413,-0.542688,93.0
611,-0.28819275,-0.07476807,-1.2463112,-1.6163819,-0.42374268,-0.059472658,93.0
612,-0.6683836,-0.24881744,-1.5976486,-1.6163819,-0.42374268,-0.059472658,93.0
613,-0.6683836,-0.24881744,-1.5976486,-1.4071655,0.3154175,0.53525394,93.0
614,-0.68954086,-0.22301483,-1.9205017,-1.4071655,0.3154175,0.53525394,93.0
615,-0.68954086,-0.22301483,-1.9205017,-1.3317627,1.2871583,1.1894531,93.0
616,-0.4201994,-0.27729797,-1.8155746,-1.3317627,1.2871583,1.1894531,93.0
617,-0.4201994,-0.27729797,-1.8155746,-1.1257324,2.0072021,1.8670167,93.0
618,-0.068655014,-0.66186523,-1.3275452,-1.1257324,2.0072021,1.8670167,93.0
619,-0.068655014,-0.66186523,-1.3275452,-0.7168579,2.5658205,2.5010376,93.0
620,-0.068655014,-0.66186523,-1.3275452,-0.7168579,2.5658205,2.5010376,92.0
621,0.5001421,-1.1463013,-0.8547096,-0.7168579,2.5658205,2.5010376,92.0
622,0.5001421,-1.1463013,-0.8547096,-0.1901001,3.2189577,3.0139892,92.0
623,0.9491005,-1.3674698,-0.44659805,-0.1901001,3.2189577,3.0139892,92.0
624,0.9491005,-1.3674698,-0.44659805,0.3993164,3.8391724,3.4048097,92.0
625,0.6945467,-1.2384491,0.029891968,0.3993164,3.8391724,3.4048097,92.0
626,0.6945467,-1.2384491,0.029891968,0.84536135,4.1322875,3.6936767,92.0
627,-0.20636177,-0.9901657,0.5105362,0.84536135,4.1322875,3.6936767,92.0
628,-0.20636177,-0.9901657,0.5105362,0.991919,4.274597,3.8381104,92.0
629,-1.1740742,-0.839241,0.9460144,0.991919,4.274597,3.8381104,92.0
630,-1.1740742,-0.839241,0.9460144,0.77314454,4.3117676,3.889087,92.0
631,-1.8141012,-0.81482697,1.4143066,0.77314454,4.3117676,3.889087,92.0
632,-1.8141012,-0.81482697,1.4143066,0.45878908,4.1089234,3.9496217,92.0
633,-2.1295528,-0.8860321,1.9607544,0.45878908,4.1089234,3.9496217,92.0
634,-2.1295528,-0.8860321,1.9607544,0.26444092,3.6650026,3.9336915,92.0
635,-2.1457443,-0.98252106,2.501793,0.26444092,3.6650026,3.9336915,92.0
636,-2.1457443,-0.98252106,2.501793,0.06584473,3.0532837,3.8678467,92.0
637,-1.8183165,-1.0924988,2.710907,0.06584473,3.0532837,3.8678467,92.0
638,-1.8183165,-1.0924988,2.710907,-0.19328614,2.4904175,3.6766846,92.0
639,-1.345254,-1.142334,2.34935,-0.19328614,2.4904175,3.6766846,92.0
640,-1.345254,-1.142334,2.34935,-0.46728516,2.0942872,3.4079957,92.0
641,-1.0376291,-1.0150299,1.6453629,-0.46728516,2.0942872,3.4079957,92.0
642,-1.0376291,-1.0150299,1.6453629,-0.86766356,1.7703736,3.0808961,92.0
643,-0.98465633,-0.8704605,0.92738724,-0.86766356,1.7703736,3.0808961,92.0
644,-0.98465633,-0.8704605,0.92738724,-1.350879,1.5770874,2.7060058,92.0
645,-1.0449152,-0.9907379,0.2662506,-1.350879,1.5770874,2.7060058,92.0
646,-1.0449152,-0.9907379,0.2662506,-1.7109009,1.5027466,2.272705,92.0
647,-1.0778027,-1.3472672,-0.3061409,-1.7109009,1.5027466,2.272705,92.0
648,-1.0778027,-1.3472672,-0.3061409,-1.7448853,1.5431031,1.8563966,92.0
649,-1.0728989,-1.5536957,-0.667717,-1.7448853,1.5431031,1.8563966,92.0
650,-1.0728989,-1.5536957,-0.667717,-1.358313,1.539917,1.5813354,92.0
651,-1.1855283,-1.3540802,-0.73950577,-1.358313,1.539917,1.5813354,92.0
652,-1.1855283,-1.3540802,-0.73950577,-0.6510132,1.5176147,1.4029175,92.0
653,-1.6866674,-0.812233,-0.53923416,-0.6510132,1.5176147,1.4029175,92.0
654,-1.6866674,-0.812233,-0.53923416,0.15611573,1.2967163,1.2754761,92.0
655,-1.9903741,-0.28993988,-0.1205101,0.15611573,1.2967163,1.2754761,92.0
656,-1.9903741,-0.28993988,-0.1205101,0.88996583,0.99935305,1.0906861,92.0
657,-1.6039939,0.03353882,-0.0032310486,0.88996583,0.99935305,1.0906861,92.0
658,-1.6039939,0.03353882,-0.0032310486,1.9381714,0.5798584,0.8294312,92.0
659,-1.4314499,0.62418365,-0.24382019,1.9381714,0.5798584,0.8294312,92.0
660,-1.4314499,0.62418365,-0.24382019,2.715564,-0.15717773,0.33665773,92.0
661,-1.7879214,1.4449921,0.07089996,2.715564,-0.15717773,0.33665773,92.0
662,-1.7879214,1.4449921,0.07089996,2.5615723,-0.7423462,-0.11363526,92.0
663,-1.7471342,1.6641693,0.8904953,2.5615723,-0.7423462,-0.11363526,92.0
664,-1.7471342,1.6641693,0.8904953,1.6482422,-1.5431031,-0.630835,92.0
665,-0.9251852,1.0260849,1.2276077,1.6482422,-1.5431031,-0.630835,92.0
666,-0.9251852,1.0260849,1.2276077,1.3625611,-1.9689697,-1.1182984,92.0
667,0.25257683,0.404953,1.134819,1.3625611,-1.9689697,-1.1182984,92.0
668,0.25257683,0.404953,1.134819,1.62594,-2.4245727,-1.3774292,92.0
669,1.3684435,0.57801056,1.2570496,1.62594,-2.4245727,-1.3774292,92.0
670,1.3684435,0.57801056,1.2570496,2.069861,-2.7580445,-1.4326538,92.0
671,2.1654215,1.1126022,1.5979118,2.069861,-2.7580445,-1.4326538,92.0
672,2.1654215,1.1126022,1.5979118,2.526526,-3.163733,-1.5271729,92.0
673,2.4104743,1.3874588,1.7922211,2.526526,-3.163733,-1.5271729,92.0
674,2.4104743,1.3874588,1.7922211,2.7410524,-3.5046387,-1.7236451,92.0
675,2.1913433,1.3143158,1.6156235,2.7410524,-3.5046387,-1.7236451,92.0
676,2.1913433,1.3143158,1.6156235,2.5976808,-3.6639404,-2.0358765,92.0
677,1.7228136,1.1602249,1.1445007,2.5976808,-3.6639404,-2.0358765,92.0
678,1.7228136,1.1602249,1.1445007,2.1197755,-3.7520874,-2.3927124,92.0
679,1.3163247,1.1517029,0.5995369,2.1197755,-3.7520874,-2.3927124,92.0
680,1.3163247,1.1517029,0.5995369,1.5038086,-3.6989868,-2.6932619,92.0
681,1.2617264,1.308876,0.13941956,1.5038086,-3.6989868,-2.6932619,92.0
682,1.2617264,1.308876,0.13941956,0.97386473,-3.5651734,-2.8610597,92.0
683,1.6298885,1.549942,-0.11298752,0.97386473,-3.5651734,-2.8610597,92.0
684,1.6298885,1.549942,-0.11298752,0.6244629,-3.4536622,-2.8376954,92.0
685,2.2229662,1.7022858,-0.21071243,0.6244629,-3.4536622,-2.8376954,92.0
686,2.2229662,1.7022858,-0.21071243,0.4970215,-3.341089,-2.6730835,92.0
687,2.684843,1.6852036,-0.2962799,0.4970215,-3.341089,-2.6730835,92.0
688,2.684843,1.6852036,-0.2962799,0.6223389,-3.2210815,-2.4150147,92.0
689,2.7681751,1.6089783,-0.44444656,0.6223389,-3.2210815,-2.4150147,92.0
690,2.7681751,1.6089783,-0.44444656,0.88040775,-3.1170044,-2.1049073,92.0
691,2.565321,1.6131439,-0.66173553,0.88040775,-3.1170044,-2.1049073,92.0
692,2.565321,1.6131439,-0.66173553,1.0513916,-2.9481447,-1.809668,92.0
693,2.2617779,1.7490082,-0.8289032,1.0513916,-2.9481447,-1.809668,92.0
694,2.2617779,1.7490082,-0.8289032,0.93563235,-2.7484863,-1.6004517,92.0
695,1.7991438,1.9905853,-0.77711105,0.93563235,-2.7484863,-1.6004517,92.0
696,1.7991438,1.9905853,-0.77711105,0.29523927,-2.6359131,-1.450708,92.0
697,1.2844439,2.1175652,-0.661644,0.29523927,-2.6359131,-1.450708,92.0
698,1.2844439,2.1175652,-0.661644,-0.6573853,-2.5647583,-1.3763672,92.0
699,0.8671541,1.838829,-0.77313995,-0.6573853,-2.5647583,-1.3763672,92.0
700,0.8671541,1.838829,-0.77313995,-1.6068238,-2.3364258,-1.4135376,92.0
701,0.28113747,1.1885071,-1.0949059,-1.6068238,-2.3364258,-1.4135376,92.0
702,0.28113747,1.1885071,-1.0949059,-2.3831544,-2.0358765,-1.5239868,92.0
703,-0.30447197,0.48226547,-1.3828354,-2.3831544,-2.0358765,-1.5239868,92.0
704,-0.30447197,0.48226547,-1.3828354,-2.8759277,-1.7395753,-1.6599244,92.0
705,-0.42402172,-0.019165039,-1.3646545,-2.8759277,-1.7395753,-1.6599244,92.0
706,-0.42402172,-0.019165039,-1.3646545,-3.173291,-1.1066163,-1.6992188,92.0
707,-0.49513817,-0.3704605,-1.2613525,-3.173291,-1.1066163,-1.6992188,92.0
708,-0.49513817,-0.3704605,-1.2613525,-3.1382446,-0.76358646,-1.63125,92.0
709,-0.9935837,-0.79977417,-1.3360825,-3.1382446,-0.76358646,-1.63125,92.0
710,-0.9935837,-0.79977417,-1.3360825,-2.5955567,-0.0722168,-1.4761963,92.0
711,-1.6923523,-1.2321548,-1.4489937,-2.5955567,-0.0722168,-1.4761963,92.0
712,-1.6923523,-1.2321548,-1.4489937,-1.8309082,0.47790527,-1.2276856,92.0
713,-2.1279545,-1.5177422,-1.5613937,-1.8309082,0.47790527,-1.2276856,92.0
714,-2.1279545,-1.5177422,-1.5613937,-1.0312134,1.2053833,-0.8782837,92.0
715,-2.1899738,-1.5744019,-1.6737747,-1.0312134,1.2053833,-0.8782837,92.0
716,-2.1899738,-1.5744019,-1.6737747,-0.2081543,2.0125122,-0.4980835,92.0
717,-2.0956802,-1.2378159,-1.5822105,-0.2081543,2.0125122,-0.4980835,92.0
718,-2.0956802,-1.2378159,-1.5822105,0.51188964,2.6709595,0.0021240234,92.0
719,-1.8090277,-0.532341,-1.1732903,0.51188964,2.6709595,0.0021240234,92.0
720,-1.8090277,-0.532341,-1.1732903,0.98129886,3.2423217,0.65207523,92.0
721,-1.4737482,0.27983093,-0.45565033,0.98129886,3.2423217,0.65207523,92.0
722,-1.4737482,0.27983093,-0.45565033,1.081128,3.5800416,1.3859253,92.0
723,-1.4337473,0.7609863,0.42970657,1.081128,3.5800416,1.3859253,92.0
724,-1.4337473,0.7609863,0.42970657,0.7582764,3.6586304,2.095349,92.0
725,-1.5374279,0.58522034,1.073967,0.7582764,3.6586304,2.095349,92.0
726,-1.5374279,0.58522034,1.073967,0.32285157,3.6469483,2.633789,92.0
727,-1.2886953,-0.1013031,1.1689491,0.32285157,3.6469483,2.633789,92.0
728,-1.2886953,-0.1013031,1.1689491,0.10513916,3.7329712,3.0139892,92.0
729,-0.61876106,-0.7445526,0.8146858,0.10513916,3.7329712,3.0139892,92.0
730,-0.61876106,-0.7445526,0.8146858,0.27612305,3.8466065,3.2858644,92.0
731,0.1586895,-0.98651123,0.38710022,0.27612305,3.8466065,3.2858644,92.0
732,0.1586895,-0.98651123,0.38710022,0.7965088,4.0016603,3.4908326,92.0
733,0.6666851,-0.7575455,0.3630829,0.7965088,4.0016603,3.4908326,92.0
734,0.6666851,-0.7575455,0.3630829,1.356189,4.0866213,3.601282,92.0
735,0.70987415,-0.18460083,0.95986557,1.356189,4.0866213,3.601282,92.0
736,0.70987415,-0.18460083,0.95986557,1.6185058,3.899707,3.6830566,92.0
737,0.39719582,0.3972702,1.7980461,1.6185058,3.899707,3.6830566,92.0
738,0.39719582,0.3972702,1.7980461,1.5739014,3.4536622,3.6724365,92.0
739,0.07952404,0.6944046,2.2901459,1.5739014,3.4536622,3.6724365,92.0
740,0.07952404,0.6944046,2.2901459,1.2106934,2.9630127,3.5524292,92.0
741,0.00951767,0.67481995,2.1694336,1.2106934,2.9630127,3.5524292,92.0
742,0.00951767,0.67481995,2.1694336,0.5766724,2.546704,3.2773683,92.0
743,0.13305378,0.43839264,1.606163,0.5766724,2.546704,3.2773683,92.0
744,0.13305378,0.43839264,1.606163,-0.16885987,2.2238526,2.9428346,92.0
745,0.24664116,0.10752869,0.95513153,-0.16885987,2.2238526,2.9428346,92.0
746,0.24664116,0.10752869,0.95513153,-0.8251831,2.0093262,2.5891845,92.0
747,0.15219593,-0.18344879,0.4623947,-0.8251831,2.0093262,2.5891845,92.0
748,0.15219593,-0.18344879,0.4623947,-1.1873292,1.7873658,2.2302246,92.0
749,-0.21578026,-0.25605774,0.23015594,-1.1873292,1.7873658,2.2302246,92.0
750,-0.21578026,-0.25605774,0.23015594,-1.2213135,1.532483,1.9158691,92.0
751,-0.5561695,-0.040649414,0.2581482,-1.2213135,1.532483,1.9158691,92.0
752,-0.5561695,-0.040649414,0.2581482,-0.96643066,1.268042,1.5983276,92.0
753,-0.33558464,0.25532532,0.16604996,-0.96643066,1.268042,1.5983276,92.0
754,-0.33558464,0.25532532,0.16604996,-0.26444092,1.09281,1.3413209,92.0
755,-0.27721977,0.4000702,-0.29771423,-0.26444092,1.09281,1.3413209,92.0
756,-0.27721977,0.4000702,-0.29771423,0.5777344,0.72216797,0.91014403,92.0
757,-1.2888169,0.4035797,-0.48654556,0.5777344,0.72216797,0.91014403,92.0
758,-1.2888169,0.4035797,-0.48654556,1.2064453,0.4991455,0.44498292,92.0
759,-2.5853386,0.23722076,0.17289734,1.2064453,0.4991455,0.44498292,92.0
760,-2.5853386,0.23722076,0.17289734,1.3891114,-0.07434082,-0.090270996,92.0
761,-2.975656,-0.027824402,1.0145607,1.3891114,-0.07434082,-0.090270996,92.0
762,-2.975656,-0.027824402,1.0145607,1.6758546,-0.7338501,-0.63826907,92.0
763,-2.1819286,-0.009933472,1.3614426,1.6758546,-0.7338501,-0.63826907,92.0
764,-2.1819286,-0.009933472,1.3614426,2.2047365,-1.4687623,-1.0195312,92.0
765,-0.809227,0.5138397,1.4566078,2.2047365,-1.4687623,-1.0195312,92.0
766,-0.809227,0.5138397,1.4566078,2.7463624,-2.2217286,-1.2287476,92.0
767,0.48325777,1.1980209,1.4860611,2.7463624,-2.2217286,-1.2287476,92.0
768,0.48325777,1.1980209,1.4860611,3.0309815,-3.0023072,-1.4092896,92.0
769,1.194004,1.5714417,1.2498245,3.0309815,-3.0023072,-1.4092896,92.0
770,1.194004,1.5714417,1.2498245,2.8461914,-3.6936767,-1.6917847,92.0
771,1.2667632,1.4941635,0.62633514,2.8461914,-3.6936767,-1.6917847,92.0
772,1.2667632,1.4941635,0.62633514,2.3226197,-4.0218387,-2.0985353,92.0
773,0.92588615,1.2379074,-0.12234497,2.3226197,-4.0218387,-2.0985353,92.0
774,0.92588615,1.2379074,-0.12234497,1.5813354,-4.1928225,-2.5828125,92.0
775,0.47090912,1.1571693,-0.6652374,1.5813354,-4.1928225,-2.5828125,92.0
776,0.47090912,1.1571693,-0.6652374,0.724292,-4.134412,-3.0203614,92.0
777,0.47090912,1.1571693,-0.6652374,0.724292,-4.134412,-3.0203614,91.0
778,0.24326754,1.2504654,-0.9121475,0.724292,-4.134412,-3.0203614,91.0
779,0.24326754,1.2504654,-0.9121475,0.0031860352,-3.9634278,-3.345337,91.0
780,0.3959446,1.2882271,-0.95018005,0.0031860352,-3.9634278,-3.345337,91.0
781,0.3959446,1.2882271,-0.95018005,-0.36320803,-3.7297852,-3.5025146,91.0
782,0.9371414,1.1670799,-0.9185333,-0.36320803,-3.7297852,-3.5025146,91.0
783,0.9371414,1.1670799,-0.9185333,-0.3345337,-3.3994997,-3.4876466,91.0
784,1.6581726,0.9492264,-0.93182373,-0.3345337,-3.3994997,-3.4876466,91.0
785,1.6581726,0.9492264,-0.93182373,0.058410645,-3.0915163,-3.3124146,91.0
786,2.182434,0.8111496,-1.0053825,0.058410645,-3.0915163,-3.3124146,91.0
787,2.182434,0.8111496,-1.0053825,0.7083618,-2.7474244,-3.0150514,91.0
788,2.152319,0.99778366,-0.930233,0.7083618,-2.7474244,-3.0150514,91.0
789,2.152319,0.99778366,-0.930233,1.1820191,-2.5902467,-2.6029909,91.0
790,1.6017256,1.5170364,-0.63376236,1.1820191,-2.5902467,-2.6029909,91.0
791,1.6017256,1.5170364,-0.63376236,1.170337,-2.5307739,-2.1080933,91.0
792,0.97752285,1.9680481,-0.44054413,1.170337,-2.5307739,-2.1080933,91.0
793,0.97752285,1.9680481,-0.44054413,0.74022216,-2.4553711,-1.6864747,91.0
794,0.64739895,1.9847298,-0.47981644,0.74022216,-2.4553711,-1.6864747,91.0
795,0.64739895,1.9847298,-0.47981644,0.124255374,-2.3130615,-1.4390259,91.0
796,0.39462852,1.3780518,-0.22132874,0.124255374,-2.3130615,-1.4390259,91.0
797,0.39462852,1.3780518,-0.22132874,-0.8050049,-2.1930542,-1.3190186,91.0
798,-0.4051218,0.4798584,0.640358,-0.8050049,-2.1930542,-1.3190186,91.0
799,-0.4051218,0.4798584,0.640358,-1.987024,-2.2716432,-1.3052124,91.0
800,-1.0303478,-0.28634262,1.0493317,-1.987024,-2.2716432,-1.3052124,91.0
801,-1.0303478,-0.28634262,1.0493317,-3.1424928,-2.3587282,-1.3020264,91.0
802,-0.17464447,-1.0812836,-0.0031394958,-3.1424928,-2.3587282,-1.3020264,91.0
803,-0.17464447,-1.0812836,-0.0031394958,-3.6766846,-0.70198977,-1.4220337,91.0
804,0.3585024,-1.8679314,-1.1608887,-3.6766846,-0.70198977,-1.4220337,91.0
805,0.3585024,-1.8679314,-1.1608887,-3.2009034,1.1629028,-1.4029175,91.0
806,-0.89719486,-1.9050522,-0.68927,-3.2009034,1.1629028,-1.4029175,91.0
807,-0.89719486,-1.9050522,-0.68927,-2.079419,2.357666,-0.87191164,91.0
808,-2.628974,-0.83171844,0.82963943,-2.079419,2.357666,-0.87191164,91.0
809,-2.628974,-0.83171844,0.82963943,-1.1554688,2.5105958,0.1731079,91.0
810,-3.4326468,0.06790161,1.5370865,-1.1554688,2.5105958,0.1731079,91.0
811,-3.4326468,0.06790161,1.5370865,-0.29099122,2.5796266,1.1586548,91.0
812,-3.0218496,-0.1936531,0.78746796,-0.29099122,2.5796266,1.1586548,91.0
813,-3.0218496,-0.1936531,0.78746796,0.7593384,2.7845948,1.7809937,91.0
814,-2.0935292,-0.8114395,-0.43236542,0.7593384,2.7845948,1.7809937,91.0
815,-2.0935292,-0.8114395,-0.43236542,1.6716064,2.9545166,2.1877441,91.0
816,-1.339191,-0.75069046,-0.9588661,1.6716064,2.9545166,2.1877441,91.0
817,-1.339191,-0.75069046,-0.9588661,1.9169312,2.9290283,2.5042236,91.0
818,-1.1376,-0.12436676,-0.5738678,1.9169312,2.9290283,2.5042236,91.0
819,-1.1376,-0.12436676,-0.5738678,1.4050416,2.5806885,2.7782228,91.0
820,-1.2417088,0.38071823,-0.009799957,1.4050416,2.5806885,2.7782228,91.0
821,-1.2417088,0.38071823,-0.009799957,0.4800293,2.2684572,2.9587648,91.0
822,-1.1056471,0.48625183,0.12277603,0.4800293,2.2684572,2.9587648,91.0
823,-1.1056471,0.48625183,0.12277603,-0.6637573,2.0964112,3.1116943,91.0
824,-0.5689783,0.12487793,-0.25510025,-0.6637573,2.0964112,3.1116943,91.0
825,-0.5689783,0.12487793,-0.25510025,-1.4082276,2.1197755,3.248694,91.0
826,0.10754919,-0.6221161,-0.8074341,-1.4082276,2.1197755,3.248694,91.0
827,0.10754919,-0.6221161,-0.8074341,-1.4804443,2.262085,3.3209107,91.0
828,0.78636885,-1.279335,-1.095192,-1.4804443,2.262085,3.3209107,91.0
829,0.78636885,-1.279335,-1.095192,-1.1342286,2.613611,3.342151,91.0
830,1.3686213,-1.3265457,-0.9138756,-1.1342286,2.613611,3.342151,91.0
831,1.3686213,-1.3265457,-0.9138756,-0.5161377,2.8100832,3.4844606,91.0
832,1.6605463,-0.7250519,-0.22784424,-0.5161377,2.8100832,3.4844606,91.0
833,1.6605463,-0.7250519,-0.22784424,-0.0031860352,2.822827,3.5736694,91.0
834,1.6289496,0.025985718,0.7503052,-0.0031860352,2.822827,3.5736694,91.0
835,1.6289496,0.025985718,0.7503052,0.087084964,2.5594482,3.5949097,91.0
836,1.3845439,0.40024567,1.5114365,0.087084964,2.5594482,3.5949097,91.0
837,1.3845439,0.40024567,1.5114365,-0.18797608,2.1473877,3.435608,91.0
838,1.0939264,0.2848816,1.6232834,-0.18797608,2.1473877,3.435608,91.0
839,1.0939264,0.2848816,1.6232834,-0.7104859,1.713025,3.1286867,91.0
840,0.83786106,-0.093177795,1.1674118,-0.7104859,1.713025,3.1286867,91.0
841,0.83786106,-0.093177795,1.1674118,-1.3901733,1.3699951,2.6592774,91.0
842,0.68158054,-0.57038116,0.52879333,-1.3901733,1.3699951,2.6592774,91.0
843,0.68158054,-0.57038116,0.52879333,-1.8011719,1.170337,2.1357057,91.0
844,0.5877695,-0.9372978,0.037353516,-1.8011719,1.170337,2.1357057,91.0
845,0.5877695,-0.9372978,0.037353516,-1.5770874,0.99510497,1.632312,91.0
846,0.3665657,-0.9605446,-0.11607742,-1.5770874,0.99510497,1.632312,91.0
847,0.3665657,-0.9605446,-0.11607742,-0.96643066,0.8793457,1.1905152,91.0
848,0.5165806,-0.73812866,-0.037734985,-0.96643066,0.8793457,1.1905152,91.0
849,0.5165806,-0.73812866,-0.037734985,-0.13381349,0.8315552,0.8092529,91.0
850,0.6617875,-0.42855072,-0.14066315,-0.13381349,0.8315552,0.8092529,91.0
851,0.6617875,-0.42855072,-0.14066315,0.7614624,0.5915405,0.45135498,91.0
852,-0.26948357,0.0093688965,-0.3599205,0.7614624,0.5915405,0.45135498,91.0
853,-0.26948357,0.0093688965,-0.3599205,1.2404298,0.3419678,0.121069334,91.0
854,-1.7011213,0.32403564,-0.19045258,1.2404298,0.3419678,0.121069334,91.0
855,-1.7011213,0.32403564,-0.19045258,1.3370727,0.014868164,-0.20709229,91.0
856,-2.3249354,0.23611069,0.23220825,1.3370727,0.014868164,-0.20709229,91.0
857,-2.3249354,0.23611069,0.23220825,1.4836304,-0.42905274,-0.60109866,91.0
858,-1.7703123,0.03186798,0.579319,1.4836304,-0.42905274,-0.60109866,91.0
859,-1.7703123,0.03186798,0.579319,2.0518067,-1.0981201,-0.9897949,91.0
860,-0.5683007,0.1878128,0.87135315,2.0518067,-1.0981201,-0.9897949,91.0
861,-0.5683007,0.1878128,0.87135315,2.6730835,-1.803296,-1.3126465,91.0
862,0.73760796,0.74061966,1.0824699,2.6730835,-1.803296,-1.3126465,91.0
863,0.73760796,0.74061966,1.0824699,3.08302,-2.5775025,-1.6089478,91.0
864,1.5366807,1.2451935,0.9920616,3.08302,-2.5775025,-1.6089478,91.0
865,1.5366807,1.2451935,0.9920616,3.1297486,-3.4058716,-1.9732178,91.0
866,1.470458,1.4099007,0.39993286,3.1297486,-3.4058716,-1.9732178,91.0
867,1.470458,1.4099007,0.39993286,2.8164551,-3.9974122,-2.3895264,91.0
868,0.8108759,1.3503113,-0.50320053,2.8164551,-3.9974122,-2.3895264,91.0
869,0.8108759,1.3503113,-0.50320053,2.2142944,-4.235303,-2.8716798,91.0
870,0.13319778,1.2738037,-1.3091507,2.2142944,-4.235303,-2.8716798,91.0
871,0.13319778,1.2738037,-1.3091507,1.5069946,-4.229993,-3.349585,91.0
872,-0.2363987,1.3136444,-1.7110748,1.5069946,-4.229993,-3.349585,91.0
873,-0.2363987,1.3136444,-1.7110748,0.85598147,-4.050513,-3.7361572,91.0
874,-0.28474903,1.4365845,-1.6734734,0.85598147,-4.050513,-3.7361572,91.0
875,-0.28474903,1.4365845,-1.6734734,0.36639404,-3.809436,-3.9283814,91.0
876,-0.16484785,1.4780273,-1.4266357,0.36639404,-3.809436,-3.9283814,91.0
877,-0.16484785,1.4780273,-1.4266357,0.15611573,-3.5099487,-3.9156373,91.0
878,-0.034417152,1.3492279,-1.2133331,0.15611573,-3.5099487,-3.9156373,91.0
879,-0.034417152,1.3492279,-1.2133331,0.24107666,-3.166919,-3.7340333,91.0
880,0.030144691,1.1128044,-1.1544952,0.24107666,-3.166919,-3.7340333,91.0
881,0.030144691,1.1128044,-1.1544952,0.54587406,-2.8185792,-3.42605,91.0
882,-0.035515785,0.89508057,-1.1699982,0.54587406,-2.8185792,-3.42605,91.0
883,-0.035515785,0.89508057,-1.1699982,0.9696167,-2.445813,-3.0161133,91.0
884,-0.2764716,0.87114334,-1.0848885,0.9696167,-2.445813,-3.0161133,91.0
885,-0.2764716,0.87114334,-1.0848885,1.2542359,-2.2004883,-2.5509522,91.0
886,-0.6010356,1.0751114,-0.81973267,1.2542359,-2.2004883,-2.5509522,91.0
887,-0.6010356,1.0751114,-0.81973267,1.1979493,-2.0496826,-2.073047,91.0
888,-0.8758726,1.3134232,-0.44687653,1.1979493,-2.0496826,-2.073047,91.0
889,-0.8758726,1.3134232,-0.44687653,0.8219971,-1.9594116,-1.6567383,91.0
890,-0.92457485,1.2395821,0.1906662,0.8219971,-1.9594116,-1.6567383,91.0
891,-0.92457485,1.2395821,0.1906662,0.14761963,-1.803296,-1.2776002,91.0
892,-0.781518,0.5655174,1.3257027,0.14761963,-1.803296,-1.2776002,91.0
893,-0.781518,0.5655174,1.3257027,-0.7805786,-1.4103516,-0.8230591,91.0
894,-0.5535836,-1.3863068,2.2648468,-0.7805786,-1.4103516,-0.8230591,91.0
895,-0.5535836,-1.3863068,2.2648468,-0.19328614,-0.6945557,-0.58304447,91.0
896,0.011356354,-3.1674194,1.9264641,-0.19328614,-0.6945557,-0.58304447,91.0
897,0.011356354,-3.1674194,1.9264641,2.168628,0.41099855,-0.28780517,91.0
898,0.401309,-2.1301384,0.7379265,2.168628,0.41099855,-0.28780517,91.0
899,0.401309,-2.1301384,0.7379265,2.9619508,1.2860962,0.2888672,91.0
900,0.1953268,0.36943817,-0.5563507,2.9619508,1.2860962,0.2888672,91.0
901,0.1953268,0.36943817,-0.5563507,2.5137818,2.4734254,0.6690674,91.0
902,-0.10263777,1.5560112,-1.5959129,2.5137818,2.4734254,0.6690674,91.0
903,-0.10263777,1.5560112,-1.5959129,1.6004517,3.3262208,0.7657105,91.0
904,-0.019464016,1.2576866,-2.1201248,1.6004517,3.3262208,0.7657105,91.0
905,-0.019464016,1.2576866,-2.1201248,0.4885254,3.9697998,0.7519043,91.0
906,0.27913094,0.63751984,-2.2769203,0.4885254,3.9697998,0.7519043,91.0
907,0.27913094,0.63751984,-2.2769203,-0.38869628,4.346814,0.7954468,91.0
908,0.29461813,0.48575974,-2.0108185,-0.38869628,4.346814,0.7954468,91.0
909,0.29461813,0.48575974,-2.0108185,-1.0078491,4.3786745,0.9526245,91.0
910,0.061048508,0.8355179,-1.0645027,-1.0078491,4.3786745,0.9526245,91.0
911,0.061048508,0.8355179,-1.0645027,-1.0078491,4.3786745,0.9526245,91.0
912,0.061048508,0.8355179,-1.0645027,-1.6790406,4.044141,1.2531738,91.0
913,-0.2393446,0.9841728,0.28702164,-1.6790406,4.044141,1.2531738,91.0
914,-0.2393446,0.9841728,0.28702164,-2.253589,3.4122436,1.6578003,91.0
915,-0.4338827,0.14820099,0.72330856,-2.253589,3.4122436,1.6578003,91.0
916,-0.4338827,0.14820099,0.72330856,-1.7310791,3.078772,1.9519776,91.0
917,-0.49826574,-0.98625946,-0.312088,-1.7310791,3.078772,1.9519776,91.0
918,-0.49826574,-0.98625946,-0.312088,-0.6149048,3.1414306,1.9275513,91.0
919,-0.6168008,-1.2509079,-1.5641022,-0.6149048,3.1414306,1.9275513,91.0
920,-0.6168008,-1.2509079,-1.5641022,0.21240234,3.5322511,1.812854,91.0
921,-0.9002156,-0.72301483,-1.8038445,0.21240234,3.5322511,1.812854,91.0
922,-0.9002156,-0.72301483,-1.8038445,0.68287355,3.6989868,1.6673584,91.0
923,-1.1201358,-0.056388855,-1.1989136,0.68287355,3.6989868,1.6673584,91.0
924,-1.1201358,-0.056388855,-1.1989136,0.66269535,3.707483,1.4942505,91.0
925,-0.9523096,0.359272,-0.5098038,0.66269535,3.707483,1.4942505,91.0
926,-0.9523096,0.359272,-0.5098038,0.19753419,3.5588014,1.3699951,91.0
927,-0.47567844,0.41057587,-0.012626648,0.19753419,3.5588014,1.3699951,91.0
928,-0.47567844,0.41057587,-0.012626648,-0.47365722,3.3102906,1.2754761,91.0
929,-0.21068192,0.23125458,0.25382614,-0.47365722,3.3102906,1.2754761,91.0
930,-0.21068192,0.23125458,0.25382614,-0.8496094,3.1435547,1.2213135,91.0
931,0.5834198,0.027519226,0.5782318,-0.8496094,3.1435547,1.2213135,91.0
932,0.5834198,0.027519226,0.5782318,-1.8670167,2.5084717,1.1597168,91.0
933,0.62783194,-0.15007782,0.7893791,-1.8670167,2.5084717,1.1597168,91.0
934,0.62783194,-0.15007782,0.7893791,-2.1834962,2.266333,1.1363525,91.0
935,0.81840324,-0.27251434,0.8725662,-2.1834962,2.266333,1.1363525,91.0
936,0.81840324,-0.27251434,0.8725662,-3.0447876,1.5834595,1.0280274,91.0
937,0.66439056,-0.5582199,1.0167313,-3.0447876,1.5834595,1.0280274,91.0
938,0.66439056,-0.5582199,1.0167313,-3.260376,1.3954834,0.9696167,91.0
939,0.5909729,-0.96603394,0.7993202,-3.260376,1.3954834,0.9696167,91.0
940,0.5909729,-0.96603394,0.7993202,-3.2996705,0.93350834,0.75296634,91.0
941,0.4315672,-1.2516251,0.75616455,-3.2996705,0.93350834,0.75296634,91.0
942,0.4315672,-1.2516251,0.75616455,-3.1520507,0.8315552,0.67225343,91.0
943,0.24417925,-1.4068527,0.21039963,-3.1520507,0.8315552,0.67225343,91.0
944,0.24417925,-1.4068527,0.21039963,-2.2057984,0.6701294,0.44710693,91.0
945,0.30590248,-1.3232117,0.16888428,-2.2057984,0.6701294,0.44710693,91.0
946,0.30590248,-1.3232117,0.16888428,-1.6970948,0.631897,0.41099855,91.0
947,0.76797676,-0.70341873,-0.050060272,-1.6970948,0.631897,0.41099855,91.0
948,0.76797676,-0.70341873,-0.050060272,-0.090270996,0.20921631,0.15823975,91.0
949,0.4377947,-0.29067993,0.12280655,-0.090270996,0.20921631,0.15823975,91.0
950,0.4377947,-0.29067993,0.12280655,0.3175415,-0.07752686,0.04991455,91.0
951,-1.0697718,-0.014511108,1.600296,0.3175415,-0.07752686,0.04991455,91.0
952,-1.0697718,-0.014511108,1.600296,1.1629028,-1.2510499,-0.5033936,91.0
953,-1.077363,-0.13195801,1.7239876,1.1629028,-1.2510499,-0.5033936,91.0
954,-1.077363,-0.13195801,1.7239876,1.4220337,-1.6758546,-0.7827026,91.0
955,-0.359766,-0.6202011,2.34972,1.4220337,-1.6758546,-0.7827026,91.0
956,-0.359766,-0.6202011,2.34972,2.168628,-3.1106324,-1.4730103,91.0
957,0.3621502,-0.06430054,1.7816811,2.168628,-3.1106324,-1.4730103,91.0
958,0.3621502,-0.06430054,1.7816811,2.3204956,-3.612964,-1.5951416,91.0
959,1.6170397,1.0201912,1.4370041,2.3204956,-3.612964,-1.5951416,91.0
960,1.6170397,1.0201912,1.4370041,2.4128907,-4.6441774,-1.7629395,91.0
961,2.6285071,1.9957047,0.83741,2.4128907,-4.6441774,-1.7629395,91.0
962,2.6285071,1.9957047,0.83741,2.076233,-5.4566164,-1.9148072,91.0
963,2.8995829,2.2919998,-0.20143127,2.076233,-5.4566164,-1.9148072,91.0
964,2.8995829,2.2919998,-0.20143127,1.3689331,-5.9090333,-2.1813722,91.0
965,2.2990122,1.8684616,-1.5334854,1.3689331,-5.9090333,-2.1813722,91.0
966,2.2990122,1.8684616,-1.5334854,0.3419678,-5.8410645,-2.614673,91.0
967,0.9507942,0.7124939,-3.1636658,0.3419678,-5.8410645,-2.614673,91.0
968,0.9507942,0.7124939,-3.1636658,-1.8500245,-4.771619,-3.5747316,91.0
969,0.32272053,0.41340256,-2.6500473,-1.8500245,-4.771619,-3.5747316,91.0
970,0.32272053,0.41340256,-2.6500473,-2.6019287,-4.4625735,-3.7775757,91.0
971,-0.49598598,0.25691986,-1.5257645,-2.6019287,-4.4625735,-3.7775757,91.0
972,-0.49598598,0.25691986,-1.5257645,-3.8508546,-4.0462646,-3.9326293,91.0
973,-0.97654915,0.03204727,-0.21819305,-3.8508546,-4.0462646,-3.9326293,91.0
974,-0.97654915,0.03204727,-0.21819305,-4.398853,-3.5067627,-3.8816528,91.0
975,-1.2641373,-0.39816284,0.8318176,-4.398853,-3.5067627,-3.8816528,91.0
976,-1.2641373,-0.39816284,0.8318176,-4.1938844,-3.248694,-3.6586304,91.0
977,-1.4654112,-0.8653183,1.6659279,-4.1938844,-3.248694,-3.6586304,91.0
978,-1.4654112,-0.8653183,1.6659279,-3.4674683,-3.2752442,-3.268872,91.0
979,-1.4774318,-1.3012009,2.0089378,-3.4674683,-3.2752442,-3.268872,91.0
980,-1.4774318,-1.3012009,2.0089378,-2.360852,-3.2157714,-2.8812377,91.0
981,-1.2652092,-1.4741516,1.629612,-2.360852,-3.2157714,-2.8812377,91.0
982,-1.2652092,-1.4741516,1.629612,-1.0524536,-3.0522218,-2.5488281,91.0
983,-0.972177,-1.2626228,0.89953613,-1.0524536,-3.0522218,-2.5488281,91.0
984,-0.972177,-1.2626228,0.89953613,0.08920898,-2.6826417,-2.267395,91.0
985,-0.70259523,-0.6084976,0.28730392,0.08920898,-2.6826417,-2.267395,91.0
986,-0.70259523,-0.6084976,0.28730392,0.58623046,-2.2918212,-1.9317993,91.0
987,-0.5698519,-0.0013885498,0.022346497,0.58623046,-2.2918212,-1.9317993,91.0
988,-0.5698519,-0.0013885498,0.022346497,0.5968506,-1.814978,-1.5537232,91.0
989,-0.8332863,0.09384918,0.04297638,0.5968506,-1.814978,-1.5537232,91.0
990,-0.8332863,0.09384918,0.04297638,0.27612305,-1.3105224,-1.2298096,91.0
991,-1.541153,-0.2141037,0.0032653809,0.27612305,-1.3105224,-1.2298096,91.0
992,-1.541153,-0.2141037,0.0032653809,-0.0031860352,-0.86766356,-0.8666016,91.0
993,-1.6292357,-0.7187042,-0.5170784,-0.0031860352,-0.86766356,-0.8666016,91.0
994,-1.6292357,-0.7187042,-0.5170784,0.13912354,-0.25913087,-0.38869628,91.0
995,-0.7669263,-0.9281883,-0.9024811,0.13912354,-0.25913087,-0.38869628,91.0
996,-0.7669263,-0.9281883,-0.9024811,0.4248047,0.8708496,0.16036378,91.0
997,-0.29669523,-0.63775253,-0.31585693,0.4248047,0.8708496,0.16036378,91.0
998,-0.29669523,-0.63775253,-0.31585693,0.11363526,1.0078491,0.9398804,91.0
999,-0.44090843,-0.39060974,0.13924408,0.11363526,1.0078491,0.9398804,91.0
1000,-0.44090843,-0.39060974,0.13924408,-0.3090454,1.3880494,1.6790406,91.0
1001,-0.42285633,-0.26635742,-0.35461807,-0.3090454,1.3880494,1.6790406,91.0
1002,-0.42285633,-0.26635742,-0.35461807,-0.5235718,2.0305665,2.4776733,91.0
1003,-0.096793175,0.1580925,-0.765007,-0.5235718,2.0305665,2.4776733,91.0
1004,-0.096793175,0.1580925,-0.765007,-0.7965088,2.4192626,3.3835695,91.0
1005,0.57863235,0.5151367,-0.66137314,-0.7965088,2.4192626,3.3835695,91.0
1006,0.57863235,0.5151367,-0.66137314,-0.8772217,2.6677735,4.13335,91.0
1007,1.569974,0.36745453,-0.38310242,-0.8772217,2.6677735,4.13335,91.0
1008,1.569974,0.36745453,-0.38310242,-0.5777344,2.9534547,4.5666504,91.0
1009,2.4680643,0.0287323,0.1039772,-0.5777344,2.9534547,4.5666504,91.0
1010,2.4680643,0.0287323,0.1039772,-0.29417726,3.1350586,4.804541,91.0
1011,2.7199593,-0.30028152,0.76815414,-0.29417726,3.1350586,4.804541,91.0
1012,2.7199593,-0.30028152,0.76815414,-0.2793091,3.0256715,4.815161,91.0
1013,2.2959623,-0.6134949,1.010189,-0.2793091,3.0256715,4.815161,91.0
1014,2.2959623,-0.6134949,1.010189,-0.24638672,2.8568115,4.681348,91.0
1015,1.5430565,-0.6643677,0.56736755,-0.24638672,2.8568115,4.681348,91.0
1016,1.5430565,-0.6643677,0.56736755,-0.059472658,2.9120362,4.506116,91.0
1017,0.69445515,-0.3719368,0.14897156,-0.059472658,2.9120362,4.506116,91.0
1018,0.69445515,-0.3719368,0.14897156,0.11363526,2.896106,4.370178,91.0
1019,5.5933E-4,-0.03728485,0.31566238,0.11363526,2.896106,4.370178,91.0
1020,5.5933E-4,-0.03728485,0.31566238,0.38444826,2.72406,4.1864505,91.0
1021,-0.26625156,0.1218338,0.76464844,0.38444826,2.72406,4.1864505,91.0
1022,-0.26625156,0.1218338,0.76464844,0.6425171,2.5169678,3.9018312,91.0
1023,-0.113562584,0.13748169,1.0016975,0.6425171,2.5169678,3.9018312,91.0
1024,-0.113562584,0.13748169,1.0016975,0.63826907,2.3226197,3.511011,91.0
1025,0.2357006,0.0542984,1.0592804,0.63826907,2.3226197,3.511011,91.0
1026,0.2357006,0.0542984,1.0592804,0.1720459,2.1155274,2.9938111,91.0
1027,0.2357006,0.0542984,1.0592804,-0.78376466,1.7905518,2.4128907,91.0
1028,0.49560356,-0.22493362,1.0492706,-0.78376466,1.7905518,2.4128907,91.0
1029,0.38260365,-0.76036835,0.7833252,-0.78376466,1.7905518,2.4128907,91.0
1030,0.38260365,-0.76036835,0.7833252,-1.4804443,1.5547851,1.9094971,91.0
1031,-0.018929482,-1.1473083,0.32728577,-1.4804443,1.5547851,1.9094971,91.0
1032,-0.018929482,-1.1473083,0.32728577,-1.6514282,1.4634522,1.6631104,91.0
1033,-0.3891549,-1.1063347,-0.09223938,-1.6514282,1.4634522,1.6631104,91.0
1034,-0.3891549,-1.1063347,-0.09223938,-1.5197388,1.4634522,1.6397461,91.0
1035,-0.5973344,-0.894989,-0.50255203,-1.5197388,1.4634522,1.6397461,91.0
1036,-0.5973344,-0.894989,-0.50255203,-0.7720825,1.5866455,1.725769,91.0
1037,-0.7819691,-0.56004333,-0.7733574,-0.7720825,1.5866455,1.725769,91.0
1038,-0.7819691,-0.56004333,-0.7733574,0.36851808,1.63125,1.7682495,91.0
1039,-0.7819691,-0.56004333,-0.7733574,0.36851808,1.63125,1.7682495,90.0
1040,-0.8094497,0.09113693,-0.8154144,0.36851808,1.63125,1.7682495,90.0
1041,-0.8094497,0.09113693,-0.8154144,1.2351197,1.6599244,1.6503662,90.0
1042,-0.46611452,0.83787537,-0.91013336,1.2351197,1.6599244,1.6503662,90.0
1043,-0.46611452,0.83787537,-0.91013336,2.0061402,1.7501954,1.4209718,90.0
1044,-0.398026,1.2982559,-1.0032883,2.0061402,1.7501954,1.4209718,90.0
1045,-0.398026,1.2982559,-1.0032883,2.4744873,1.538855,0.9515625,90.0
1046,-1.312232,1.2389679,-0.4217224,2.4744873,1.538855,0.9515625,90.0
1047,-1.312232,1.2389679,-0.4217224,2.2397828,0.8814697,0.2824951,90.0
1048,-2.54179,0.6172867,0.86613846,2.2397828,0.8814697,0.2824951,90.0
1049,-2.54179,0.6172867,0.86613846,1.4698242,-0.14337158,-0.5883545,90.0
1050,-2.8180513,-0.24180222,1.9294357,1.4698242,-0.14337158,-0.5883545,90.0
1051,-2.8180513,-0.24180222,1.9294357,0.9717407,-1.2319336,-1.4772583,90.0
1052,-1.803379,-0.638855,2.2551804,0.9717407,-1.2319336,-1.4772583,90.0
1053,-1.803379,-0.638855,2.2551804,1.0428956,-2.3725343,-2.156946,90.0
1054,-1.803379,-0.638855,2.2551804,1.1958252,-3.3740113,-2.6709595,90.0
1055,-0.07629681,-0.284523,2.1150932,1.1958252,-3.3740113,-2.6709595,90.0
1056,1.8069682,0.3959427,1.7597733,1.1958252,-3.3740113,-2.6709595,90.0
1057,1.8069682,0.3959427,1.7597733,1.351941,-4.449829,-3.0617797,90.0
1058,3.2396054,0.97834015,0.97946167,1.351941,-4.449829,-3.0617797,90.0
1059,3.2396054,0.97834015,0.97946167,1.2319336,-5.2909427,-3.437732,90.0
1060,3.7009983,1.3753471,-0.24945068,1.2319336,-5.2909427,-3.437732,90.0
1061,3.7009983,1.3753471,-0.24945068,0.8421753,-5.4629884,-3.7552736,90.0
1062,3.2242508,1.5128136,-1.4202156,0.8421753,-5.4629884,-3.7552736,90.0
1063,3.2242508,1.5128136,-1.4202156,0.3791382,-5.0997806,-4.067505,90.0
1064,2.1737728,1.2876205,-2.164627,0.3791382,-5.0997806,-4.067505,90.0
1065,2.1737728,1.2876205,-2.164627,0.053100586,-4.4084105,-4.338318,90.0
1066,0.9513111,0.79138947,-2.4700813,0.053100586,-4.4084105,-4.338318,90.0
1067,0.9513111,0.79138947,-2.4700813,-0.083898924,-3.4823365,-4.5762086,90.0
1068,-0.13918304,0.4390068,-2.0996132,-0.083898924,-3.4823365,-4.5762086,90.0
1069,-0.13918304,0.4390068,-2.0996132,-0.2166504,-2.6624634,-4.7280765,90.0
1070,-0.7807312,0.5937195,-0.98395157,-0.2166504,-2.6624634,-4.7280765,90.0
1071,-0.7807312,0.5937195,-0.98395157,-0.5511841,-2.1888063,-4.6632934,90.0
1072,-0.78985596,0.9281006,0.39542007,-0.5511841,-2.1888063,-4.6632934,90.0
1073,-0.78985596,0.9281006,0.39542007,-0.8889038,-2.079419,-4.431775,90.0
1074,-0.5313597,0.80820465,1.343689,-0.8889038,-2.079419,-4.431775,90.0
1075,-0.5313597,0.80820465,1.343689,-0.8527954,-2.436255,-4.1248536,90.0
1076,-0.24320316,0.17258835,1.2546387,-0.8527954,-2.436255,-4.1248536,90.0
1077,-0.24320316,0.17258835,1.2546387,-0.44710693,-2.625293,-3.8232422,90.0
1078,-0.06326389,-0.31141663,0.49390793,-0.44710693,-2.625293,-3.8232422,90.0
1079,-0.06326389,-0.31141663,0.49390793,0.087084964,-2.5222778,-3.437732,90.0
1080,-0.32860184,-0.091293335,0.08972931,0.087084964,-2.5222778,-3.437732,90.0
1081,-0.32860184,-0.091293335,0.08972931,0.27399904,-2.4043946,-2.9481447,90.0
1082,-1.0600247,0.33678055,0.35898972,0.27399904,-2.4043946,-2.9481447,90.0
1083,-1.0600247,0.33678055,0.35898972,-0.14124756,-2.2769532,-2.4628053,90.0
1084,-1.9055882,-0.105407715,0.90218353,-0.14124756,-2.2769532,-2.4628053,90.0
1085,-1.9055882,-0.105407715,0.90218353,-1.0535157,-1.9710938,-2.0528686,90.0
1086,-2.8971515,-1.3239975,1.2164612,-1.0535157,-1.9710938,-2.0528686,90.0
1087,-2.8971515,-1.3239975,1.2164612,-2.0114503,-1.7342652,-1.7863038,90.0
1088,-3.3393035,-2.393608,0.76950455,-2.0114503,-1.7342652,-1.7863038,90.0
1089,-3.3393035,-2.393608,0.76950455,-2.524402,-1.1618408,-1.1299804,90.0
1090,-2.7524853,-2.794487,-0.2359848,-2.524402,-1.1618408,-1.1299804,90.0
1091,-2.7524853,-2.794487,-0.2359848,-2.2047365,0.06478272,-0.22196046,90.0
1092,-2.0018663,-2.310505,-1.1113968,-2.2047365,0.06478272,-0.22196046,90.0
1093,-2.0018663,-2.310505,-1.1113968,-1.1639649,0.635083,1.1427246,90.0
1094,-1.3608556,-1.2748566,-1.4215775,-1.1639649,0.635083,1.1427246,90.0
1095,-1.3608556,-1.2748566,-1.4215775,0.028674318,1.359375,2.3045654,90.0
1096,-0.52423143,-0.17934418,-1.0968704,0.028674318,1.359375,2.3045654,90.0
1097,-0.52423143,-0.17934418,-1.0968704,0.4056885,1.8309082,3.165857,90.0
1098,0.37773418,0.7014694,-0.53775024,0.4056885,1.8309082,3.165857,90.0
1099,0.37773418,0.7014694,-0.53775024,0.50020754,2.2716432,3.7520874,90.0
1100,1.0692892,1.134079,-0.088394165,0.50020754,2.2716432,3.7520874,90.0
1101,1.0692892,1.134079,-0.088394165,0.46409914,2.4086425,4.1036134,90.0
1102,1.5729971,0.975502,0.14848709,0.46409914,2.4086425,4.1036134,90.0
1103,1.5729971,0.975502,0.14848709,0.30161133,2.4936035,4.2926517,90.0
1104,1.851171,0.4431572,0.23005676,0.30161133,2.4936035,4.2926517,90.0
1105,1.851171,0.4431572,0.23005676,-0.029736329,2.4967897,4.3669925,90.0
1106,1.6756268,0.037071228,0.12032318,-0.029736329,2.4967897,4.3669925,90.0
1107,1.6756268,0.037071228,0.12032318,-0.29205322,2.4351928,4.439209,90.0
1108,1.2438216,0.08672714,-0.12490845,-0.29205322,2.4351928,4.439209,90.0
1109,1.2438216,0.08672714,-0.12490845,-0.42161867,2.4521852,4.5878906,90.0
1110,0.8966074,0.39785767,-0.19156647,-0.42161867,2.4521852,4.5878906,90.0
1111,0.8966074,0.39785767,-0.19156647,-0.5214478,2.4256349,4.781177,90.0
1112,0.7422862,0.45883942,0.10839462,-0.5214478,2.4256349,4.781177,90.0
1113,0.7422862,0.45883942,0.10839462,-0.6064087,2.3162477,4.8597655,90.0
1114,0.7909117,0.15007782,0.6434021,-0.6064087,2.3162477,4.8597655,90.0
1115,0.7909117,0.15007782,0.6434021,-0.6966797,2.085791,4.7514405,90.0
1116,1.0483913,-0.1926117,1.0784187,-0.6966797,2.085791,4.7514405,90.0
1117,1.0483913,-0.1926117,1.0784187,-0.8729736,1.8309082,4.557092,90.0
1118,1.4621868,-0.32585526,1.070221,-0.8729736,1.8309082,4.557092,90.0
1119,1.4621868,-0.32585526,1.070221,-1.0673218,1.6238159,4.268225,90.0
1120,1.7468734,-0.3466568,0.69838715,-1.0673218,1.6238159,4.268225,90.0
1121,1.7468734,-0.3466568,0.69838715,-1.2499878,1.4846925,3.8423584,90.0
1122,1.6426401,-0.4563179,0.34667206,-1.2499878,1.4846925,3.8423584,90.0
1123,1.6426401,-0.4563179,0.34667206,-1.4145997,1.364685,3.3294067,90.0
1124,1.1950445,-0.819046,0.15403366,-1.4145997,1.364685,3.3294067,90.0
1125,1.1950445,-0.819046,0.15403366,-1.4528321,1.350879,2.7771606,90.0
1126,0.60189724,-1.4063568,0.0048446655,-1.4528321,1.350879,2.7771606,90.0
1127,0.60189724,-1.4063568,0.0048446655,-1.3168945,1.3848633,2.1877441,90.0
1128,0.004296303,-1.7919807,-0.20497513,-1.3168945,1.3848633,2.1877441,90.0
1129,0.004296303,-1.7919807,-0.20497513,-1.0949341,1.4623902,1.720459,90.0
1130,-0.6347828,-1.5474396,-0.37428284,-1.0949341,1.4623902,1.720459,90.0
1131,-0.6347828,-1.5474396,-0.37428284,-0.9228882,1.4761963,1.447522,90.0
1132,-1.4339008,-0.7796478,-0.36489105,-0.9228882,1.4761963,1.447522,90.0
1133,-1.4339008,-0.7796478,-0.36489105,-1.0269654,1.3530029,1.3498169,90.0
1134,-2.0745745,-0.09635925,-0.16016388,-1.0269654,1.3530029,1.3498169,90.0
1135,-2.0745745,-0.09635925,-0.16016388,-1.2425537,1.0959961,1.269104,90.0
1136,-1.9967203,0.13663101,-0.34976196,-1.2425537,1.0959961,1.269104,90.0
1137,-1.9967203,0.13663101,-0.34976196,-0.92501223,0.70198977,1.1374146,90.0
1138,-1.7942266,0.35501862,-0.9904175,-0.92501223,0.70198977,1.1374146,90.0
1139,-1.7942266,0.35501862,-0.9904175,0.06690674,0.36108398,0.79013675,90.0
1140,-2.146905,0.5228958,-0.9398918,0.06690674,0.36108398,0.79013675,90.0
1141,-2.146905,0.5228958,-0.9398918,0.89208984,-0.22939454,0.26762697,90.0
1142,-2.3404121,0.0958786,-0.12755966,0.89208984,-0.22939454,0.26762697,90.0
1143,-2.3404121,0.0958786,-0.12755966,1.3922974,-0.86341554,-0.6531372,90.0
1144,-1.6022248,-0.4958191,0.5154953,1.3922974,-0.86341554,-0.6531372,90.0
1145,-1.6022248,-0.4958191,0.5154953,1.9827759,-1.3976074,-1.6429322,90.0
1146,-0.14324236,-0.4828987,0.75725555,1.9827759,-1.3976074,-1.6429322,90.0
1147,-0.14324236,-0.4828987,0.75725555,2.6645875,-1.983838,-2.3725343,90.0
1148,1.5029478,0.18120956,0.8664856,2.6645875,-1.983838,-2.3725343,90.0
1149,1.5029478,0.18120956,0.8664856,2.986377,-2.4713013,-2.8695557,90.0
1150,2.8307152,0.9466629,0.91877365,2.986377,-2.4713013,-2.8695557,90.0
1151,2.8307152,0.9466629,0.91877365,2.6571534,-3.0309815,-3.2816162,90.0
1152,3.3141937,1.2936935,0.6794548,2.6571534,-3.0309815,-3.2816162,90.0
1153,3.3141937,1.2936935,0.6794548,2.0188844,-3.4218018,-3.7181032,90.0
1154,2.9352055,1.1648636,0.01322937,2.0188844,-3.4218018,-3.7181032,90.0
1155,2.9352055,1.1648636,0.01322937,1.445398,-3.4101198,-4.077063,90.0
1156,2.00146,0.92988586,-0.6400871,1.445398,-3.4101198,-4.077063,90.0
1157,2.00146,0.92988586,-0.6400871,0.9632446,-3.2890503,-4.4073486,90.0
1158,0.9970293,0.7992439,-0.85824966,0.9632446,-3.2890503,-4.4073486,90.0
1159,0.9970293,0.7992439,-0.85824966,0.5851685,-3.1085083,-4.6431155,90.0
1160,0.41760635,0.7005997,-0.7585106,0.5851685,-3.1085083,-4.6431155,90.0
1161,0.41760635,0.7005997,-0.7585106,0.48109132,-2.8759277,-4.7482543,90.0
1162,0.4534092,0.52490616,-0.7314644,0.48109132,-2.8759277,-4.7482543,90.0
1163,0.4534092,0.52490616,-0.7314644,0.721106,-2.6433473,-4.7429442,90.0
1164,0.6773758,0.40725708,-0.7760391,0.721106,-2.6433473,-4.7429442,90.0
1165,0.6773758,0.40725708,-0.7760391,1.2722901,-2.4585571,-4.6378055,90.0
1166,0.5870056,0.706089,-0.59303665,1.2722901,-2.4585571,-4.6378055,90.0
1167,0.5870056,0.706089,-0.59303665,1.7300171,-2.5976808,-4.326636,90.0
1168,0.5870056,0.706089,-0.59303665,1.7300171,-2.5976808,-4.326636,91.0
1169,0.22775841,1.3386612,-0.38219452,1.7300171,-2.5976808,-4.326636,91.0
1170,0.22775841,1.3386612,-0.38219452,1.899939,-2.819641,-3.8763428,91.0
1171,0.012248039,1.7284508,-0.58102417,1.899939,-2.819641,-3.8763428,91.0
1172,0.012248039,1.7284508,-0.58102417,1.8585205,-2.822827,-3.4334838,91.0
1173,-0.05257988,1.7480698,-0.9459114,1.8585205,-2.822827,-3.4334838,91.0
1174,-0.05257988,1.7480698,-0.9459114,1.5675293,-2.7984009,-3.0256715,91.0
1175,-0.39316273,1.722992,-0.86434555,1.5675293,-2.7984009,-3.0256715,91.0
1176,-0.39316273,1.722992,-0.86434555,0.7975708,-2.8153932,-2.6507814,91.0
1177,-1.1146641,1.6353264,-0.4014969,0.7975708,-2.8153932,-2.6507814,91.0
1178,-1.1146641,1.6353264,-0.4014969,-0.2888672,-2.7569826,-2.3353639,91.0
1179,-2.094819,1.0358849,-0.101364136,-0.2888672,-2.7569826,-2.3353639,91.0
1180,-2.094819,1.0358849,-0.101364136,-1.3307008,-2.5891845,-2.1049073,91.0
1181,-3.17024,-0.30778885,-0.3166275,-1.3307008,-2.5891845,-2.1049073,91.0
1182,-3.17024,-0.30778885,-0.3166275,-1.903125,-2.2461548,-2.0380006,91.0
1183,-3.4040265,-1.9709854,-0.653389,-1.903125,-2.2461548,-2.0380006,91.0
1184,-3.4040265,-1.9709854,-0.653389,-2.1250856,-1.6471802,-1.9307374,91.0
1185,-2.865018,-2.6630173,-0.28574753,-2.1250856,-1.6471802,-1.9307374,91.0
1186,-2.865018,-2.6630173,-0.28574753,-2.095349,-0.8973999,-1.5823975,91.0
1187,-2.9362159,-1.9354706,0.48425293,-2.095349,-0.8973999,-1.5823975,91.0
1188,-2.9362159,-1.9354706,0.48425293,-1.8946289,-1.0152832,-0.70092773,91.0
1189,-3.0710797,-0.9440918,0.61486816,-1.8946289,-1.0152832,-0.70092773,91.0
1190,-3.0710797,-0.9440918,0.61486816,-1.5940796,-0.68712157,0.4258667,91.0
1191,-2.338663,-0.45848465,0.09035492,-1.5940796,-0.68712157,0.4258667,91.0
1192,-2.338663,-0.45848465,0.09035492,-1.4602661,-0.0541626,1.5494751,91.0
1193,-1.3284624,-0.3966446,-0.47882843,-1.4602661,-0.0541626,1.5494751,91.0
1194,-1.3284624,-0.3966446,-0.47882843,-1.2244996,0.6414551,2.5976808,91.0
1195,-0.2694838,-0.4808426,-0.67092896,-1.2244996,0.6414551,2.5976808,91.0
1196,-0.2694838,-0.4808426,-0.67092896,-0.77526855,1.3296387,3.3910034,91.0
1197,0.9872937,-0.41822815,-0.5517731,-0.77526855,1.3296387,3.3910034,91.0
1198,0.9872937,-0.41822815,-0.5517731,-0.3355957,2.0624268,4.0112185,91.0
1199,2.1679478,-0.056907654,-0.44319153,-0.3355957,2.0624268,4.0112185,91.0
1200,2.1679478,-0.056907654,-0.44319153,0.047790527,2.7304323,4.3871703,91.0
1201,2.714839,0.36945343,-0.6010475,0.047790527,2.7304323,4.3871703,91.0
1202,2.714839,0.36945343,-0.6010475,0.36851808,3.270996,4.530542,91.0
1203,2.4872522,0.7130661,-1.1280212,0.36851808,3.270996,4.530542,91.0
1204,2.4872522,0.7130661,-1.1280212,0.70198977,3.7807617,4.5751467,91.0
1205,1.724946,1.1335602,-1.4899673,0.70198977,3.7807617,4.5751467,91.0
1206,1.724946,1.1335602,-1.4899673,1.1437867,4.12273,4.616565,91.0
1207,0.6996465,1.598484,-1.133625,1.1437867,4.12273,4.616565,91.0
1208,0.6996465,1.598484,-1.133625,1.44646,4.055823,4.523108,91.0
1209,-0.18314171,1.8045044,-0.15719223,1.44646,4.055823,4.523108,91.0
1210,-0.18314171,1.8045044,-0.15719223,1.3487549,3.79032,4.353186,91.0
1211,-0.50033426,1.5554047,0.8792,1.3487549,3.79032,4.353186,91.0
1212,-0.50033426,1.5554047,0.8792,0.9409424,3.3017945,4.1237917,91.0
1213,-0.12158108,0.9317894,1.374855,0.9409424,3.3017945,4.1237917,91.0
1214,-0.12158108,0.9317894,1.374855,0.51082766,2.8419435,3.8232422,91.0
1215,0.7221322,0.2489357,1.128521,0.51082766,2.8419435,3.8232422,91.0
1216,0.7221322,0.2489357,1.128521,0.20178223,2.5679443,3.5237548,91.0
1217,1.406014,-0.115917206,0.6990967,0.20178223,2.5679443,3.5237548,91.0
1218,1.406014,-0.115917206,0.6990967,-0.20284425,2.3151855,3.2062135,91.0
1219,1.4914494,-0.17460632,0.6264534,-0.20284425,2.3151855,3.2062135,91.0
1220,1.4914494,-0.17460632,0.6264534,-0.76677245,2.0507448,2.9279664,91.0
1221,1.1774979,-0.23486328,0.72883606,-0.76677245,2.0507448,2.9279664,91.0
1222,1.1774979,-0.23486328,0.72883606,-1.3381348,1.8553345,2.6667116,91.0
1223,0.9343443,-0.5262222,0.62568665,-1.3381348,1.8553345,2.6667116,91.0
1224,0.9343443,-0.5262222,0.62568665,-1.8202881,1.7661256,2.3937745,91.0
1225,0.8926048,-1.030304,0.24723816,-1.8202881,1.7661256,2.3937745,91.0
1226,0.8926048,-1.030304,0.24723816,-2.0231323,1.7852417,2.0995972,91.0
1227,0.73643494,-1.4514389,-0.09630203,-2.0231323,1.7852417,2.0995972,91.0
1228,0.73643494,-1.4514389,-0.09630203,-1.8840088,1.7809937,1.8415283,91.0
1229,0.4179201,-1.5048141,-0.18355942,-1.8840088,1.7809937,1.8415283,91.0
1230,0.4179201,-1.5048141,-0.18355942,-1.3986695,1.7448853,1.6248779,91.0
1231,0.046873093,-1.2003632,-0.29264832,-1.3986695,1.7448853,1.6248779,91.0
1232,0.046873093,-1.2003632,-0.29264832,-0.47684327,1.713025,1.4252198,91.0
1233,-0.61655426,-0.64826584,-0.41455078,-0.47684327,1.713025,1.4252198,91.0
1234,-0.61655426,-0.64826584,-0.41455078,0.5894165,1.5484132,1.0567017,91.0
1235,-1.6018004,-0.30825043,-0.08268738,0.5894165,1.5484132,1.0567017,91.0
1236,-1.6018004,-0.30825043,-0.08268738,1.454956,1.1480347,0.5341919,91.0
1237,-2.5238352,-0.5724907,0.6951561,1.454956,1.1480347,0.5341919,91.0
1238,-2.5238352,-0.5724907,0.6951561,1.7512573,0.3717041,-0.270813,91.0
1239,-2.8218756,-1.0117149,1.3934059,1.7512573,0.3717041,-0.270813,91.0
1240,-2.8218756,-1.0117149,1.3934059,1.7066529,-0.5055176,-1.1299804,91.0
1241,-2.2867122,-0.98942566,1.6131134,1.7066529,-0.5055176,-1.1299804,91.0
1242,-2.2867122,-0.98942566,1.6131134,2.0135744,-1.4995606,-1.7002808,91.0
1243,-1.1675048,-0.33522797,1.5056267,2.0135744,-1.4995606,-1.7002808,91.0
1244,-1.1675048,-0.33522797,1.5056267,2.3746583,-2.4043946,-1.9689697,91.0
1245,0.2231493,0.49322128,1.2008286,2.3746583,-2.4043946,-1.9689697,91.0
1246,0.2231493,0.49322128,1.2008286,2.6390991,-3.2338257,-2.1452637,91.0
1247,1.414237,0.98246765,0.67235565,2.6390991,-3.2338257,-2.1452637,91.0
1248,1.414237,0.98246765,0.67235565,2.6932619,-3.9411256,-2.3916504,91.0
1249,1.9294119,1.0860748,-0.10390091,2.6932619,-3.9411256,-2.3916504,91.0
1250,1.9294119,1.0860748,-0.10390091,2.4606812,-4.2958374,-2.6911378,91.0
1251,1.6703119,1.017067,-0.9010658,2.4606812,-4.2958374,-2.6911378,91.0
1252,1.6703119,1.017067,-0.9010658,1.9349854,-4.37655,-3.0394776,91.0
1253,1.0398874,0.9642525,-1.3684845,1.9349854,-4.37655,-3.0394776,91.0
1254,1.0398874,0.9642525,-1.3684845,1.2032593,-4.2172484,-3.3888795,91.0
1255,0.5260992,0.9911041,-1.488266,1.2032593,-4.2172484,-3.3888795,91.0
1256,0.5260992,0.9911041,-1.488266,0.4895874,-3.892273,-3.6480103,91.0
1257,0.34253454,0.9812393,-1.4484138,0.4895874,-3.892273,-3.6480103,91.0
1258,0.34253454,0.9812393,-1.4484138,0.04248047,-3.4706542,-3.7308471,91.0
1259,0.40006542,0.8402519,-1.3006973,0.04248047,-3.4706542,-3.7308471,91.0
1260,0.40006542,0.8402519,-1.3006973,-0.012744141,-3.0086792,-3.6469483,91.0
1261,0.41543818,0.65156937,-0.89523315,-0.012744141,-3.0086792,-3.6469483,91.0
1262,0.41543818,0.65156937,-0.89523315,0.14868164,-2.6837037,-3.3984375,91.0
1263,0.16911793,0.5699234,-0.3456421,0.14868164,-2.6837037,-3.3984375,91.0
1264,0.16911793,0.5699234,-0.3456421,0.44073486,-2.526526,-3.0214233,91.0
1265,-0.14333105,0.56632614,-0.059387207,0.44073486,-2.526526,-3.0214233,91.0
1266,-0.14333105,0.56632614,-0.059387207,0.7508423,-2.4638672,-2.5998046,91.0
1267,-0.3146286,0.5716286,-0.1484375,0.7508423,-2.4638672,-2.5998046,91.0
1268,-0.3146286,0.5716286,-0.1484375,0.9409424,-2.3268678,-2.2291627,91.0
1269,-0.482172,0.6577034,-0.23352051,0.9409424,-2.3268678,-2.2291627,91.0
1270,-0.482172,0.6577034,-0.23352051,0.7391602,-2.3258057,-1.898877,91.0
1271,-0.7088213,0.7724266,-0.0044670105,0.7391602,-2.3258057,-1.898877,91.0
1272,-0.7088213,0.7724266,-0.0044670105,0.21346436,-2.3332398,-1.622754,91.0
1273,-0.85060215,0.741745,0.5426178,0.21346436,-2.3332398,-1.622754,91.0
1274,-0.85060215,0.741745,0.5426178,-0.57454836,-2.3226197,-1.3349488,91.0
1275,-1.1069465,0.3836441,1.1517487,-0.57454836,-2.3226197,-1.3349488,91.0
1276,-1.1069465,0.3836441,1.1517487,-1.632312,-2.0103881,-1.0248413,91.0
1277,-1.3577986,-0.52069855,1.4018326,-1.632312,-2.0103881,-1.0248413,91.0
1278,-1.3577986,-0.52069855,1.4018326,-2.5190918,-1.7565674,-0.9781128,91.0
1279,-0.7483239,-1.6637878,1.3152313,-2.5190918,-1.7565674,-0.9781128,91.0
1280,-0.7483239,-1.6637878,1.3152313,-2.9332764,-0.8485474,-0.65207523,91.0
1281,-0.24544907,-2.1809921,1.3021698,-2.9332764,-0.8485474,-0.65207523,91.0
1282,-0.24544907,-2.1809921,1.3021698,-3.1212525,-0.51826173,-0.2793091,91.0
1283,-0.60071754,-1.8975754,1.0831909,-3.1212525,-0.51826173,-0.2793091,91.0
1284,-0.60071754,-1.8975754,1.0831909,-2.8738039,0.083898924,0.5331299,91.0
1285,-0.60071754,-1.8975754,1.0831909,-2.8738039,0.083898924,0.5331299,91.0
1286,-1.0211501,-1.3125534,0.6843033,-2.8738039,0.083898924,0.5331299,91.0
1287,-1.0211501,-1.3125534,0.6843033,-2.4681153,0.55968016,1.360437,91.0
1288,-1.084877,-1.0492744,0.3717804,-2.4681153,0.55968016,1.360437,91.0
1289,-1.084877,-1.0492744,0.3717804,-1.893567,1.0333375,2.0634887,91.0
1290,-0.68269634,-1.2376976,-0.12489319,-1.893567,1.0333375,2.0634887,91.0
1291,-0.68269634,-1.2376976,-0.12489319,-0.8050049,1.5292969,2.5636964,91.0
1292,0.041233063,-1.2236938,-0.7056503,-0.8050049,1.5292969,2.5636964,91.0
1293,0.041233063,-1.2236938,-0.7056503,0.24957275,2.0571167,2.9056642,91.0
1294,0.71246624,-0.6157379,-0.9664612,0.24957275,2.0571167,2.9056642,91.0
1295,0.71246624,-0.6157379,-0.9664612,0.9589966,2.546704,3.1881592,91.0
1296,0.8712063,0.2960434,-0.62467194,0.9589966,2.546704,3.1881592,91.0
1297,0.8712063,0.2960434,-0.62467194,1.1214844,2.7601686,3.3952515,91.0
1298,0.46837616,0.97779083,-0.019699097,1.1214844,2.7601686,3.3952515,91.0
1299,0.46837616,0.97779083,-0.019699097,0.7434082,2.7283082,3.6044679,91.0
1300,-0.007171631,1.0953178,0.14730072,0.7434082,2.7283082,3.6044679,91.0
1301,-0.007171631,1.0953178,0.14730072,0.23682861,2.6645875,3.7584596,91.0
1302,-0.112170696,0.7428665,-0.2720642,0.23682861,2.6645875,3.7584596,91.0
1303,-0.112170696,0.7428665,-0.2720642,-0.12319336,2.7431762,3.8635986,91.0
1304,-0.112170696,0.7428665,-0.2720642,-0.25594482,2.7622926,3.9018312,91.0
1305,0.028317928,0.21782684,-0.6275749,-0.25594482,2.7622926,3.9018312,91.0
1306,1.3174176,-0.40357208,0.7097931,-0.25594482,2.7622926,3.9018312,91.0
1307,1.3174176,-0.40357208,0.7097931,-0.20709229,2.6444092,3.8699708,91.0
1308,1.3174176,-0.40357208,0.7097931,-0.18479005,2.440503,3.8136842,91.0
1309,1.3174176,-0.40357208,0.7097931,-0.32497558,2.163318,3.707483,91.0
1310,1.6755161,-0.114852905,0.7205086,-0.32497558,2.163318,3.707483,91.0
1311,1.6755161,-0.114852905,0.7205086,-0.59260255,1.9583496,3.531189,91.0
1312,1.8505573,0.088905334,0.42570877,-0.59260255,1.9583496,3.531189,91.0
1313,1.8505573,0.088905334,0.42570877,-1.0067872,1.7831177,3.2794921,91.0
1314,1.6831923,0.08161926,0.16496658,-1.0067872,1.7831177,3.2794921,91.0
1315,1.6831923,0.08161926,0.16496658,-1.4974365,1.6386842,2.9661987,91.0
1316,1.2108603,-0.1990509,-0.0051116943,-1.4974365,1.6386842,2.9661987,91.0
1317,1.2108603,-0.1990509,-0.0051116943,-1.9073731,1.5271729,2.5700684,91.0
1318,0.61404943,-0.7620964,-0.1542244,-1.9073731,1.5271729,2.5700684,91.0
1319,0.61404943,-0.7620964,-0.1542244,-2.0581787,1.4995606,2.1070313,91.0
1320,0.060539246,-1.4372025,-0.18601608,-2.0581787,1.4995606,2.1070313,91.0
1321,0.060539246,-1.4372025,-0.18601608,-1.8680786,1.4804443,1.6046997,91.0
1322,-0.37874126,-1.8910599,-0.046165466,-1.8680786,1.4804443,1.6046997,91.0
1323,-0.37874126,-1.8910599,-0.046165466,-1.3869873,1.4517701,1.1225464,91.0
1324,-0.284719,-1.8517647,0.050247192,-1.3869873,1.4517701,1.1225464,91.0
1325,-0.284719,-1.8517647,0.050247192,-0.6085327,1.3954834,0.7327881,91.0
1326,0.083809376,-1.1829987,-0.18685532,-0.6085327,1.3954834,0.7327881,91.0
1327,0.083809376,-1.1829987,-0.18685532,0.39400634,1.2468017,0.53737795,91.0
1328,-0.29956627,-0.06072998,-0.53004074,0.39400634,1.2468017,0.53737795,91.0
1329,-0.29956627,-0.06072998,-0.53004074,1.2807862,0.90270996,0.37489015,91.0
1330,-1.491765,0.7457504,-0.32697296,1.2807862,0.90270996,0.37489015,91.0
1331,-1.491765,0.7457504,-0.32697296,1.7661256,0.452417,0.14018555,91.0
1332,-2.4288611,0.57678986,0.52643204,1.7661256,0.452417,0.14018555,91.0
1333,-2.4288611,0.57678986,0.52643204,1.6769165,-0.31329346,-0.38763428,91.0
1334,-2.2474103,-0.19597626,1.3552856,1.6769165,-0.31329346,-0.38763428,91.0
1335,-2.2474103,-0.19597626,1.3552856,1.5335449,-1.1926392,-1.1342286,91.0
1336,-1.0545812,-0.5810852,1.6878319,1.5335449,-1.1926392,-1.1342286,91.0
1337,-1.0545812,-0.5810852,1.6878319,1.7109009,-2.1378295,-1.7916138,91.0
1338,0.60700655,-0.073265076,1.7039986,1.7109009,-2.1378295,-1.7916138,91.0
1339,0.60700655,-0.073265076,1.7039986,1.9041871,-3.0564697,-2.2259767,91.0
1340,2.1195288,0.78502655,1.4432411,1.9041871,-3.0564697,-2.2259767,91.0
1341,2.1195288,0.78502655,1.4432411,1.8776368,-4.0420165,-2.616797,91.0
1342,2.7339406,1.282341,0.6185684,1.8776368,-4.0420165,-2.616797,91.0
1343,2.7339406,1.282341,0.6185684,1.5908936,-4.609131,-3.0256715,91.0
1344,2.2591863,1.2722702,-0.6215744,1.5908936,-4.609131,-3.0256715,91.0
1345,2.2591863,1.2722702,-0.6215744,1.1883911,-4.711084,-3.4770265,91.0
1346,1.2492924,0.9999695,-1.720295,1.1883911,-4.711084,-3.4770265,91.0
1347,1.2492924,0.9999695,-1.720295,0.7412842,-4.3669925,-3.9135132,91.0
1348,0.37296915,0.76644135,-2.2312775,0.7412842,-4.3669925,-3.9135132,91.0
1349,0.37296915,0.76644135,-2.2312775,0.31223145,-3.7701416,-4.3075194,91.0
1350,0.37296915,0.76644135,-2.2312775,0.13806152,-3.1594849,-4.4880614,91.0
1351,-0.07035065,0.6577072,-2.0593529,0.13806152,-3.1594849,-4.4880614,91.0
1352,-0.46105337,0.68517685,-1.125988,0.13806152,-3.1594849,-4.4880614,91.0
1353,-0.46105337,0.68517685,-1.125988,0.25806886,-2.625293,-4.4583254,91.0
1354,-0.46105337,0.68517685,-1.125988,0.5979126,-2.2833252,-4.236365,91.0
1355,-0.46105337,0.68517685,-1.125988,1.1087402,-2.1027832,-3.8529785,91.0
1356,-0.87374973,0.66225433,-0.6226654,1.1087402,-2.1027832,-3.8529785,91.0
1357,-2.0324473,1.6694756,-0.8853035,1.1087402,-2.1027832,-3.8529785,91.0
1358,-2.0324473,1.6694756,-0.8853035,1.5547851,-2.0241945,-3.3676393,91.0
1359,-2.0324473,1.6694756,-0.8853035,1.7013428,-2.0156982,-2.8472536,91.0
1360,-2.0324473,1.6694756,-0.8853035,1.5930176,-1.8670167,-2.3587282,91.0
1361,-1.454144,1.5762672,-0.94945145,1.5930176,-1.8670167,-2.3587282,91.0
1362,-1.454144,1.5762672,-0.94945145,1.2839721,-1.8001099,-1.9073731,91.0
1363,-1.0850191,1.2777481,-0.6602211,1.2839721,-1.8001099,-1.9073731,91.0
1364,-1.0850191,1.2777481,-0.6602211,0.6605713,-1.7077149,-1.4889405,91.0
1365,-1.0750957,0.875618,0.002986908,0.6605713,-1.7077149,-1.4889405,91.0
1366,-1.0750957,0.875618,0.002986908,-0.21877442,-1.721521,-1.0959961,91.0
1367,-1.3044491,0.5209427,0.6785126,-0.21877442,-1.721521,-1.0959961,91.0
1368,-1.3044491,0.5209427,0.6785126,-1.263794,-1.6822265,-0.79969484,91.0
1369,-1.2914963,0.17152786,0.83745193,-1.263794,-1.6822265,-0.79969484,91.0
1370,-1.2914963,0.17152786,0.83745193,-2.0199463,-1.4815063,-0.48533937,91.0
1371,-0.543036,-0.30854034,0.5947647,-2.0199463,-1.4815063,-0.48533937,91.0
1372,-0.543036,-0.30854034,0.5947647,-2.353418,-0.78376466,-0.09770508,91.0
1373,0.0026073456,-0.74741745,0.46842575,-2.353418,-0.78376466,-0.09770508,91.0
1374,0.0026073456,-0.74741745,0.46842575,-2.5392702,-0.38338622,0.36320803,91.0
1375,-0.26926422,-1.1071243,0.111946106,-2.5392702,-0.38338622,0.36320803,91.0
1376,-0.26926422,-1.1071243,0.111946106,-2.1962402,0.26868898,0.8750977,91.0
1377,-0.5826235,-1.2037888,-0.4836731,-2.1962402,0.26868898,0.8750977,91.0
1378,-0.5826235,-1.2037888,-0.4836731,-1.7013428,0.96430665,1.449646,91.0
1379,-0.553977,-0.90984344,-0.71398926,-1.7013428,0.96430665,1.449646,91.0
1380,-0.553977,-0.90984344,-0.71398926,-1.2032593,1.4740723,2.0433106,91.0
1381,-0.12651873,-0.6103058,-0.71367264,-1.2032593,1.4740723,2.0433106,91.0
1382,-0.12651873,-0.6103058,-0.71367264,-0.51082766,1.9158691,2.5573242,91.0
1383,0.60753727,-0.43735504,-0.77316284,-0.51082766,1.9158691,2.5573242,91.0
1384,0.60753727,-0.43735504,-0.77316284,0.2516968,2.3980224,2.9651368,91.0
1385,1.3294382,-0.16027069,-0.7865982,0.2516968,2.3980224,2.9651368,91.0
1386,1.3294382,-0.16027069,-0.7865982,0.74871826,2.7612305,3.250818,91.0
1387,1.5005989,0.26335144,-0.74264526,0.74871826,2.7612305,3.250818,91.0
1388,1.5005989,0.26335144,-0.74264526,0.8729736,2.9587648,3.454724,91.0
1389,0.94665813,0.5522461,-0.9322777,0.8729736,2.9587648,3.454724,91.0
1390,0.94665813,0.5522461,-0.9322777,0.77739257,3.1424928,3.5959718,91.0
1391,0.08690405,0.56145096,-1.422409,0.77739257,3.1424928,3.5959718,91.0
1392,0.08690405,0.56145096,-1.422409,0.6552612,3.3655152,3.6480103,91.0
1393,-0.7216511,0.4437027,-1.667141,0.6552612,3.3655152,3.6480103,91.0
1394,-0.7216511,0.4437027,-1.667141,0.45560303,3.5524292,3.5980957,91.0
1395,-1.4568129,0.23731232,-1.0206985,0.45560303,3.5524292,3.5980957,91.0
1396,-1.4568129,0.23731232,-1.0206985,0.15823975,3.3793213,3.434546,91.0
1397,-1.9703698,-0.16281128,0.3869171,0.15823975,3.3793213,3.434546,91.0
1398,-1.9703698,-0.16281128,0.3869171,-0.23045655,2.802649,3.1148803,91.0
1399,-1.8985004,-0.6720085,1.6737556,-0.23045655,2.802649,3.1148803,91.0
1400,-1.8985004,-0.6720085,1.6737556,-0.71579593,2.1165893,2.715564,91.0
1401,-1.0796523,-1.0452232,2.2274704,-0.71579593,2.1165893,2.715564,91.0
1402,-1.0796523,-1.0452232,2.2274704,-1.263794,1.449646,2.2886353,91.0
1403,0.1474595,-1.0911713,2.219696,-1.263794,1.449646,2.2886353,91.0
1404,0.1474595,-1.0911713,2.219696,-1.8468384,0.7848267,1.893567,91.0
1405,1.3084583,-0.8790512,2.004261,-1.8468384,0.7848267,1.893567,91.0
1406,1.3084583,-0.8790512,2.004261,-2.2748291,0.22408448,1.6333741,91.0
1407,2.0794086,-0.6803627,1.6710587,-2.2748291,0.22408448,1.6333741,91.0
1408,2.0794086,-0.6803627,1.6710587,-2.6029909,-0.13699952,1.5250489,91.0
1409,2.394081,-0.7025757,1.1535721,-2.6029909,-0.13699952,1.5250489,91.0
1410,2.394081,-0.7025757,1.1535721,-2.7113159,-0.23258057,1.535669,91.0
1411,2.2478576,-0.94226074,0.7805481,-2.7113159,-0.23258057,1.535669,91.0
1412,2.2478576,-0.94226074,0.7805481,-2.642285,-0.15717773,1.5930176,91.0
1413,2.4068675,-1.0793953,-0.51678467,-2.642285,-0.15717773,1.5930176,91.0
1414,2.4068675,-1.0793953,-0.51678467,-1.8330323,0.42374268,1.8765748,91.0
1415,2.008453,-1.1452789,-0.78375244,-1.8330323,0.42374268,1.8765748,91.0
1416,2.008453,-1.1452789,-0.78375244,-1.3944215,0.7306641,1.9434814,91.0
1417,1.2547603,-0.78751373,-1.2050934,-1.3944215,0.7306641,1.9434814,91.0
1418,1.2547603,-0.78751373,-1.2050934,-0.3982544,1.3668091,1.8648926,91.0
1419,0.77503586,-0.59197235,-0.8679199,-0.3982544,1.3668091,1.8648926,91.0
1420,0.77503586,-0.59197235,-0.8679199,-0.11257324,1.5600952,1.7990478,91.0
1421,0.24548054,-0.1147995,-0.56481934,-0.11257324,1.5600952,1.7990478,91.0
1422,0.24548054,-0.1147995,-0.56481934,0.65632325,1.5091187,1.2128174,91.0
1423,-0.26898432,0.13933563,-0.32255936,0.65632325,1.5091187,1.2128174,91.0
1424,-0.26898432,0.13933563,-0.32255936,0.72216797,1.3020264,0.9430664,91.0
1425,-1.8047628,0.5573578,0.53180695,0.72216797,1.3020264,0.9430664,91.0
1426,-1.8047628,0.5573578,0.53180695,0.45347902,0.24957275,0.0063720704,91.0
1427,-1.8047628,0.5573578,0.53180695,0.45347902,0.24957275,0.0063720704,92.0
1428,-1.9110956,0.3889656,0.7290573,0.45347902,0.24957275,0.0063720704,92.0
1429,-1.9110956,0.3889656,0.7290573,0.36851808,-0.09770508,-0.3717041,92.0
1430,-1.9623971,-0.6423416,1.5015335,0.36851808,-0.09770508,-0.3717041,92.0
1431,-1.9623971,-0.6423416,1.5015335,0.9674927,-1.269104,-1.4815063,92.0
1432,-1.2975669,-0.5590973,1.4188194,0.9674927,-1.269104,-1.4815063,92.0
1433,-1.2975669,-0.5590973,1.4188194,1.3020264,-1.6567383,-1.7438233,92.0
1434,0.2776327,-0.06135559,1.6489449,1.3020264,-1.6567383,-1.7438233,92.0
1435,0.2776327,-0.06135559,1.6489449,2.0241945,-2.6741455,-2.2854493,92.0
1436,0.91268206,0.49037933,1.0672607,2.0241945,-2.6741455,-2.2854493,92.0
1437,0.91268206,0.49037933,1.0672607,2.0932252,-2.9184082,-2.442627,92.0
1438,1.4985046,0.886528,-0.014064789,2.0932252,-2.9184082,-2.442627,92.0
1439,1.4985046,0.886528,-0.014064789,1.7459472,-3.2932985,-2.9385865,92.0
1440,1.2078247,0.9780121,-0.60609055,1.7459472,-3.2932985,-2.9385865,92.0
1441,1.2078247,0.9780121,-0.60609055,1.538855,-3.2359498,-3.1085083,92.0
1442,0.37928486,0.8138199,-1.226963,1.538855,-3.2359498,-3.1085083,92.0
1443,0.37928486,0.8138199,-1.226963,1.0938721,-3.0500977,-3.4334838,92.0
1444,-0.34839106,0.67770386,-1.4409828,1.0938721,-3.0500977,-3.4334838,92.0
1445,-0.34839106,0.67770386,-1.4409828,0.6775635,-2.7718506,-3.6809328,92.0
1446,-0.5869527,0.5836296,-1.4190826,0.6775635,-2.7718506,-3.6809328,92.0
1447,-0.5869527,0.5836296,-1.4190826,0.55968016,-2.350232,-3.815808,92.0
1448,-0.52946186,0.5257416,-1.131958,0.55968016,-2.350232,-3.815808,92.0
1449,-0.52946186,0.5257416,-1.131958,0.70198977,-2.1272094,-3.805188,92.0
1450,-0.21972466,0.4761963,-0.49962234,0.70198977,-2.1272094,-3.805188,92.0
1451,-0.21972466,0.4761963,-0.49962234,1.2818482,-1.9594116,-3.5662353,92.0
1452,-0.21284008,0.6440811,-0.5003967,1.2818482,-1.9594116,-3.5662353,92.0
1453,-0.21284008,0.6440811,-0.5003967,1.5494751,-1.9572877,-3.437732,92.0
1454,-0.07513046,0.77724075,-0.49784088,1.5494751,-1.9572877,-3.437732,92.0
1455,-0.07513046,0.77724075,-0.49784088,2.0273805,-1.9668458,-3.1318727,92.0
1456,-0.026559353,1.0368919,-0.696476,2.0273805,-1.9668458,-3.1318727,92.0
1457,-0.026559353,1.0368919,-0.696476,2.2227905,-1.9764038,-2.7697265,92.0
1458,-0.1014967,1.3934059,-0.8798599,2.2227905,-1.9764038,-2.7697265,92.0
1459,-0.1014967,1.3934059,-0.8798599,2.0496826,-1.9530395,-2.362976,92.0
1460,-0.26142216,1.6172142,-0.95480347,2.0496826,-1.9530395,-2.362976,92.0
1461,-0.26142216,1.6172142,-0.95480347,1.5781494,-1.898877,-1.9594116,92.0
1462,-0.51559544,1.6529999,-0.9393196,1.5781494,-1.898877,-1.9594116,92.0
1463,-0.51559544,1.6529999,-0.9393196,0.8814697,-1.7289551,-1.5908936,92.0
1464,-0.84790134,1.4850464,-0.73856735,0.8814697,-1.7289551,-1.5908936,92.0
1465,-0.84790134,1.4850464,-0.73856735,0.057348635,-1.5951416,-1.268042,92.0
1466,-1.1677499,1.0823021,-0.5410614,0.057348635,-1.5951416,-1.268042,92.0
1467,-1.1677499,1.0823021,-0.5410614,-0.5968506,-1.3986695,-1.0333375,92.0
1468,-0.79816484,0.51560974,-0.23048401,-0.5968506,-1.3986695,-1.0333375,92.0
1469,-0.79816484,0.51560974,-0.23048401,-1.1267945,-1.1034302,-0.7848267,92.0
1470,-0.26139593,0.10169983,0.8209572,-1.1267945,-1.1034302,-0.7848267,92.0
1471,-0.26139593,0.10169983,0.8209572,-2.1176515,-0.9632446,-0.23789063,92.0
1472,-0.4897442,-0.0948143,1.1316681,-2.1176515,-0.9632446,-0.23789063,92.0
1473,-0.4897442,-0.0948143,1.1316681,-2.4203248,-0.9154541,-0.050976563,92.0
1474,-1.1330795,-0.40145874,0.85272217,-2.4203248,-0.9154541,-0.050976563,92.0
1475,-1.1330795,-0.40145874,0.85272217,-2.7421143,-0.5979126,0.36320803,92.0
1476,-1.0531187,-0.90037537,-0.16229248,-2.7421143,-0.5979126,0.36320803,92.0
1477,-1.0531187,-0.90037537,-0.16229248,-2.614673,0.16354981,0.8379273,92.0
1478,-0.5155053,-1.3905754,-0.8113251,-2.614673,0.16354981,0.8379273,92.0
1479,-0.5155053,-1.3905754,-0.8113251,-2.1049073,0.91757816,1.2308716,92.0
1480,-0.060842037,-1.6362762,-0.6493187,-2.1049073,0.91757816,1.2308716,92.0
1481,-0.060842037,-1.6362762,-0.6493187,-1.3742431,1.3668091,1.6174439,92.0
1482,0.3571005,-1.5212898,-0.23806763,-1.3742431,1.3668091,1.6174439,92.0
1483,0.3571005,-1.5212898,-0.23806763,-0.70198977,1.9084351,1.9668458,92.0
1484,0.5440421,-1.0523834,0.07804108,-0.70198977,1.9084351,1.9668458,92.0
1485,0.5440421,-1.0523834,0.07804108,-0.35471192,2.345984,2.3130615,92.0
1486,0.11573887,-0.4677353,0.3194046,-0.35471192,2.345984,2.3130615,92.0
1487,0.11573887,-0.4677353,0.3194046,-0.3462158,2.5690064,2.6475952,92.0
1488,-0.61497736,-0.10764694,0.33332825,-0.3462158,2.5690064,2.6475952,92.0
1489,-0.61497736,-0.10764694,0.33332825,-0.50020754,2.7368042,2.9322145,92.0
1490,-1.0729389,-0.1368866,0.0154418945,-0.50020754,2.7368042,2.9322145,92.0
1491,-1.0729389,-0.1368866,0.0154418945,-0.51932377,3.0139892,3.1414306,92.0
1492,-1.175087,-0.43343353,-0.300354,-0.51932377,3.0139892,3.1414306,92.0
1493,-1.175087,-0.43343353,-0.300354,-0.26656494,3.2295778,3.2370117,92.0
1494,-0.99646616,-0.7817917,-0.16517258,-0.26656494,3.2295778,3.2370117,92.0
1495,-0.99646616,-0.7817917,-0.16517258,0.17523193,3.3102906,3.2136476,92.0
1496,-0.5564623,-0.8953705,0.40859604,0.17523193,3.3102906,3.2136476,92.0
1497,-0.5564623,-0.8953705,0.40859604,0.5533081,3.180725,3.1339967,92.0
1498,0.106966496,-0.61237717,1.0020142,0.5533081,3.180725,3.1339967,92.0
1499,0.106966496,-0.61237717,1.0020142,0.6775635,2.9056642,3.0968263,92.0
1500,0.106966496,-0.61237717,1.0020142,0.5246338,2.5169678,3.1244385,92.0
1501,0.8838277,-0.015327454,1.2575569,0.5246338,2.5169678,3.1244385,92.0
1502,2.96319,1.0583916,1.4584007,0.5246338,2.5169678,3.1244385,92.0
1503,2.96319,1.0583916,1.4584007,0.2538208,1.9647217,3.1626709,92.0
1504,2.96319,1.0583916,1.4584007,-0.52888185,1.6939087,3.09364,92.0
1505,2.96319,1.0583916,1.4584007,-1.4209718,1.3211426,2.9502685,92.0
1506,2.370552,0.846714,1.1667213,-1.4209718,1.3211426,2.9502685,92.0
1507,2.856854,-0.75811386,-0.24752045,-1.4209718,1.3211426,2.9502685,92.0
1508,2.856854,-0.75811386,-0.24752045,-2.1941164,1.2043213,2.7559204,92.0
1509,2.856854,-0.75811386,-0.24752045,-2.5891845,1.268042,2.5169678,92.0
1510,2.856854,-0.75811386,-0.24752045,-2.546704,1.448584,2.2376587,92.0
1511,1.973288,-1.0089073,-0.42207718,-2.546704,1.448584,2.2376587,92.0
1512,1.973288,-1.0089073,-0.42207718,-2.066675,1.5091187,1.9785279,92.0
1513,1.1902761,-0.8440628,-0.24968338,-2.066675,1.5091187,1.9785279,92.0
1514,1.1902761,-0.8440628,-0.24968338,-1.1565307,1.5792115,1.6493043,92.0
1515,0.8274894,-0.5792389,-0.26313782,-1.1565307,1.5792115,1.6493043,92.0
1516,0.8274894,-0.5792389,-0.26313782,0.16248779,1.6801026,1.3328247,92.0
1517,-0.04573536,-0.41731262,-0.47660065,0.16248779,1.6801026,1.3328247,92.0
1518,-0.04573536,-0.41731262,-0.47660065,1.363623,1.4029175,0.7720825,92.0
1519,-1.6256628,-0.33205414,-0.08898163,1.363623,1.4029175,0.7720825,92.0
1520,-1.6256628,-0.33205414,-0.08898163,1.8436524,1.0333375,0.1709839,92.0
1521,-2.7041311,-0.29403687,0.79644394,1.8436524,1.0333375,0.1709839,92.0
1522,-2.7041311,-0.29403687,0.79644394,1.7756836,0.20178223,-0.4800293,92.0
1523,-2.4849114,-0.18511963,1.4078598,1.7756836,0.20178223,-0.4800293,92.0
1524,-2.4849114,-0.18511963,1.4078598,1.8425903,-0.72004396,-0.94625247,92.0
1525,-1.3174095,0.16355133,1.5805016,1.8425903,-0.72004396,-0.94625247,92.0
1526,-1.3174095,0.16355133,1.5805016,2.2100465,-1.7926759,-1.2393677,92.0
1527,0.13363361,0.6932411,1.5418892,2.2100465,-1.7926759,-1.2393677,92.0
1528,0.13363361,0.6932411,1.5418892,2.4840455,-2.7559204,-1.4528321,92.0
1529,1.4203224,1.0509071,1.2798119,2.4840455,-2.7559204,-1.4528321,92.0
1530,1.4203224,1.0509071,1.2798119,2.4936035,-3.7552736,-1.7894897,92.0
1531,2.1190825,1.0630646,0.5670624,2.4936035,-3.7552736,-1.7894897,92.0
1532,2.1190825,1.0630646,0.5670624,2.0911012,-4.483814,-2.2684572,92.0
1533,1.9587793,0.90695953,-0.5258293,2.0911012,-4.483814,-2.2684572,92.0
1534,1.9587793,0.90695953,-0.5258293,1.2786621,-4.680286,-2.811145,92.0
1535,1.1600289,0.8112488,-1.4426727,1.2786621,-4.680286,-2.811145,92.0
1536,1.1600289,0.8112488,-1.4426727,0.3154175,-4.5677123,-3.3623292,92.0
1537,0.35075283,0.8397827,-1.8429565,0.3154175,-4.5677123,-3.3623292,92.0
1538,0.35075283,0.8397827,-1.8429565,-0.5150757,-4.177954,-3.7818239,92.0
1539,-0.026086807,0.8849335,-1.7087059,-0.5150757,-4.177954,-3.7818239,92.0
1540,-0.026086807,0.8849335,-1.7087059,-1.0450195,-3.6958008,-4.0197144,92.0
1541,0.005400181,0.7593231,-1.1542931,-1.0450195,-3.6958008,-4.0197144,92.0
1542,0.005400181,0.7593231,-1.1542931,-1.0450195,-3.6958008,-4.0197144,92.0
1543,0.005400181,0.7593231,-1.1542931,-1.171399,-3.2317016,-4.059009,92.0
1544,0.14212513,0.3889618,-0.48011398,-1.171399,-3.2317016,-4.059009,92.0
1545,0.14212513,0.3889618,-0.48011398,-0.8793457,-2.8642457,-3.9581177,92.0
1546,0.15954971,-0.11773682,-0.10254669,-0.8793457,-2.8642457,-3.9581177,92.0
1547,0.15954971,-0.11773682,-0.10254669,-0.19647217,-2.6008668,-3.7595215,92.0
1548,-0.05743122,-0.36634827,0.008586884,-0.19647217,-2.6008668,-3.7595215,92.0
1549,-0.05743122,-0.36634827,0.008586884,0.6244629,-2.4075806,-3.5067627,92.0
1550,-0.44871616,-0.022743225,0.14709091,0.6244629,-2.4075806,-3.5067627,92.0
1551,-0.44871616,-0.022743225,0.14709091,1.0673218,-2.4691772,-3.1297486,92.0
1552,-0.7089486,0.649765,0.14942169,1.0673218,-2.4691772,-3.1297486,92.0
1553,-0.7089486,0.649765,0.14942169,1.0577637,-2.4489992,-2.6975098,92.0
1554,-0.5892658,1.0563202,-0.23821259,1.0577637,-2.4489992,-2.6975098,92.0
1555,-0.5892658,1.0563202,-0.23821259,0.8464233,-2.3321779,-2.3013794,92.0
1556,-0.42522144,1.0200195,-0.7260704,0.8464233,-2.3321779,-2.3013794,92.0
1557,-0.42522144,1.0200195,-0.7260704,0.54375,-2.076233,-1.9859619,92.0
1558,-0.7466836,0.89178467,-0.5452461,0.54375,-2.076233,-1.9859619,92.0
1559,-0.7466836,0.89178467,-0.5452461,-0.10620117,-1.9902099,-1.7034668,92.0
1560,-1.541573,0.5980339,0.4253502,-0.10620117,-1.9902099,-1.7034668,92.0
1561,-1.541573,0.5980339,0.4253502,-0.9324463,-1.9551636,-1.4326538,92.0
1562,-1.9396548,-0.18536377,1.3636436,-0.9324463,-1.9551636,-1.4326538,92.0
1563,-1.9396548,-0.18536377,1.3636436,-1.8500245,-1.9636596,-1.2096313,92.0
1564,-0.96333313,-1.2679214,1.535656,-1.8500245,-1.9636596,-1.2096313,92.0
1565,-0.96333313,-1.2679214,1.535656,-2.7591064,-1.2977784,-0.81243896,92.0
1566,-0.104272366,-1.9122162,0.9631195,-2.7591064,-1.2977784,-0.81243896,92.0
1567,-0.104272366,-1.9122162,0.9631195,-3.1446168,-0.7763306,-0.42161867,92.0
1568,-0.43155003,-1.6356659,0.020824432,-3.1446168,-0.7763306,-0.42161867,92.0
1569,-0.43155003,-1.6356659,0.020824432,-2.7484863,-0.090270996,0.6159668,92.0
1570,-0.7544198,-0.9364624,-0.6100502,-2.7484863,-0.090270996,0.6159668,92.0
1571,-0.7544198,-0.9364624,-0.6100502,-2.2950075,0.6881836,1.7735596,92.0
1572,-0.5847492,-0.7021866,-0.54322815,-2.2950075,0.6881836,1.7735596,92.0
1573,-0.5847492,-0.7021866,-0.54322815,-1.7724975,1.2956543,2.613611,92.0
1574,0.01259613,-1.0532799,-0.23849106,-1.7724975,1.2956543,2.613611,92.0
1575,0.01259613,-1.0532799,-0.23849106,-0.8092529,1.7597535,3.1945312,92.0
1576,0.9700136,-1.269249,-0.15529633,-0.8092529,1.7597535,3.1945312,92.0
1577,0.9700136,-1.269249,-0.15529633,0.18691407,2.2334106,3.525879,92.0
1578,1.8191018,-0.8332596,-0.16695023,0.18691407,2.2334106,3.525879,92.0
1579,1.8191018,-0.8332596,-0.16695023,0.77102053,2.6805177,3.7807617,92.0
1580,1.8440876,0.020244598,0.050411224,0.77102053,2.6805177,3.7807617,92.0
1581,1.8440876,0.020244598,0.050411224,0.7986328,2.8334472,4.010156,92.0
1582,1.10497,0.70283127,0.22408295,0.7986328,2.8334472,4.010156,92.0
1583,1.10497,0.70283127,0.22408295,0.5256958,2.885486,4.242737,92.0
1584,0.3758216,0.9328003,0.06739044,0.5256958,2.885486,4.242737,92.0
1585,0.3758216,0.9328003,0.06739044,0.13275146,2.985315,4.425403,92.0
1586,-0.044655323,0.7263069,-0.11754608,0.13275146,2.985315,4.425403,92.0
1587,-0.044655323,0.7263069,-0.11754608,-0.30267334,3.0246093,4.515674,92.0
1588,-0.3708439,0.16662979,0.011833191,-0.30267334,3.0246093,4.515674,92.0
1589,-0.3708439,0.16662979,0.011833191,-0.5256958,2.9003541,4.4742556,92.0
1590,-0.5623245,-0.49488068,0.4562416,-0.5256958,2.9003541,4.4742556,92.0
1591,-0.5623245,-0.49488068,0.4562416,-0.4630371,2.6571534,4.3022094,92.0
1592,-0.3758602,-0.86545944,0.871315,-0.4630371,2.6571534,4.3022094,92.0
1593,-0.3758602,-0.86545944,0.871315,-0.31010744,2.3895264,4.062195,92.0
1594,0.18974161,-0.7938843,0.8415451,-0.31010744,2.3895264,4.062195,92.0
1595,0.18974161,-0.7938843,0.8415451,-0.0998291,2.2111084,3.7892578,92.0
1596,0.80014515,-0.37160492,0.48407364,-0.0998291,2.2111084,3.7892578,92.0
1597,0.80014515,-0.37160492,0.48407364,0.035046387,2.0634887,3.435608,92.0
1598,1.0980873,0.17406464,0.3137703,0.035046387,2.0634887,3.435608,92.0
1599,1.0980873,0.17406464,0.3137703,-0.08283692,1.8425903,3.0331056,92.0
1600,1.0774446,0.37279892,0.38189697,-0.08283692,1.8425903,3.0331056,92.0
1601,1.0774446,0.37279892,0.38189697,-0.2984253,1.6121339,2.5456421,92.0
1602,0.9287038,-0.023132324,0.38817215,-0.2984253,1.6121339,2.5456421,92.0
1603,0.9287038,-0.023132324,0.38817215,-0.4991455,1.44115,1.9402955,92.0
1604,0.6719055,-0.6752472,0.24054337,-0.4991455,1.44115,1.9402955,92.0
1605,0.6719055,-0.6752472,0.24054337,-0.74022216,1.3115845,1.3360108,92.0
1606,0.21033955,-1.0027466,2.593994E-4,-0.74022216,1.3115845,1.3360108,92.0
