,accx,accy,accz,gyrox,gyroy,gyroz,heart rate
0,walk,walk,walk,walk,walk,walk,walk
1,-0.5776733,-56.235,42.89153,0.0,0.0,0.0,0.0
2,-0.5776733,-56.235,42.89153,0.14655761,0.038232423,-0.38551027,0.0
3,-0.36344483,-45.146774,34.247734,0.14655761,0.038232423,-0.38551027,0.0
4,-0.36344483,-45.146774,34.247734,0.40144044,0.10195313,-0.3419678,0.0
5,-0.32205468,-36.079994,27.503338,0.40144044,0.10195313,-0.3419678,0.0
6,-0.32205468,-36.079994,27.503338,0.38657227,0.026550293,-0.22727051,0.0
7,-0.4077292,-28.68217,22.112682,0.38657227,0.026550293,-0.22727051,0.0
8,-0.4077292,-28.68217,22.112682,0.4354248,-0.04248047,-0.15611573,0.0
9,-0.32387623,-22.750366,17.580757,0.4354248,-0.04248047,-0.15611573,0.0
10,-0.32387623,-22.750366,17.580757,0.28780517,-0.14974366,-0.1539917,0.0
11,-0.08071965,-18.06012,13.851788,0.28780517,-0.14974366,-0.1539917,0.0
12,-0.08071965,-18.06012,13.851788,0.14868164,-0.13275146,-0.14124756,0.0
13,0.14000192,-14.351894,10.96793,0.14868164,-0.13275146,-0.14124756,0.0
14,0.14000192,-14.351894,10.96793,-0.027612304,-0.13806152,-0.28355715,0.0
15,0.22190145,-11.434654,8.776344,-0.027612304,-0.13806152,-0.28355715,0.0
16,0.22190145,-11.434654,8.776344,-0.0361084,-0.038232423,-0.35152587,0.0
17,0.1852116,-9.124519,7.0817566,-0.0361084,-0.038232423,-0.35152587,0.0
18,0.1852116,-9.124519,7.0817566,0.0031860352,0.004248047,-0.4088745,0.0
19,0.07355991,-7.2258987,5.6855087,0.0031860352,0.004248047,-0.4088745,0.0
20,0.07355991,-7.2258987,5.6855087,-0.007434082,0.011682129,-0.36320803,0.0
21,-0.06308812,-5.68499,4.550934,-0.007434082,0.011682129,-0.36320803,0.0
22,-0.06308812,-5.68499,4.550934,0.047790527,-0.0063720704,-0.34090576,0.0
23,-0.1620794,-4.4969635,3.6798706,0.047790527,-0.0063720704,-0.34090576,0.0
24,-0.1620794,-4.4969635,3.6798706,0.09770508,-0.052038576,-0.33240968,0.0
25,-0.15025678,-3.595253,3.0011444,0.09770508,-0.052038576,-0.33240968,0.0
26,-0.15025678,-3.595253,3.0011444,0.14761963,-0.09133301,-0.3419678,0.0
27,-0.059682965,-2.8791122,2.4349365,0.14761963,-0.09133301,-0.3419678,0.0
28,-0.059682965,-2.8791122,2.4349365,0.18797608,-0.09664307,-0.36745605,0.0
29,0.07246846,-2.3016891,1.8500977,0.18797608,-0.09664307,-0.36745605,0.0
30,0.07246846,-2.3016891,1.8500977,0.10620117,-0.11682129,-0.4067505,0.0
31,0.10074818,-1.8245316,1.4055786,0.10620117,-0.11682129,-0.4067505,0.0
32,0.10074818,-1.8245316,1.4055786,0.08814698,-0.11151123,-0.41099855,0.0
33,0.12361613,-1.5723953,0.9860573,0.08814698,-0.11151123,-0.41099855,0.0
34,0.12361613,-1.5723953,0.9860573,0.07540283,-0.13699952,-0.38657227,0.0
35,0.14569464,-1.4826813,0.70653534,0.07540283,-0.13699952,-0.38657227,0.0
36,0.14569464,-1.4826813,0.70653534,0.1539917,-0.14230958,-0.34833986,0.0
37,0.20807186,-1.4484406,0.5237732,0.1539917,-0.14230958,-0.34833986,0.0
38,0.20807186,-1.4484406,0.5237732,0.25700685,-0.12956543,-0.35046387,0.0
39,0.27501464,-1.3102646,0.39074707,0.25700685,-0.12956543,-0.35046387,0.0
40,0.27501464,-1.3102646,0.39074707,0.33134767,-0.098767094,-0.39400634,0.0
41,0.3267866,-1.0166321,0.28536224,0.33134767,-0.098767094,-0.39400634,0.0
42,0.3267866,-1.0166321,0.28536224,0.36002198,-0.05628662,-0.48746338,0.0
43,0.38241318,-0.6866226,0.14471054,0.36002198,-0.05628662,-0.48746338,0.0
44,0.38241318,-0.6866226,0.14471054,0.2984253,-0.052038576,-0.541626,0.0
45,0.4664896,-0.4265442,-0.09985733,0.2984253,-0.052038576,-0.541626,0.0
46,0.4664896,-0.4265442,-0.09985733,0.19434814,-0.019116212,-0.5533081,0.0
47,0.5627059,-0.26763916,-0.43320847,0.19434814,-0.019116212,-0.5533081,0.0
48,0.5627059,-0.26763916,-0.43320847,0.10301514,-0.016992187,-0.5384399,0.0
49,0.64813834,-0.1052475,-0.7200546,0.10301514,-0.016992187,-0.5384399,0.0
50,0.64813834,-0.1052475,-0.7200546,-0.14761963,0.03079834,-0.540564,0.0
51,0.64813834,-0.1052475,-0.7200546,-0.41312256,0.12850343,-1.4592041,0.0
52,0.90333736,0.09931946,-0.650589,-0.41312256,0.12850343,-1.4592041,0.0
53,0.40180808,0.39570618,0.10066986,-0.41312256,0.12850343,-1.4592041,0.0
54,0.40180808,0.39570618,0.10066986,-0.65419924,0.3334717,-0.52888185,0.0
55,-0.2859022,0.3377838,0.79408646,-0.65419924,0.3334717,-0.52888185,0.0
56,-0.2859022,0.3377838,0.79408646,-0.4980835,0.0637207,-0.6956177,0.0
57,-0.18054062,-0.22016907,0.7492714,-0.4980835,0.0637207,-0.6956177,0.0
58,-0.18054062,-0.22016907,0.7492714,-0.087084964,0.10301514,-0.6138428,0.0
59,-0.18054062,-0.22016907,0.7492714,-0.087084964,0.10301514,-0.6138428,128.0
60,0.03280139,-0.5276947,0.15470505,-0.087084964,0.10301514,-0.6138428,128.0
61,0.03280139,-0.5276947,0.15470505,0.10195313,0.078588866,-0.50870365,128.0
62,0.08288175,-0.1132431,-0.23467255,0.10195313,0.078588866,-0.50870365,128.0
63,0.08288175,-0.1132431,-0.23467255,0.078588866,0.16673584,-0.48321533,128.0
64,-0.10937822,0.7443466,0.09083557,0.078588866,0.16673584,-0.48321533,128.0
65,-0.10937822,0.7443466,0.09083557,-0.17523193,0.11044922,-0.42692873,128.0
66,-0.4007472,1.2799759,0.84601974,-0.17523193,0.11044922,-0.42692873,128.0
67,-0.4007472,1.2799759,0.84601974,-0.38338622,0.040356446,-0.36851808,128.0
68,-0.58459926,1.0711746,1.3799744,-0.38338622,0.040356446,-0.36851808,128.0
69,-0.58459926,1.0711746,1.3799744,-0.37595215,-0.059472658,-0.26762697,128.0
70,-0.5302404,0.42803192,1.3933105,-0.37595215,-0.059472658,-0.26762697,128.0
71,-0.5302404,0.42803192,1.3933105,-0.20709229,-0.121069334,-0.16354981,128.0
72,-0.36187544,-0.0042419434,1.0854111,-0.20709229,-0.121069334,-0.16354981,128.0
73,-0.36187544,-0.0042419434,1.0854111,-0.07965088,-0.1359375,-0.07965088,128.0
74,-0.2973861,0.07952881,0.80381393,-0.07965088,-0.1359375,-0.07965088,128.0
75,-0.2973861,0.07952881,0.80381393,0.011682129,-0.1720459,0.023364259,128.0
76,-0.36436152,0.43873596,0.8158035,0.011682129,-0.1720459,0.023364259,128.0
77,-0.36436152,0.43873596,0.8158035,0.07115479,-0.06796875,0.058410645,128.0
78,-0.36436152,0.43873596,0.8158035,0.12850343,-0.052038576,0.08920898,128.0
79,-0.5787817,0.78731537,1.1815872,0.12850343,-0.052038576,0.08920898,128.0
80,-0.9191167,1.0252304,1.5591736,0.12850343,-0.052038576,0.08920898,128.0
81,-0.9191167,1.0252304,1.5591736,0.18054199,-0.04991455,0.13912354,128.0
82,-1.1911527,1.044632,1.4814224,0.18054199,-0.04991455,0.13912354,128.0
83,-1.1911527,1.044632,1.4814224,0.19753419,-0.19116211,0.16142578,128.0
84,-1.0160813,0.8069687,0.83252716,0.19753419,-0.19116211,0.16142578,128.0
85,-1.0160813,0.8069687,0.83252716,0.13912354,-0.3154175,0.16142578,128.0
86,-0.36044812,0.50727844,0.07835007,0.13912354,-0.3154175,0.16142578,128.0
87,-0.36044812,0.50727844,0.07835007,0.032922365,-0.26550293,0.087084964,128.0
88,0.24971521,0.36995697,-0.26013565,0.032922365,-0.26550293,0.087084964,128.0
89,0.24971521,0.36995697,-0.26013565,-0.08071289,-0.2442627,0.011682129,128.0
90,0.4648112,0.46479034,-0.23780823,-0.08071289,-0.2442627,0.011682129,128.0
91,0.4648112,0.46479034,-0.23780823,-0.18266602,-0.16885987,-0.06690674,128.0
92,0.3210799,0.5528488,-0.30117416,-0.18266602,-0.16885987,-0.06690674,128.0
93,0.3210799,0.5528488,-0.30117416,-0.23258057,-0.16673584,-0.14337158,128.0
94,0.029251575,0.4367752,-0.69649506,-0.23258057,-0.16673584,-0.14337158,128.0
95,0.029251575,0.4367752,-0.69649506,-0.2081543,-0.17841797,-0.21452637,128.0
96,-0.15794635,0.27931213,-1.2630424,-0.2081543,-0.17841797,-0.21452637,128.0
97,-0.15794635,0.27931213,-1.2630424,-0.22939454,-0.1901001,-0.24744873,128.0
98,-0.20155239,0.15431213,-1.5967026,-0.22939454,-0.1901001,-0.24744873,128.0
99,-0.20155239,0.15431213,-1.5967026,-0.32178956,-0.2527588,-0.31010744,128.0
100,-0.11890793,-0.03895569,-1.5299988,-0.32178956,-0.2527588,-0.31010744,128.0
101,-0.11890793,-0.03895569,-1.5299988,-0.3345337,-0.3536499,-0.30054933,128.0
102,0.090774536,-0.25858307,-1.2570648,-0.3345337,-0.3536499,-0.30054933,128.0
103,0.090774536,-0.25858307,-1.2570648,-0.26868898,-0.4609131,-0.27399904,128.0
104,0.40718997,-0.37447357,-1.1168709,-0.26868898,-0.4609131,-0.27399904,128.0
105,0.40718997,-0.37447357,-1.1168709,-0.24744873,-0.4959595,-0.28461915,128.0
106,0.7705396,-0.37338257,-1.2008591,-0.24744873,-0.4959595,-0.28461915,128.0
107,0.7705396,-0.37338257,-1.2008591,-0.22939454,-0.48533937,-0.31329346,128.0
108,0.9994029,-0.31058502,-1.2714539,-0.22939454,-0.48533937,-0.31329346,128.0
109,0.9994029,-0.31058502,-1.2714539,-0.30161133,-0.4333008,-0.36639404,128.0
110,1.0185409,-0.26419067,-1.1617317,-0.30161133,-0.4333008,-0.36639404,128.0
111,1.0185409,-0.26419067,-1.1617317,-0.362146,-0.40037844,-0.41737062,128.0
112,0.9240246,-0.37016296,-0.98213196,-0.362146,-0.40037844,-0.41737062,128.0
113,0.9240246,-0.37016296,-0.98213196,-0.38444826,-0.38444826,-0.4694092,128.0
114,0.84073335,-0.5826874,-0.8857422,-0.38444826,-0.38444826,-0.4694092,128.0
115,0.84073335,-0.5826874,-0.8857422,-0.36427003,-0.32709962,-0.5331299,128.0
116,0.74509645,-0.69368744,-0.78967285,-0.36427003,-0.32709962,-0.5331299,128.0
117,0.74509645,-0.69368744,-0.78967285,-0.33665773,-0.2538208,-0.61065674,128.0
118,0.5836626,-0.6401062,-0.63319016,-0.33665773,-0.2538208,-0.61065674,128.0
119,0.5836626,-0.6401062,-0.63319016,-0.28674316,-0.21134034,-0.67437744,128.0
120,0.4120717,-0.56168365,-0.51844406,-0.28674316,-0.21134034,-0.67437744,128.0
121,0.4120717,-0.56168365,-0.51844406,-0.20496826,-0.17416993,-0.727478,128.0
122,0.3093937,-0.5437088,-0.5927353,-0.20496826,-0.17416993,-0.727478,128.0
123,0.3093937,-0.5437088,-0.5927353,-0.087084964,-0.1529297,-0.77314454,128.0
124,0.3298025,-0.52401733,-0.878315,-0.087084964,-0.1529297,-0.77314454,128.0
125,0.3298025,-0.52401733,-0.878315,0.03079834,-0.10301514,-0.81881106,128.0
126,0.4654534,-0.5102539,-1.2783852,0.03079834,-0.10301514,-0.81881106,128.0
127,0.4654534,-0.5102539,-1.2783852,0.16779785,-0.016992187,-0.86553955,128.0
128,0.6027094,-0.5209122,-1.6538239,0.16779785,-0.016992187,-0.86553955,128.0
129,0.6027094,-0.5209122,-1.6538239,0.28674316,0.11151123,-0.90802,128.0
130,0.67779744,-0.5087204,-1.921936,0.28674316,0.11151123,-0.90802,128.0
131,0.67779744,-0.5087204,-1.921936,0.4439209,0.26762697,-0.9515625,128.0
132,0.7150407,-0.44737244,-2.150463,0.4439209,0.26762697,-0.9515625,128.0
133,0.7150407,-0.44737244,-2.150463,0.65207523,0.48321533,-1.0036011,128.0
134,0.66024065,-0.27722168,-2.3074188,0.65207523,0.48321533,-1.0036011,128.0
135,0.66024065,-0.27722168,-2.3074188,0.8326172,0.814563,-1.0970582,128.0
136,0.28966713,0.17327881,-2.1142235,0.8326172,0.814563,-1.0970582,128.0
137,0.28966713,0.17327881,-2.1142235,0.9505005,1.2595459,-1.2552979,128.0
138,-0.547197,0.92315674,-1.3954697,0.9505005,1.2595459,-1.2552979,128.0
139,-0.547197,0.92315674,-1.3954697,1.1055542,1.6121339,-1.3997315,128.0
140,-1.6873181,1.7565918,-0.29318237,1.1055542,1.6121339,-1.3997315,128.0
141,-1.6873181,1.7565918,-0.29318237,1.273352,1.910559,-1.5208008,128.0
142,-2.749708,2.5586548,0.75522614,1.273352,1.910559,-1.5208008,128.0
143,-2.749708,2.5586548,0.75522614,1.263794,2.092163,-1.6673584,128.0
144,-3.3666975,2.9720001,1.2941208,1.263794,2.092163,-1.6673584,128.0
145,-3.3666975,2.9720001,1.2941208,1.3774292,2.2450929,-1.7958618,128.0
146,-3.56234,2.8362427,1.2410698,1.3774292,2.2450929,-1.7958618,128.0
147,-3.56234,2.8362427,1.2410698,1.713025,2.5562623,-1.9541016,128.0
148,-3.9494326,2.66008,0.9313698,1.713025,2.5562623,-1.9541016,128.0
149,-3.9494326,2.66008,0.9313698,2.0942872,3.078772,-2.2482789,128.0
150,-4.994458,2.8009796,0.73775864,2.0942872,3.078772,-2.2482789,128.0
151,-4.994458,2.8009796,0.73775864,2.540332,3.4101198,-2.5137818,128.0
152,-6.309922,3.1413956,0.58932495,2.540332,3.4101198,-2.5137818,128.0
153,-6.309922,3.1413956,0.58932495,3.0692139,3.6501343,-2.7771606,128.0
154,-7.5127087,3.6232224,0.4362564,3.0692139,3.6501343,-2.7771606,128.0
155,-7.5127087,3.6232224,0.4362564,3.539685,4.073877,-3.076648,128.0
156,-8.592283,4.176239,0.27714157,3.539685,4.073877,-3.076648,128.0
157,-8.592283,4.176239,0.27714157,3.9209473,4.1014895,-3.1955934,128.0
158,-9.109875,4.637474,0.08282471,3.9209473,4.1014895,-3.1955934,128.0
159,-9.109875,4.637474,0.08282471,4.068567,3.9591796,-3.1361206,128.0
160,-8.453379,4.63554,-0.37747955,4.068567,3.9591796,-3.1361206,128.0
161,-8.453379,4.63554,-0.37747955,4.155652,3.6490724,-2.9311523,128.0
162,-6.7052937,3.9173164,-1.424263,4.155652,3.6490724,-2.9311523,128.0
163,-6.7052937,3.9173164,-1.424263,3.9485595,3.5726075,-2.7113159,128.0
164,-4.829811,3.0398865,-2.6693306,3.9485595,3.5726075,-2.7113159,128.0
165,-4.829811,3.0398865,-2.6693306,3.5057008,3.524817,-2.4553711,128.0
166,-3.691265,2.2530403,-3.3214378,3.5057008,3.524817,-2.4553711,128.0
167,-3.691265,2.2530403,-3.3214378,3.2263916,3.432422,-2.18562,128.0
168,-3.691265,2.2530403,-3.3214378,3.2263916,3.432422,-2.18562,129.0
169,-3.3304424,1.2941933,-3.1917725,3.2263916,3.432422,-2.18562,129.0
170,-3.3304424,1.2941933,-3.1917725,3.2816162,3.256128,-2.0178223,129.0
171,-3.2950172,0.45874405,-2.6935577,3.2816162,3.256128,-2.0178223,129.0
172,-3.2950172,0.45874405,-2.6935577,3.2731202,3.0267334,-2.0167603,129.0
173,-3.129116,0.26293182,-2.33844,3.2731202,3.0267334,-2.0167603,129.0
174,-3.129116,0.26293182,-2.33844,2.8759277,2.6603394,-2.1272094,129.0
175,-2.6300144,0.39695358,-2.4374275,2.8759277,2.6603394,-2.1272094,129.0
176,-2.6300144,0.39695358,-2.4374275,2.716626,2.2047365,-2.171814,129.0
177,-1.9293289,0.5026474,-2.9040565,2.716626,2.2047365,-2.171814,129.0
178,-1.9293289,0.5026474,-2.9040565,2.51803,1.8192261,-2.1813722,129.0
179,-1.279438,0.65138626,-3.4856377,2.51803,1.8192261,-2.1813722,129.0
180,-1.279438,0.65138626,-3.4856377,2.3151855,1.3668091,-2.0199463,129.0
181,-0.68390274,0.72026825,-4.005249,2.3151855,1.3668091,-2.0199463,129.0
182,-0.68390274,0.72026825,-4.005249,2.3045654,1.0216553,-1.6737305,129.0
183,-0.09708595,0.61743927,-4.1804695,2.3045654,1.0216553,-1.6737305,129.0
184,-0.09708595,0.61743927,-4.1804695,2.247217,0.85385746,-1.2627319,129.0
185,0.420866,0.2183876,-3.733879,2.247217,0.85385746,-1.2627319,129.0
186,0.420866,0.2183876,-3.733879,2.4797974,0.69136965,-0.7869507,129.0
187,0.9141712,-0.44783783,-2.8594208,2.4797974,0.69136965,-0.7869507,129.0
188,0.9141712,-0.44783783,-2.8594208,3.0203614,0.6244629,-0.3536499,129.0
189,1.3732204,-0.8538666,-2.096508,3.0203614,0.6244629,-0.3536499,129.0
190,1.3732204,-0.8538666,-2.096508,3.3113525,0.6403931,-0.098767094,129.0
191,1.6103935,-0.60557556,-1.7527924,3.3113525,0.6403931,-0.098767094,129.0
192,1.6103935,-0.60557556,-1.7527924,2.9991212,0.63826907,-0.0053100586,129.0
193,1.5886574,-0.17559814,-1.6984634,2.9991212,0.63826907,-0.0053100586,129.0
194,1.5886574,-0.17559814,-1.6984634,2.4766114,0.54906005,0.07115479,129.0
195,1.411953,-0.23693848,-1.7020073,2.4766114,0.54906005,0.07115479,129.0
196,1.411953,-0.23693848,-1.7020073,2.1187134,0.49171144,0.16885987,129.0
197,1.1063194,-0.63578033,-1.7048798,2.1187134,0.49171144,0.16885987,129.0
198,1.1063194,-0.63578033,-1.7048798,1.906311,0.3791382,0.29099122,129.0
199,0.7863369,-0.95710754,-1.7484741,1.906311,0.3791382,0.29099122,129.0
200,0.7863369,-0.95710754,-1.7484741,1.806482,0.270813,0.45772704,129.0
201,0.47633553,-1.1225357,-1.7660522,1.806482,0.270813,0.45772704,129.0
202,0.47633553,-1.1225357,-1.7660522,1.8245362,0.22514649,0.630835,129.0
203,0.0956192,-1.1023636,-1.640564,1.8245362,0.22514649,0.630835,129.0
204,0.0956192,-1.1023636,-1.640564,1.8362182,0.15505372,0.813501,129.0
205,-0.2912178,-0.8396683,-1.3560295,1.8362182,0.15505372,0.813501,129.0
206,-0.2912178,-0.8396683,-1.3560295,1.6238159,0.16036378,0.9547486,129.0
207,-0.7248802,-0.42765427,-0.9849472,1.6238159,0.16036378,0.9547486,129.0
208,-0.7248802,-0.42765427,-0.9849472,1.2032593,0.17416993,1.075818,129.0
209,-1.3400116,-0.10859299,-0.6775818,1.2032593,0.17416993,1.075818,129.0
210,-1.3400116,-0.10859299,-0.6775818,0.72641605,0.1731079,1.2043213,129.0
211,-2.162756,-0.03848648,-0.47878265,0.72641605,0.1731079,1.2043213,129.0
212,-2.162756,-0.03848648,-0.47878265,0.31223145,0.078588866,1.3307008,129.0
213,-2.8835983,-0.22460175,-0.28330612,0.31223145,0.078588866,1.3307008,129.0
214,-2.8835983,-0.22460175,-0.28330612,0.021240234,-0.16036378,1.5208008,129.0
215,-2.9707108,-0.5245781,-0.08981705,0.021240234,-0.16036378,1.5208008,129.0
216,-2.9707108,-0.5245781,-0.08981705,-0.15717773,-0.4619751,1.7480713,129.0
217,-2.372797,-0.76454926,-0.056411743,-0.15717773,-0.4619751,1.7480713,129.0
218,-2.372797,-0.76454926,-0.056411743,-0.16992188,-0.80181885,2.0082643,129.0
219,-1.52314,-0.9037323,-0.28923416,-0.16992188,-0.80181885,2.0082643,129.0
220,-1.52314,-0.9037323,-0.28923416,-0.07752686,-1.0673218,2.1962402,129.0
221,-1.1501637,-0.93372726,-0.67217255,-0.07752686,-1.0673218,2.1962402,129.0
222,-1.1501637,-0.93372726,-0.67217255,0.014868164,-1.3126465,2.265271,129.0
223,-1.2685795,-0.8736801,-1.0785599,0.014868164,-1.3126465,2.265271,129.0
224,-1.2685795,-0.8736801,-1.0785599,0.14018555,-1.7491333,2.348108,129.0
225,-0.9634476,-0.63936234,-1.4650574,0.14018555,-1.7491333,2.348108,129.0
226,-0.9634476,-0.63936234,-1.4650574,0.14974366,-1.905249,2.2833252,129.0
227,-0.37529945,-0.18218231,-1.5521736,0.14974366,-1.905249,2.2833252,129.0
228,-0.37529945,-0.18218231,-1.5521736,0.0063720704,-1.9296753,2.170752,129.0
229,0.07074356,0.20365524,-1.3111725,0.0063720704,-1.9296753,2.170752,129.0
230,0.07074356,0.20365524,-1.3111725,-0.06903076,-2.0422485,2.1049073,129.0
231,0.7879925,0.3440132,-0.853405,-0.06903076,-2.0422485,2.1049073,129.0
232,0.7879925,0.3440132,-0.853405,-0.22939454,-1.9190552,2.0326905,129.0
233,1.8496685,0.3580246,-0.2242775,-0.22939454,-1.9190552,2.0326905,129.0
234,1.8496685,0.3580246,-0.2242775,-0.53737795,-1.7544434,1.9434814,129.0
235,3.0111809,0.31846237,0.35433197,-0.53737795,-1.7544434,1.9434814,129.0
236,3.0111809,0.31846237,0.35433197,-0.8496094,-1.5515991,1.8627685,129.0
237,3.9162064,0.28847122,0.7495041,-0.8496094,-1.5515991,1.8627685,129.0
238,3.9162064,0.28847122,0.7495041,-1.1862671,-1.2882203,1.7459472,129.0
239,4.200983,0.23143768,1.0495796,-1.1862671,-1.2882203,1.7459472,129.0
240,4.200983,0.23143768,1.0495796,-1.4857544,-1.1129884,1.630188,129.0
241,3.8564396,0.06693649,1.2917404,-1.4857544,-1.1129884,1.630188,129.0
242,3.8564396,0.06693649,1.2917404,-1.6790406,-1.0620117,1.5069946,129.0
243,3.245613,-0.1215744,1.3747482,-1.6790406,-1.0620117,1.5069946,129.0
244,3.245613,-0.1215744,1.3747482,-1.7778076,-1.0545777,1.3232666,129.0
245,2.6938896,-0.20889282,1.178215,-1.7778076,-1.0545777,1.3232666,129.0
246,2.6938896,-0.20889282,1.178215,-1.7087768,-1.1278565,1.1246704,129.0
247,2.3799038,-0.20506668,0.7268753,-1.7087768,-1.1278565,1.1246704,129.0
248,2.3799038,-0.20506668,0.7268753,-1.4719483,-1.2319336,0.9345703,129.0
249,2.343876,-0.20448303,0.18224335,-1.4719483,-1.2319336,0.9345703,129.0
250,2.343876,-0.20448303,0.18224335,-1.1129884,-1.3147706,0.74447024,129.0
251,2.3999548,-0.24559402,-0.25177765,-1.1129884,-1.3147706,0.74447024,129.0
252,2.3999548,-0.24559402,-0.25177765,-0.7126099,-1.3317627,0.56817627,129.0
253,2.348174,-0.29558563,-0.4209175,-0.7126099,-1.3317627,0.56817627,129.0
254,2.348174,-0.29558563,-0.4209175,-0.30161133,-1.3338867,0.41099855,129.0
255,2.132763,-0.27629852,-0.37082672,-0.30161133,-1.3338867,0.41099855,129.0
256,2.132763,-0.27629852,-0.37082672,0.070092775,-1.2988404,0.271875,129.0
257,1.8524389,-0.1871872,-0.30056763,0.070092775,-1.2988404,0.271875,129.0
258,1.8524389,-0.1871872,-0.30056763,0.40144044,-1.177771,0.09770508,129.0
259,1.5085754,-0.031841278,-0.35969162,0.40144044,-1.177771,0.09770508,129.0
260,1.5085754,-0.031841278,-0.35969162,0.6680054,-0.94412845,-0.13912354,129.0
261,1.5085754,-0.031841278,-0.35969162,0.6680054,-0.94412845,-0.13912354,129.0
262,0.89838886,0.21347809,-0.5054283,0.6680054,-0.94412845,-0.13912354,129.0
263,0.89838886,0.21347809,-0.5054283,0.8644776,-0.6680054,-0.44816896,129.0
264,-0.028090477,0.48999405,-0.5931587,0.8644776,-0.6680054,-0.44816896,129.0
265,-0.028090477,0.48999405,-0.5931587,1.0067872,-0.36745605,-0.8442993,129.0
266,-1.1210804,0.7195587,-0.5862465,1.0067872,-0.36745605,-0.8442993,129.0
267,-1.1210804,0.7195587,-0.5862465,1.1267945,-0.029736329,-1.3222046,129.0
268,-2.1886368,0.9264984,-0.5084877,1.1267945,-0.029736329,-1.3222046,129.0
269,-2.1886368,0.9264984,-0.5084877,1.3030884,0.3069214,-1.803296,129.0
270,-3.0192938,1.2345314,-0.39214325,1.3030884,0.3069214,-1.803296,129.0
271,-3.0192938,1.2345314,-0.39214325,1.5282348,0.72323,-2.2291627,129.0
272,-3.5802307,1.6429367,-0.24034882,1.5282348,0.72323,-2.2291627,129.0
273,-3.5802307,1.6429367,-0.24034882,1.7342652,1.0641358,-2.53396,129.0
274,-3.7356453,1.7607841,-0.13859177,1.7342652,1.0641358,-2.53396,129.0
275,-3.7356453,1.7607841,-0.13859177,1.8670167,1.364685,-2.716626,129.0
276,-3.352848,1.3090668,-0.1520729,1.8670167,1.364685,-2.716626,129.0
277,-3.352848,1.3090668,-0.1520729,1.8330323,1.6981567,-2.8440673,129.0
278,-2.8486729,0.54616547,-0.16340637,1.8330323,1.6981567,-2.8440673,129.0
279,-2.8486729,0.54616547,-0.16340637,1.6450561,2.0273805,-2.9162843,129.0
280,-2.737751,-0.17169952,-0.06926346,1.6450561,2.0273805,-2.9162843,129.0
281,-2.737751,-0.17169952,-0.06926346,1.3699951,2.2684572,-2.9523926,129.0
282,-2.9861603,-0.6279106,0.04504013,1.3699951,2.2684572,-2.9523926,129.0
283,-2.9861603,-0.6279106,0.04504013,1.0959961,2.3969605,-2.9088502,129.0
284,-3.1303596,-0.8008652,0.04508972,1.0959961,2.3969605,-2.9088502,129.0
285,-3.1303596,-0.8008652,0.04508972,0.8092529,2.3831544,-2.7824707,129.0
286,-2.7476215,-0.76626587,-0.12359619,0.8092529,2.3831544,-2.7824707,129.0
287,-2.7476215,-0.76626587,-0.12359619,0.49383545,2.179248,-2.52334,129.0
288,-1.6576557,-0.6556778,-0.33281326,0.49383545,2.179248,-2.52334,129.0
289,-1.6576557,-0.6556778,-0.33281326,0.16779785,1.8224121,-2.1590698,129.0
290,-0.052345276,-0.6144943,-0.35805893,0.16779785,1.8224121,-2.1590698,129.0
291,-0.052345276,-0.6144943,-0.35805893,-0.11151123,1.5038086,-1.6854126,129.0
292,1.5628242,-0.7773895,-0.25252533,-0.11151123,1.5038086,-1.6854126,129.0
293,1.5628242,-0.7773895,-0.25252533,-0.24320069,1.2191895,-1.174585,129.0
294,2.6733303,-1.1630402,-0.23168182,-0.24320069,1.2191895,-1.174585,129.0
295,2.6733303,-1.1630402,-0.23168182,-0.20496826,1.0407715,-0.64570314,129.0
296,3.0192795,-1.6845703,-0.3697815,-0.20496826,1.0407715,-0.64570314,129.0
297,3.0192795,-1.6845703,-0.3697815,0.058410645,0.84323734,-0.16142578,129.0
298,2.7522163,-2.1364899,-0.5884781,0.058410645,0.84323734,-0.16142578,129.0
299,2.7522163,-2.1364899,-0.5884781,0.47790527,0.64782715,0.21877442,129.0
300,2.1915188,-2.285656,-0.8061714,0.47790527,0.64782715,0.21877442,129.0
301,2.1915188,-2.285656,-0.8061714,0.9589966,0.51826173,0.43011475,129.0
302,1.4891396,-2.1480331,-0.8652115,0.9589966,0.51826173,0.43011475,129.0
303,1.4891396,-2.1480331,-0.8652115,1.5197388,0.33771974,0.5214478,129.0
304,0.92647934,-1.7977715,-0.7263603,1.5197388,0.33771974,0.5214478,129.0
305,0.92647934,-1.7977715,-0.7263603,2.0369384,0.16992188,0.5363159,129.0
306,0.7064915,-1.2992172,-0.52983093,2.0369384,0.16992188,0.5363159,129.0
307,0.7064915,-1.2992172,-0.52983093,2.4086425,0.09133301,0.48321533,129.0
308,0.62641144,-1.1115036,-0.4872551,2.4086425,0.09133301,0.48321533,129.0
309,0.62641144,-1.1115036,-0.4872551,2.5307739,0.078588866,0.43011475,129.0
310,0.5396061,-0.42662048,-0.38051605,2.5307739,0.078588866,0.43011475,129.0
311,0.5396061,-0.42662048,-0.38051605,2.5668824,0.10620117,0.18160401,129.0
312,0.4311123,-0.49042892,-0.40888214,2.5668824,0.10620117,0.18160401,129.0
313,0.4311123,-0.49042892,-0.40888214,2.4649293,0.14549561,0.081774905,129.0
314,0.22783661,-0.38355637,-0.33986282,2.4649293,0.14549561,0.081774905,129.0
315,0.22783661,-0.38355637,-0.33986282,1.9339234,0.33665773,-0.21877442,129.0
316,0.14138794,-0.5723877,-0.27165794,1.9339234,0.33665773,-0.21877442,129.0
317,0.14138794,-0.5723877,-0.27165794,1.716211,0.42161867,-0.3090454,129.0
318,-0.3057747,-0.6922226,0.047309875,1.716211,0.42161867,-0.3090454,129.0
319,-0.3057747,-0.6922226,0.047309875,1.0152832,0.53100586,-0.4959595,129.0
320,-0.29287338,-0.66758347,0.11620331,1.0152832,0.53100586,-0.4959595,129.0
321,-0.29287338,-0.66758347,0.11620331,0.7720825,0.56180423,-0.5171997,129.0
322,-0.40505028,-0.44026566,0.2544365,0.7720825,0.56180423,-0.5171997,129.0
323,-0.40505028,-0.44026566,0.2544365,0.0180542,0.8028809,-0.57242435,129.0
324,-0.5282154,-0.29019928,0.24064636,0.0180542,0.8028809,-0.57242435,129.0
325,-0.5282154,-0.29019928,0.24064636,-0.23258057,0.8421753,-0.5777344,129.0
326,-2.0710945,-0.21381378,0.3727188,-0.23258057,0.8421753,-0.5777344,129.0
327,-2.0710945,-0.21381378,0.3727188,-0.8400513,0.630835,-0.5076416,129.0
328,-2.0871983,-0.12787247,0.36621857,-0.8400513,0.630835,-0.5076416,129.0
329,-2.0871983,-0.12787247,0.36621857,-0.9568726,0.4619751,-0.43967286,129.0
330,-2.1626415,-0.48432922,0.11685181,-0.9568726,0.4619751,-0.43967286,129.0
331,-2.1626415,-0.48432922,0.11685181,-0.901648,0.1539917,-0.24532472,129.0
332,-1.8083725,-0.53543854,-0.07481766,-0.901648,0.1539917,-0.24532472,129.0
333,-1.8083725,-0.53543854,-0.07481766,-0.6977417,-0.090270996,-0.11469727,129.0
334,-1.7586861,-1.1506653,-0.6858902,-0.6977417,-0.090270996,-0.11469727,129.0
335,-1.7586861,-1.1506653,-0.6858902,0.23045655,-0.65632325,0.26125488,129.0
336,-1.542984,-1.117691,-0.6994934,0.23045655,-0.65632325,0.26125488,129.0
337,-1.542984,-1.117691,-0.6994934,0.55543214,-0.90802,0.4322388,129.0
338,-1.121069,-0.93969727,-0.77692986,0.55543214,-0.90802,0.4322388,129.0
339,-1.121069,-0.93969727,-0.77692986,0.99935305,-1.2340577,0.7455322,129.0
340,-0.622942,-0.5227432,-0.9009628,0.99935305,-1.2340577,0.7455322,129.0
341,-0.622942,-0.5227432,-0.9009628,1.1544068,-1.4432739,1.0259033,129.0
342,-0.43723297,-0.23011017,-1.166851,1.1544068,-1.4432739,1.0259033,129.0
343,-0.43723297,-0.23011017,-1.166851,1.179895,-1.6439942,1.2457398,129.0
344,-0.49884605,-0.074775696,-1.3806114,1.179895,-1.6439942,1.2457398,129.0
345,-0.49884605,-0.074775696,-1.3806114,1.0046631,-1.6386842,1.3731812,129.0
346,-0.9265671,0.11332321,-1.3796349,1.0046631,-1.6386842,1.3731812,129.0
347,-0.9265671,0.11332321,-1.3796349,0.62127686,-1.7512573,1.4910644,129.0
348,-1.075531,0.07749939,-1.1212368,0.62127686,-1.7512573,1.4910644,129.0
349,-1.075531,0.07749939,-1.1212368,0.52675784,-1.7565674,1.5101807,129.0
350,-1.0274296,0.005882263,-1.028923,0.52675784,-1.7565674,1.5101807,129.0
351,-1.0274296,0.005882263,-1.028923,0.33984375,-1.7852417,1.5346069,129.0
352,-0.37979317,-0.042556763,-0.8957939,0.33984375,-1.7852417,1.5346069,129.0
353,-0.37979317,-0.042556763,-0.8957939,0.12213135,-1.6960328,1.5250489,129.0
354,0.7379379,-5.836487E-4,-0.5892296,0.12213135,-1.6960328,1.5250489,129.0
355,0.7379379,-5.836487E-4,-0.5892296,-0.15930176,-1.5154908,1.5600952,129.0
356,1.8065262,0.052513123,-0.1850071,-0.15930176,-1.5154908,1.5600952,129.0
357,1.8065262,0.052513123,-0.1850071,-0.452417,-1.2574219,1.5951416,129.0
358,2.3804016,-0.0067214966,0.15234947,-0.452417,-1.2574219,1.5951416,129.0
359,2.3804016,-0.0067214966,0.15234947,-0.71154785,-0.99085695,1.6036377,129.0
360,2.4130135,-0.027301788,0.37877655,-0.71154785,-0.99085695,1.6036377,129.0
361,2.4130135,-0.027301788,0.37877655,-0.98873293,-0.7699585,1.5855836,129.0
362,2.131998,0.08278656,0.48086548,-0.98873293,-0.7699585,1.5855836,129.0
363,2.131998,0.08278656,0.48086548,-1.2584839,-0.5957886,1.5282348,129.0
364,1.7617741,0.2624321,0.4972763,-1.2584839,-0.5957886,1.5282348,129.0
365,1.7617741,0.2624321,0.4972763,-1.4379638,-0.48215333,1.4315919,129.0
366,1.7617741,0.2624321,0.4972763,-1.4379638,-0.48215333,1.4315919,128.0
367,1.3392525,0.37503433,0.48619843,-1.4379638,-0.48215333,1.4315919,128.0
368,1.3392525,0.37503433,0.48619843,-1.4560181,-0.4248047,1.3243287,128.0
369,0.91461563,0.42051315,0.4502144,-1.4560181,-0.4248047,1.3243287,128.0
370,0.91461563,0.42051315,0.4502144,-1.3838013,-0.43011475,1.2032593,128.0
371,0.6132355,0.43322372,0.36488342,-1.3838013,-0.43011475,1.2032593,128.0
372,0.6132355,0.43322372,0.36488342,-1.2202514,-0.44710693,1.083252,128.0
373,0.47314453,0.3686142,0.23256874,-1.2202514,-0.44710693,1.083252,128.0
374,0.47314453,0.3686142,0.23256874,-0.99085695,-0.4619751,0.9611206,128.0
375,0.4476204,0.305439,0.14523506,-0.99085695,-0.4619751,0.9611206,128.0
376,0.4476204,0.305439,0.14523506,-0.75615233,-0.45347902,0.82730716,128.0
377,0.4495144,0.28016663,0.16258621,-0.75615233,-0.45347902,0.82730716,128.0
378,0.4495144,0.28016663,0.16258621,-0.55968016,-0.43754885,0.6860596,128.0
379,0.36410332,0.276783,0.26595688,-0.55968016,-0.43754885,0.6860596,128.0
380,0.36410332,0.276783,0.26595688,-0.40144044,-0.35683593,0.48533937,128.0
381,-1.6021729E-4,0.2411995,0.36091042,-0.40144044,-0.35683593,0.48533937,128.0
382,-1.6021729E-4,0.2411995,0.36091042,-0.271875,-0.25913087,0.1985962,128.0
383,-0.6050606,0.19992828,0.38410187,-0.271875,-0.25913087,0.1985962,128.0
384,-0.6050606,0.19992828,0.38410187,-0.15080567,-0.15080567,-0.15505372,128.0
385,-1.1982574,0.15968704,0.30355835,-0.15080567,-0.15080567,-0.15505372,128.0
386,-1.1982574,0.15968704,0.30355835,0.02442627,-0.012744141,-0.52888185,128.0
387,-1.7769051,0.10177612,0.19709587,0.02442627,-0.012744141,-0.52888185,128.0
388,-1.7769051,0.10177612,0.19709587,0.27612305,0.16992188,-0.9834229,128.0
389,-2.498148,0.05092621,0.15048599,0.27612305,0.16992188,-0.9834229,128.0
390,-2.498148,0.05092621,0.15048599,0.58623046,0.31966552,-1.4029175,128.0
391,-3.044674,0.010017395,0.1603775,0.58623046,0.31966552,-1.4029175,128.0
392,-3.044674,0.010017395,0.1603775,0.9568726,0.3802002,-1.7077149,128.0
393,-2.9066505,-0.057281494,0.17128372,0.9568726,0.3802002,-1.7077149,128.0
394,-2.9066505,-0.057281494,0.17128372,1.2977784,0.4980835,-1.9328613,128.0
395,-2.2351475,-0.09718323,0.22522354,1.2977784,0.4980835,-1.9328613,128.0
396,-2.2351475,-0.09718323,0.22522354,1.4942505,0.67437744,-2.085791,128.0
397,-1.5717602,-0.03559494,0.39535332,1.4942505,0.67437744,-2.085791,128.0
398,-1.5717602,-0.03559494,0.39535332,1.4220337,0.8750977,-2.1558838,128.0
399,-1.1560287,0.14631653,0.7156601,1.4220337,0.8750977,-2.1558838,128.0
400,-1.1560287,0.14631653,0.7156601,1.0492676,1.0195312,-2.1049073,128.0
401,-0.8308525,0.34077072,1.0668888,1.0492676,1.0195312,-2.1049073,128.0
402,-0.8308525,0.34077072,1.0668888,0.48109132,1.1331666,-1.9317993,128.0
403,-0.4561615,0.37295914,1.1585655,0.48109132,1.1331666,-1.9317993,128.0
404,-0.4561615,0.37295914,1.1585655,-0.12956543,1.1352905,-1.621692,128.0
405,0.1642456,0.14226532,0.8117523,-0.12956543,1.1352905,-1.621692,128.0
406,0.1642456,0.14226532,0.8117523,-0.5564942,0.99085695,-1.1968873,128.0
407,1.1041031,-0.2891159,0.21074295,-0.5564942,0.99085695,-1.1968873,128.0
408,1.1041031,-0.2891159,0.21074295,-0.75509036,0.8750977,-0.7699585,128.0
409,2.0303535,-0.7292404,-0.28038025,-0.75509036,0.8750977,-0.7699585,128.0
410,2.0303535,-0.7292404,-0.28038025,-0.7338501,0.68924564,-0.33240968,128.0
411,2.6459732,-1.0480385,-0.5518074,-0.7338501,0.68924564,-0.33240968,128.0
412,2.6459732,-1.0480385,-0.5518074,-0.46516114,0.47790527,0.043542482,128.0
413,2.9639473,-1.1523819,-0.7105484,-0.46516114,0.47790527,0.043542482,128.0
414,2.9639473,-1.1523819,-0.7105484,-0.10407715,0.33771974,0.28355715,128.0
415,3.0032501,-1.0255051,-0.7899704,-0.10407715,0.33771974,0.28355715,128.0
416,3.0032501,-1.0255051,-0.7899704,0.20284425,0.24851075,0.4163086,128.0
417,2.6866093,-0.8480072,-0.70780563,0.20284425,0.24851075,0.4163086,128.0
418,2.6866093,-0.8480072,-0.70780563,0.5214478,0.19541016,0.45772704,128.0
419,1.9965172,-0.7445526,-0.42990494,0.5214478,0.19541016,0.45772704,128.0
420,1.9965172,-0.7445526,-0.42990494,0.8241211,0.09770508,0.43117675,128.0
421,1.251131,-0.7045288,-0.18961334,0.8241211,0.09770508,0.43117675,128.0
422,1.251131,-0.7045288,-0.18961334,1.1501588,-0.046728518,0.3525879,128.0
423,0.8115368,-0.6873932,-0.21947479,1.1501588,-0.046728518,0.3525879,128.0
424,0.8115368,-0.6873932,-0.21947479,1.4846925,-0.060534667,0.18479005,128.0
425,0.5633774,-0.64068604,-0.4216118,1.4846925,-0.060534667,0.18479005,128.0
426,0.5633774,-0.64068604,-0.4216118,1.81073,-0.0361084,-0.011682129,128.0
427,0.2868843,-0.5707016,-0.5974331,1.81073,-0.0361084,-0.011682129,128.0
428,0.2868843,-0.5707016,-0.5974331,2.084729,0.052038576,-0.24744873,128.0
429,-0.08444595,-0.5342941,-0.6131649,2.084729,0.052038576,-0.24744873,128.0
430,-0.08444595,-0.5342941,-0.6131649,2.256775,0.16142578,-0.48533937,128.0
431,-0.4480381,-0.5711975,-0.45599747,2.256775,0.16142578,-0.48533937,128.0
432,-0.4480381,-0.5711975,-0.45599747,2.2981935,0.33240968,-0.72854006,128.0
433,-0.6316719,-0.6002579,-0.14038467,2.2981935,0.33240968,-0.72854006,128.0
434,-0.6316719,-0.6002579,-0.14038467,2.1505737,0.49171144,-0.9398804,128.0
435,-0.53391457,-0.5434036,0.27083397,2.1505737,0.49171144,-0.9398804,128.0
436,-0.53391457,-0.5434036,0.27083397,1.7661256,0.66588134,-1.1129884,128.0
437,-0.24739647,-0.4210739,0.6804848,1.7661256,0.66588134,-1.1129884,128.0
438,-0.24739647,-0.4210739,0.6804848,1.1990112,0.8527954,-1.2340577,128.0
439,-0.18804169,-0.2887268,0.9795437,1.1990112,0.8527954,-1.2340577,128.0
440,-0.18804169,-0.2887268,0.9795437,0.5384399,1.083252,-1.3498169,128.0
441,-0.6840763,-0.15428162,1.1027393,0.5384399,1.083252,-1.3498169,128.0
442,-0.6840763,-0.15428162,1.1027393,-0.14974366,1.2478638,-1.4602661,128.0
443,-1.4839306,0.032836914,1.0481224,-0.14974366,1.2478638,-1.4602661,128.0
444,-1.4839306,0.032836914,1.0481224,-0.77102053,1.2914063,-1.5080566,128.0
445,-2.0228996,0.1741333,0.71302223,-0.77102053,1.2914063,-1.5080566,128.0
446,-2.0228996,0.1741333,0.71302223,-1.1544068,1.1501588,-1.4220337,128.0
447,-2.259678,0.08955383,0.019392014,-1.1544068,1.1501588,-1.4220337,128.0
448,-2.259678,0.08955383,0.019392014,-1.2011353,1.0875,-1.3391968,128.0
449,-2.355606,-0.23779297,-0.7861328,-1.2011353,1.0875,-1.3391968,128.0
450,-2.355606,-0.23779297,-0.7861328,-0.8421753,0.64570314,-1.0365235,128.0
451,-2.1411018,-0.55867004,-1.182373,-0.8421753,0.64570314,-1.0365235,128.0
452,-2.1411018,-0.55867004,-1.182373,-0.33984375,0.38763428,-0.8793457,128.0
453,-1.6223164,-0.49814606,-0.88552284,-0.33984375,0.38763428,-0.8793457,128.0
454,-1.6223164,-0.49814606,-0.88552284,0.083898924,-0.047790527,-0.5511841,128.0
455,-0.8391857,-0.020904541,-0.28864288,0.083898924,-0.047790527,-0.5511841,128.0
456,-0.8391857,-0.020904541,-0.28864288,0.23258057,-0.23789063,-0.21558838,128.0
457,-0.17221451,0.6255722,0.093853,0.23258057,-0.23789063,-0.21558838,128.0
458,-0.17221451,0.6255722,0.093853,-0.040356446,-0.4439209,0.1263794,128.0
459,0.1607399,1.0106277,0.052913666,-0.040356446,-0.4439209,0.1263794,128.0
460,0.1607399,1.0106277,0.052913666,-0.541626,-0.61915284,0.4630371,128.0
461,0.32074356,0.8911896,-0.26865578,-0.541626,-0.61915284,0.4630371,128.0
462,0.32074356,0.8911896,-0.26865578,-1.0535157,-0.71154785,0.71579593,128.0
463,0.32074356,0.8911896,-0.26865578,-1.0535157,-0.71154785,0.71579593,128.0
464,0.36040497,0.5743561,-0.60216904,-1.0535157,-0.71154785,0.71579593,128.0
465,0.36040497,0.5743561,-0.60216904,-1.5208008,-0.81668705,0.90695804,128.0
466,0.31451988,0.38742828,-0.80036354,-1.5208008,-0.81668705,0.90695804,128.0
467,0.31451988,0.38742828,-0.80036354,-1.8850708,-0.9143921,1.0418335,128.0
468,0.3347206,0.35734558,-0.81674385,-1.8850708,-0.9143921,1.0418335,128.0
469,0.3347206,0.35734558,-0.81674385,-2.081543,-1.0779419,1.1554688,128.0
470,0.7366848,0.3768158,-0.68094635,-2.081543,-1.0779419,1.1554688,128.0
471,0.7366848,0.3768158,-0.68094635,-2.1250856,-1.175647,1.2510499,128.0
472,1.4666805,0.38404083,-0.4610901,-2.1250856,-1.175647,1.2510499,128.0
473,1.4666805,0.38404083,-0.4610901,-2.0369384,-1.2032593,1.3391968,128.0
474,2.0776901,0.3894348,-0.20944786,-2.0369384,-1.2032593,1.3391968,128.0
475,2.0776901,0.3894348,-0.20944786,-1.8680786,-1.2064453,1.4188477,128.0
476,2.250677,0.419899,0.014228821,-1.8680786,-1.2064453,1.4188477,128.0
477,2.250677,0.419899,0.014228821,-1.6631104,-1.1448487,1.4602661,128.0
478,1.9208908,0.4949646,0.16659546,-1.6631104,-1.1448487,1.4602661,128.0
479,1.9208908,0.4949646,0.16659546,-1.453894,-1.1374146,1.4793824,128.0
480,1.3343945,0.59576416,0.19067383,-1.453894,-1.1374146,1.4793824,128.0
481,1.3343945,0.59576416,0.19067383,-1.2744141,-1.1321045,1.4432739,128.0
482,0.7869377,0.69514465,0.10293007,-1.2744141,-1.1321045,1.4432739,128.0
483,0.7869377,0.69514465,0.10293007,-1.1119263,-1.1342286,1.359375,128.0
484,0.38731384,0.7764282,-0.016752243,-1.1119263,-1.1342286,1.359375,128.0
485,0.38731384,0.7764282,-0.016752243,-0.9717407,-1.1554688,1.2478638,128.0
486,0.12863731,0.80029297,-0.0916481,-0.9717407,-1.1554688,1.2478638,128.0
487,0.12863731,0.80029297,-0.0916481,-0.814563,-1.1650269,1.1448487,128.0
488,-0.09888458,0.7292938,-0.10480118,-0.814563,-1.1650269,1.1448487,128.0
489,-0.09888458,0.7292938,-0.10480118,-0.5777344,-1.1894531,1.0736939,128.0
490,-0.3242855,0.55562973,-0.09944153,-0.5777344,-1.1894531,1.0736939,128.0
491,-0.3242855,0.55562973,-0.09944153,-0.2262085,-1.2234375,1.0567017,128.0
492,-0.43074226,0.35214233,-0.11208534,-0.2262085,-1.2234375,1.0567017,128.0
493,-0.43074226,0.35214233,-0.11208534,0.16992188,-1.2425537,1.085376,128.0
494,-0.38772202,0.1994133,-0.11686516,0.16992188,-1.2425537,1.085376,128.0
495,-0.38772202,0.1994133,-0.11686516,0.5628662,-1.1873292,1.1374146,128.0
496,-0.5435753,0.09482193,-0.09677696,0.5628662,-1.1873292,1.1374146,128.0
497,-0.5435753,0.09482193,-0.09677696,0.9133301,-1.1013062,1.1544068,128.0
498,-1.1436749,-0.015743256,-0.11073303,0.9133301,-1.1013062,1.1544068,128.0
499,-1.1436749,-0.015743256,-0.11073303,1.2234375,-1.0290893,1.1119263,128.0
500,-1.8928566,-0.1428566,-0.2407341,1.2234375,-1.0290893,1.1119263,128.0
501,-1.8928566,-0.1428566,-0.2407341,1.454956,-0.9611206,0.98448485,128.0
502,-2.190958,-0.23044586,-0.3990326,1.454956,-0.9611206,0.98448485,128.0
503,-2.190958,-0.23044586,-0.3990326,1.535669,-0.85491943,0.76358646,128.0
504,-1.8523521,-0.25234985,-0.37810135,1.535669,-0.85491943,0.76358646,128.0
505,-1.8523521,-0.25234985,-0.37810135,1.4740723,-0.6701294,0.3993164,128.0
506,-1.3108368,-0.16355896,-0.12312317,1.4740723,-0.6701294,0.3993164,128.0
507,-1.3108368,-0.16355896,-0.12312317,1.3094605,-0.4333008,-0.009558106,128.0
508,-0.69592285,-0.009349823,0.26257324,1.3094605,-0.4333008,-0.009558106,128.0
509,-0.69592285,-0.009349823,0.26257324,1.075818,-0.19647217,-0.39294434,128.0
510,0.05814171,0.05897522,0.6367054,1.075818,-0.19647217,-0.39294434,128.0
511,0.05814171,0.05897522,0.6367054,0.8496094,0.1359375,-0.7391602,128.0
512,0.5884075,-0.02935791,0.9119644,0.8496094,0.1359375,-0.7391602,128.0
513,0.5884075,-0.02935791,0.9119644,0.6690674,0.41418457,-1.0004151,128.0
514,0.60484505,-0.19932938,0.9847107,0.6690674,0.41418457,-1.0004151,128.0
515,0.60484505,-0.19932938,0.9847107,0.5171997,0.6839356,-1.176709,128.0
516,0.09951401,-0.32741928,0.8697033,0.5171997,0.6839356,-1.176709,128.0
517,0.09951401,-0.32741928,0.8697033,0.36745605,0.9165161,-1.3222046,128.0
518,-0.6619415,-0.35640717,0.734848,0.36745605,0.9165161,-1.3222046,128.0
519,-0.6619415,-0.35640717,0.734848,0.2548828,1.0726318,-1.4071655,128.0
520,-1.2676277,-0.33225632,0.61245155,0.2548828,1.0726318,-1.4071655,128.0
521,-1.2676277,-0.33225632,0.61245155,0.18054199,1.1151123,-1.4135376,128.0
522,-1.1871853,-0.3281212,0.40014267,0.18054199,1.1151123,-1.4135376,128.0
523,-1.1871853,-0.3281212,0.40014267,0.13168946,1.0290893,-1.3009644,128.0
524,-0.14924622,-0.3857994,0.13461494,0.13168946,1.0290893,-1.3009644,128.0
525,-0.14924622,-0.3857994,0.13461494,0.11257324,0.9653687,-1.1384766,128.0
526,1.3251228,-0.4555397,-0.0105342865,0.11257324,0.9653687,-1.1384766,128.0
527,1.3251228,-0.4555397,-0.0105342865,0.058410645,0.90908206,-0.93350834,128.0
528,2.5749168,-0.44506073,-0.03776169,0.058410645,0.90908206,-0.93350834,128.0
529,2.5749168,-0.44506073,-0.03776169,-0.0998291,0.8581055,-0.7476563,128.0
530,3.257883,-0.32422638,-0.03456688,-0.0998291,0.8581055,-0.7476563,128.0
531,3.257883,-0.32422638,-0.03456688,-0.35046387,0.9133301,-0.6064087,128.0
532,3.0963593,-0.1958313,0.03563881,-0.35046387,0.9133301,-0.6064087,128.0
533,3.0963593,-0.1958313,0.03563881,-0.5979126,0.9324463,-0.5543701,128.0
534,2.2439327,-0.19377899,0.11717224,-0.5979126,0.9324463,-0.5543701,128.0
535,2.2439327,-0.19377899,0.11717224,-0.635083,0.79969484,-0.5501221,128.0
536,1.4149094,-0.38263702,-0.006164551,-0.635083,0.79969484,-0.5501221,128.0
537,1.4149094,-0.38263702,-0.006164551,-0.362146,0.6818115,-0.58304447,128.0
538,0.8719063,-0.62887573,-0.3486328,-0.362146,0.6818115,-0.58304447,128.0
539,0.8719063,-0.62887573,-0.3486328,0.09239502,0.6053467,-0.67331547,128.0
540,0.38525772,-0.762413,-0.68507195,0.09239502,0.6053467,-0.67331547,128.0
541,0.38525772,-0.762413,-0.68507195,0.6287109,0.52675784,-0.8028809,128.0
542,-0.11105728,-0.7496109,-0.7888031,0.6287109,0.52675784,-0.8028809,128.0
543,-0.11105728,-0.7496109,-0.7888031,1.171399,0.45454103,-0.9505005,128.0
544,-0.4581566,-0.65166473,-0.6660156,1.171399,0.45454103,-0.9505005,128.0
545,-0.4581566,-0.65166473,-0.6660156,1.6822265,0.39613038,-1.0917481,128.0
546,-0.55879784,-0.49733734,-0.48534012,1.6822265,0.39613038,-1.0917481,128.0
547,-0.55879784,-0.49733734,-0.48534012,2.0645509,0.41312256,-1.2138795,128.0
548,-0.5106373,-0.32939148,-0.26732445,2.0645509,0.41312256,-1.2138795,128.0
549,-0.5106373,-0.32939148,-0.26732445,2.2153566,0.48109132,-1.3073364,128.0
550,-0.3585453,-0.18611908,0.06729317,2.2153566,0.48109132,-1.3073364,128.0
551,-0.3585453,-0.18611908,0.06729317,2.069861,0.5586182,-1.3731812,128.0
552,-0.12269974,-0.06755066,0.46103668,2.069861,0.5586182,-1.3731812,128.0
553,-0.12269974,-0.06755066,0.46103668,1.5898316,0.7062378,-1.4400879,128.0
554,-0.13673401,0.089279175,0.7771301,1.5898316,0.7062378,-1.4400879,128.0
555,-0.13673401,0.089279175,0.7771301,0.79226077,0.9154541,-1.5292969,128.0
556,-0.73903847,0.29969025,0.9903698,0.79226077,0.9154541,-1.5292969,128.0
557,-0.73903847,0.29969025,0.9903698,-0.13275146,1.1013062,-1.6429322,128.0
558,-1.6553555,0.57276154,1.1757431,-0.13275146,1.1013062,-1.6429322,128.0
559,-1.6553555,0.57276154,1.1757431,-1.084314,1.2096313,-1.713025,128.0
560,-2.1920223,0.88978577,1.337677,-1.084314,1.2096313,-1.713025,128.0
561,-2.1920223,0.88978577,1.337677,-1.9392334,1.1416626,-1.6450561,128.0
562,-1.9912395,0.9353485,1.1000977,-1.9392334,1.1416626,-1.6450561,128.0
563,-1.9912395,0.9353485,1.1000977,-2.2875733,0.994043,-1.4273437,128.0
564,-1.4462013,0.49505615,0.39377594,-2.2875733,0.994043,-1.4273437,128.0
565,-1.4462013,0.49505615,0.39377594,-2.167566,0.67331547,-1.1427246,128.0
566,-0.6996231,-0.22579193,-0.33400345,-2.167566,0.67331547,-1.1427246,128.0
567,-0.6996231,-0.22579193,-0.33400345,-1.5186768,0.3079834,-0.77739257,128.0
568,-0.07564163,-0.7308655,-0.63266945,-1.5186768,0.3079834,-0.77739257,128.0
569,-0.07564163,-0.7308655,-0.63266945,-0.9281983,0.11363526,-0.5256958,128.0
570,0.0014019012,-0.72086334,-0.3994465,-0.9281983,0.11363526,-0.5256958,128.0
571,0.0014019012,-0.72086334,-0.3994465,-0.34090576,-0.41949463,-0.20178223,128.0
572,0.06131363,-0.16413116,-0.15806961,-0.34090576,-0.41949463,-0.20178223,128.0
573,0.06131363,-0.16413116,-0.15806961,-0.22833252,-0.6425171,-0.007434082,128.0
574,-0.09857941,0.5669861,-0.28435516,-0.22833252,-0.6425171,-0.007434082,128.0
575,-0.09857941,0.5669861,-0.28435516,-0.39613038,-0.93350834,0.14230958,128.0
576,-0.09857941,0.5669861,-0.28435516,-0.39613038,-0.93350834,0.14230958,128.0
577,-0.6341133,0.99518585,-0.6810856,-0.39613038,-0.93350834,0.14230958,128.0
578,-0.6341133,0.99518585,-0.6810856,-0.6605713,-1.2181275,0.2548828,128.0
579,-1.1252117,1.0995941,-1.0517292,-0.6605713,-1.2181275,0.2548828,128.0
580,-1.1252117,1.0995941,-1.0517292,-0.99510497,-1.4560181,0.33240968,128.0
581,-1.250534,1.0306396,-1.1708374,-0.99510497,-1.4560181,0.33240968,128.0
582,-1.250534,1.0306396,-1.1708374,-1.2563599,-1.6822265,0.41843262,128.0
583,-0.8887081,0.8756218,-1.0528069,-1.2563599,-1.6822265,0.41843262,128.0
584,-0.8887081,0.8756218,-1.0528069,-1.3625611,-1.8404664,0.55968016,128.0
585,-0.16912079,0.7189293,-0.79361343,-1.3625611,-1.8404664,0.55968016,128.0
586,-0.16912079,0.7189293,-0.79361343,-1.3678712,-1.903125,0.72216797,128.0
587,0.6286812,0.58545685,-0.48080063,-1.3678712,-1.903125,0.72216797,128.0
588,0.6286812,0.58545685,-0.48080063,-1.3264526,-1.8277222,0.9154541,128.0
589,1.2168255,0.43484497,-0.16045761,-1.3264526,-1.8277222,0.9154541,128.0
590,1.2168255,0.43484497,-0.16045761,-1.2308716,-1.7756836,1.1310425,128.0
591,1.521532,0.31588364,0.11669159,-1.2308716,-1.7756836,1.1310425,128.0
592,1.521532,0.31588364,0.11669159,-1.1076783,-1.7077149,1.3232666,128.0
593,1.6253319,0.3386078,0.25133514,-1.1076783,-1.7077149,1.3232666,128.0
594,1.6253319,0.3386078,0.25133514,-1.0131592,-1.5962037,1.4761963,128.0
595,1.470396,0.4836197,0.22234344,-1.0131592,-1.5962037,1.4761963,128.0
596,1.470396,0.4836197,0.22234344,-0.98448485,-1.4984986,1.5547851,128.0
597,1.0355453,0.6510925,0.11992836,-0.98448485,-1.4984986,1.5547851,128.0
598,1.0355453,0.6510925,0.11992836,-1.0142212,-1.4369019,1.5770874,128.0
599,0.46515465,0.7689705,0.039180756,-1.0142212,-1.4369019,1.5770874,128.0
600,0.46515465,0.7689705,0.039180756,-1.0747559,-1.4114136,1.5494751,128.0
601,-0.12841415,0.8050308,0.06380463,-1.0747559,-1.4114136,1.5494751,128.0
602,-0.12841415,0.8050308,0.06380463,-1.0535157,-1.4379638,1.5261109,128.0
603,-0.7399025,0.6587715,0.15479088,-1.0535157,-1.4379638,1.5261109,128.0
604,-0.7399025,0.6587715,0.15479088,-0.78376466,-1.5462891,1.5537232,128.0
605,-1.2629662,0.37345123,0.21134567,-0.78376466,-1.5462891,1.5537232,128.0
606,-1.2629662,0.37345123,0.21134567,-0.2899292,-1.7034668,1.6471802,128.0
607,-1.4600677,0.083747864,0.13472557,-0.2899292,-1.7034668,1.6471802,128.0
608,-1.4600677,0.083747864,0.13472557,0.3355957,-1.8733886,1.7979859,128.0
609,-1.1460819,-0.13901901,-0.10885811,0.3355957,-1.8733886,1.7979859,128.0
610,-1.1460819,-0.13901901,-0.10885811,0.9866089,-1.9944581,1.9657837,128.0
611,-0.46344757,-0.19342804,-0.35121155,0.9866089,-1.9944581,1.9657837,128.0
612,-0.46344757,-0.19342804,-0.35121155,1.4846925,-1.9169312,2.0560548,128.0
613,-0.02013588,-0.1043396,-0.36955643,1.4846925,-1.9169312,2.0560548,128.0
614,-0.02013588,-0.1043396,-0.36955643,1.7820557,-1.7926759,2.0656128,128.0
615,-0.14005852,0.01681137,-0.19916153,1.7820557,-1.7926759,2.0656128,128.0
616,-0.14005852,0.01681137,-0.19916153,1.8553345,-1.6004517,1.9689697,128.0
617,-0.61587906,0.10774994,-0.024930954,1.8553345,-1.6004517,1.9689697,128.0
618,-0.61587906,0.10774994,-0.024930954,1.7013428,-1.3859253,1.7278931,128.0
619,-1.0077057,0.1298294,0.004676819,1.7013428,-1.3859253,1.7278931,128.0
620,-1.0077057,0.1298294,0.004676819,1.4390259,-1.1522827,1.3891114,128.0
621,-1.0347042,0.061286926,-0.112981796,1.4390259,-1.1522827,1.3891114,128.0
622,-1.0347042,0.061286926,-0.112981796,1.173523,-0.8623535,0.9483765,128.0
623,-0.66832733,-0.103279114,-0.24684143,1.173523,-0.8623535,0.9483765,128.0
624,-0.66832733,-0.103279114,-0.24684143,0.9674927,-0.53737795,0.43754885,128.0
625,-0.12131882,-0.2708664,-0.2605343,0.9674927,-0.53737795,0.43754885,128.0
626,-0.12131882,-0.2708664,-0.2605343,0.7858887,-0.093457036,-0.1359375,128.0
627,0.2514305,-0.32715607,-0.12628555,0.7858887,-0.093457036,-0.1359375,128.0
628,0.2514305,-0.32715607,-0.12628555,0.6180908,0.38975832,-0.7391602,128.0
629,0.62532616,-0.24221802,0.10957909,0.6180908,0.38975832,-0.7391602,128.0
630,0.62532616,-0.24221802,0.10957909,0.46728516,0.93350834,-1.2584839,128.0
631,1.3531666,-0.07234955,0.5073776,0.46728516,0.93350834,-1.2584839,128.0
632,1.3531666,-0.07234955,0.5073776,0.31010744,1.5218629,-1.6514282,128.0
633,2.1237068,0.12289429,1.1853218,0.31010744,1.5218629,-1.6514282,128.0
634,2.1237068,0.12289429,1.1853218,0.04141846,2.0539308,-1.8680786,128.0
635,2.3206692,0.3560028,2.145218,0.04141846,2.0539308,-1.8680786,128.0
636,2.3206692,0.3560028,2.145218,-0.48427734,2.4819214,-1.9498535,128.0
637,1.7980766,0.7134781,3.2090702,-0.48427734,2.4819214,-1.9498535,128.0
638,1.7980766,0.7134781,3.2090702,-1.3944215,2.7835329,-1.9817139,128.0
639,0.9958229,1.1162262,3.868866,-1.3944215,2.7835329,-1.9817139,128.0
640,0.9958229,1.1162262,3.868866,-2.2928834,2.8100832,-1.8755127,128.0
641,0.3781643,1.2078857,3.1684952,-2.2928834,2.8100832,-1.8755127,128.0
642,0.3781643,1.2078857,3.1684952,-2.7261841,2.5849366,-1.5420411,128.0
643,0.08141327,0.81066895,0.8838196,-2.7261841,2.5849366,-1.5420411,128.0
644,0.08141327,0.81066895,0.8838196,-2.7760987,2.2546508,-1.0736939,128.0
645,0.11919594,0.026428223,-1.7182007,-2.7760987,2.2546508,-1.0736939,128.0
646,0.11919594,0.026428223,-1.7182007,-2.167566,1.721521,-0.6966797,128.0
647,0.42998886,-1.0183601,-3.2031364,-2.167566,1.721521,-0.6966797,128.0
648,0.42998886,-1.0183601,-3.2031364,-0.97280276,1.2414917,-0.63614506,128.0
649,0.5551243,-1.8857574,-3.1207733,-0.97280276,1.2414917,-0.63614506,128.0
650,0.5551243,-1.8857574,-3.1207733,0.20496826,0.9154541,-0.5703003,128.0
651,0.31713486,-2.0411758,-1.9519653,0.20496826,0.9154541,-0.5703003,128.0
652,0.31713486,-2.0411758,-1.9519653,1.0768799,0.60959476,-0.50445557,128.0
653,-0.015493393,-1.4918404,-0.5379257,1.0768799,0.60959476,-0.50445557,128.0
654,-0.015493393,-1.4918404,-0.5379257,1.5717773,0.42799073,-0.50445557,128.0
655,-0.3200245,-0.6273804,0.5430107,1.5717773,0.42799073,-0.50445557,128.0
656,-0.3200245,-0.6273804,0.5430107,1.7799317,0.2548828,-0.54693604,128.0
657,-0.5764179,0.20624924,1.3755836,1.7799317,0.2548828,-0.54693604,128.0
658,-0.5764179,0.20624924,1.3755836,1.7746216,0.18266602,-0.6881836,128.0
659,-0.7845955,0.7907944,2.1388702,1.7746216,0.18266602,-0.6881836,128.0
660,-0.7845955,0.7907944,2.1388702,1.5685914,0.13062744,-0.9802368,128.0
661,-0.7440834,0.9569168,2.4399529,1.5685914,0.13062744,-0.9802368,128.0
662,-0.7440834,0.9569168,2.4399529,1.2956543,0.22089843,-1.2871583,128.0
663,-0.36678886,0.5992508,2.0104828,1.2956543,0.22089843,-1.2871583,128.0
664,-0.36678886,0.5992508,2.0104828,1.0864381,0.36108398,-1.6100098,128.0
665,0.08687973,-0.09538269,1.2756844,1.0864381,0.36108398,-1.6100098,128.0
666,0.08687973,-0.09538269,1.2756844,0.9515625,0.45772704,-1.9201173,128.0
667,0.39793396,-0.6094856,0.77628326,0.9515625,0.45772704,-1.9201173,128.0
668,0.39793396,-0.6094856,0.77628326,0.8931519,0.51932377,-2.16969,128.0
669,0.48615646,-0.61711884,0.536396,0.8931519,0.51932377,-2.16969,128.0
670,0.48615646,-0.61711884,0.536396,0.7455322,0.54375,-2.3417358,128.0
671,0.20551491,-0.28507996,0.19029999,0.7455322,0.54375,-2.3417358,128.0
672,0.20551491,-0.28507996,0.19029999,0.7455322,0.54375,-2.3417358,128.0
673,0.20551491,-0.28507996,0.19029999,0.4991455,0.5033936,-2.5020998,128.0
674,-0.57510185,0.13687897,-0.40696335,0.4991455,0.5033936,-2.5020998,128.0
675,-0.57510185,0.13687897,-0.40696335,0.17735596,0.38444826,-2.5966187,128.0
676,-1.5664539,0.6298752,-1.016365,0.17735596,0.38444826,-2.5966187,128.0
677,-1.5664539,0.6298752,-1.016365,-0.13275146,0.078588866,-2.535022,128.0
678,-2.2473412,1.2094803,-1.4525108,-0.13275146,0.078588866,-2.535022,128.0
679,-2.2473412,1.2094803,-1.4525108,-0.4598511,-0.14761963,-2.348108,128.0
680,-2.5634136,1.8807449,-1.741539,-0.4598511,-0.14761963,-2.348108,128.0
681,-2.5634136,1.8807449,-1.741539,-0.8602295,-0.41418457,-2.0241945,128.0
682,-2.5746803,2.5286446,-1.9608345,-0.8602295,-0.41418457,-2.0241945,128.0
683,-2.5746803,2.5286446,-1.9608345,-1.356189,-0.631897,-1.4592041,128.0
684,-2.4031658,2.8065567,-1.8212929,-1.356189,-0.631897,-1.4592041,128.0
685,-2.4031658,2.8065567,-1.8212929,-2.0507448,-0.7338501,-0.8336792,128.0
686,-2.2372913,2.197979,-1.1955223,-2.0507448,-0.7338501,-0.8336792,128.0
687,-2.2372913,2.197979,-1.1955223,-2.5445802,-1.0131592,-0.12000733,128.0
688,-1.7508678,0.7319412,-0.66067886,-2.5445802,-1.0131592,-0.12000733,128.0
689,-1.7508678,0.7319412,-0.66067886,-2.6645875,-1.1395386,0.51932377,128.0
690,-0.88233376,-0.63301086,-0.4058609,-2.6645875,-1.1395386,0.51932377,128.0
691,-0.88233376,-0.63301086,-0.4058609,-2.538208,-1.2446778,1.0333375,128.0
692,0.0395813,-1.022316,-0.18568802,-2.538208,-1.2446778,1.0333375,128.0
693,0.0395813,-1.022316,-0.18568802,-2.3204956,-1.3041505,1.4029175,128.0
694,0.6948738,-0.43177032,0.09062195,-2.3204956,-1.3041505,1.4029175,128.0
695,0.6948738,-0.43177032,0.09062195,-2.2100465,-1.3901733,1.6843506,128.0
696,0.9827919,0.53800964,0.25242996,-2.2100465,-1.3901733,1.6843506,128.0
697,0.9827919,0.53800964,0.25242996,-2.247217,-1.3901733,1.8298463,128.0
698,0.9864769,1.2058334,0.24746323,-2.247217,-1.3901733,1.8298463,128.0
699,0.9864769,1.2058334,0.24746323,-2.3332398,-1.3753052,1.8776368,128.0
700,1.0104942,1.3572426,0.29045105,-2.3332398,-1.3753052,1.8776368,128.0
701,1.0104942,1.3572426,0.29045105,-2.4957275,-1.3848633,1.8670167,128.0
702,1.3497295,1.1551666,0.45472336,-2.4957275,-1.3848633,1.8670167,128.0
703,1.3497295,1.1551666,0.45472336,-2.6603394,-1.3530029,1.8521484,128.0
704,1.772728,0.8013153,0.6697731,-2.6603394,-1.3530029,1.8521484,128.0
705,1.772728,0.8013153,0.6697731,-2.717688,-1.3083985,1.814978,128.0
706,1.8489323,0.529747,0.8446064,-2.717688,-1.3083985,1.814978,128.0
707,1.8489323,0.529747,0.8446064,-2.6709595,-1.2892822,1.7682495,128.0
708,1.4264469,0.45729446,0.97620773,-2.6709595,-1.2892822,1.7682495,128.0
709,1.4264469,0.45729446,0.97620773,-2.5679443,-1.3349488,1.6822265,128.0
710,0.72467804,0.59365845,1.0676727,-2.5679443,-1.3349488,1.6822265,128.0
711,0.72467804,0.59365845,1.0676727,-2.4320068,-1.4082276,1.5569092,128.0
712,0.03728676,0.8061409,1.088234,-2.4320068,-1.4082276,1.5569092,128.0
713,0.03728676,0.8061409,1.088234,-2.1888063,-1.537793,1.453894,128.0
714,-0.39845467,0.8915787,0.9623337,-2.1888063,-1.537793,1.453894,128.0
715,-0.39845467,0.8915787,0.9623337,-1.7682495,-1.6854126,1.4092896,128.0
716,-0.48666,0.763237,0.6535454,-1.7682495,-1.6854126,1.4092896,128.0
717,-0.48666,0.763237,0.6535454,-1.1639649,-1.807544,1.4347779,128.0
718,-0.27991486,0.51758575,0.28227234,-1.1639649,-1.807544,1.4347779,128.0
719,-0.27991486,0.51758575,0.28227234,-0.3982544,-1.8808228,1.5962037,128.0
720,0.1322937,0.274971,0.009593964,-0.3982544,-1.8808228,1.5962037,128.0
721,0.1322937,0.274971,0.009593964,0.4056885,-1.8659546,1.8563966,128.0
722,0.58982086,0.15546417,-0.03173065,0.4056885,-1.8659546,1.8563966,128.0
723,0.58982086,0.15546417,-0.03173065,1.0598878,-1.7363892,2.1442018,128.0
724,0.82162476,0.15674591,0.07488251,1.0598878,-1.7363892,2.1442018,128.0
725,0.82162476,0.15674591,0.07488251,1.5080566,-1.5271729,2.3916504,128.0
726,0.69760895,0.21650696,0.19778442,1.5080566,-1.5271729,2.3916504,128.0
727,0.69760895,0.21650696,0.19778442,1.724707,-1.1682129,2.5127199,128.0
728,0.33182907,0.3357544,0.29984283,1.724707,-1.1682129,2.5127199,128.0
729,0.33182907,0.3357544,0.29984283,1.6726685,-0.8708496,2.5870607,128.0
730,0.005455017,0.41753006,0.4223442,1.6726685,-0.8708496,2.5870607,128.0
731,0.005455017,0.41753006,0.4223442,1.4220337,-0.52250975,2.5583863,128.0
732,-0.15878296,0.4166565,0.61136246,1.4220337,-0.52250975,2.5583863,128.0
733,-0.15878296,0.4166565,0.61136246,1.0195312,-0.21346436,2.4075806,128.0
734,-0.009288788,0.38830566,0.97247696,1.0195312,-0.21346436,2.4075806,128.0
735,-0.009288788,0.38830566,0.97247696,0.40144044,-0.028674318,2.2748291,128.0
736,0.66173553,0.20683289,1.4759674,0.40144044,-0.028674318,2.2748291,128.0
737,0.66173553,0.20683289,1.4759674,-0.22833252,0.15823975,2.0741088,128.0
738,1.4720764,-0.120204926,1.9433708,-0.22833252,0.15823975,2.0741088,128.0
739,1.4720764,-0.120204926,1.9433708,-0.8793457,0.3791382,1.7416992,128.0
740,2.0841923,-0.39785004,2.2586021,-0.8793457,0.3791382,1.7416992,128.0
741,2.0841923,-0.39785004,2.2586021,-1.5059327,0.5384399,1.3859253,128.0
742,2.707758,-0.6059761,2.431858,-1.5059327,0.5384399,1.3859253,128.0
743,2.707758,-0.6059761,2.431858,-2.0305665,0.69986576,1.0142212,128.0
744,3.4644966,-0.7188492,2.7246246,-2.0305665,0.69986576,1.0142212,128.0
745,3.4644966,-0.7188492,2.7246246,-2.4075806,0.90058595,0.6616333,128.0
746,4.0136013,-0.73384094,3.1690674,-2.4075806,0.90058595,0.6616333,128.0
747,4.0136013,-0.73384094,3.1690674,-2.6348512,1.1395386,0.3154175,128.0
748,4.059452,-0.7981949,3.487133,-2.6348512,1.1395386,0.3154175,128.0
749,4.059452,-0.7981949,3.487133,-2.5552003,1.2839721,-0.029736329,128.0
750,3.7009678,-0.90133667,3.530796,-2.5552003,1.2839721,-0.029736329,128.0
751,3.7009678,-0.90133667,3.530796,-2.3353639,1.4167236,-0.2527588,128.0
752,3.1406698,-1.0299683,3.2265282,-2.3353639,1.4167236,-0.2527588,128.0
753,3.1406698,-1.0299683,3.2265282,-1.8532104,1.4517701,-0.48109132,128.0
754,2.5343256,-1.1915283,2.439537,-1.8532104,1.4517701,-0.48109132,128.0
755,2.5343256,-1.1915283,2.439537,-1.0174073,1.359375,-0.6573853,128.0
756,1.9808302,-1.104393,1.2536926,-1.0174073,1.359375,-0.6573853,128.0
757,1.9808302,-1.104393,1.2536926,-0.21558838,1.3179566,-0.81881106,128.0
758,1.3925867,-0.6954155,0.3653679,-0.21558838,1.3179566,-0.81881106,128.0
759,1.3925867,-0.6954155,0.3653679,0.29948732,1.2712281,-1.0131592,128.0
760,0.6511307,-0.12080765,0.26623154,0.29948732,1.2712281,-1.0131592,128.0
761,0.6511307,-0.12080765,0.26623154,0.64782715,1.084314,-1.270166,128.0
762,-0.060967445,0.44750595,0.3292961,0.64782715,1.084314,-1.270166,128.0
763,-0.060967445,0.44750595,0.3292961,1.0290893,0.901648,-1.5016845,128.0
764,-0.59182835,0.9186859,-0.14913559,1.0290893,0.901648,-1.5016845,128.0
765,-0.59182835,0.9186859,-0.14913559,1.4793824,0.75296634,-1.7470093,128.0
766,-1.0408211,1.3794785,-1.0670509,1.4793824,0.75296634,-1.7470093,128.0
767,-1.0408211,1.3794785,-1.0670509,1.9041871,0.6701294,-1.987024,128.0
768,-1.5519924,1.9450836,-1.7871742,1.9041871,0.6701294,-1.987024,128.0
769,-1.5519924,1.9450836,-1.7871742,2.1463258,0.6446411,-2.1728761,128.0
770,-2.0575123,2.4395638,-1.7832298,2.1463258,0.6446411,-2.1728761,128.0
771,-2.0575123,2.4395638,-1.7832298,2.1548219,0.6085327,-2.2790773,128.0
772,-2.2919207,2.6003227,-1.0706024,2.1548219,0.6085327,-2.2790773,128.0
773,-2.2919207,2.6003227,-1.0706024,1.9158691,0.6074707,-2.3024414,128.0
774,-2.2439852,2.320984,-0.10025406,1.9158691,0.6074707,-2.3024414,128.0
775,-2.2439852,2.320984,-0.10025406,1.5537232,0.6552612,-2.257837,128.0
776,-2.1408672,1.6727791,0.6628151,1.5537232,0.6552612,-2.257837,128.0
777,-2.1408672,1.6727791,0.6628151,1.2138795,0.7625244,-2.2312868,128.0
778,-2.224352,1.0581551,0.9541054,1.2138795,0.7625244,-2.2312868,128.0
779,-2.224352,1.0581551,0.9541054,0.9122681,0.84748536,-2.2089844,128.0
780,-2.5786629,0.7368088,0.74425507,0.9122681,0.84748536,-2.2089844,128.0
781,-2.5786629,0.7368088,0.74425507,0.7126099,0.8931519,-2.1888063,128.0
782,-3.1446934,0.58047485,0.066581726,0.7126099,0.8931519,-2.1888063,128.0
783,-3.1446934,0.58047485,0.066581726,0.7763306,0.87403566,-2.1484497,128.0
784,-3.9249706,0.3982544,-0.9511795,0.7763306,0.87403566,-2.1484497,128.0
785,-3.9249706,0.3982544,-0.9511795,1.0790039,0.77102053,-2.0645509,128.0
786,-3.9249706,0.3982544,-0.9511795,1.0790039,0.77102053,-2.0645509,128.0
787,-4.571043,0.16407776,-1.7393265,1.0790039,0.77102053,-2.0645509,128.0
788,-4.571043,0.16407776,-1.7393265,1.5208008,0.4088745,-1.8319702,128.0
789,-4.123228,0.029930115,-1.7808266,1.5208008,0.4088745,-1.8319702,128.0
790,-4.123228,0.029930115,-1.7808266,1.9137452,0.070092775,-1.4273437,128.0
791,-2.6151848,0.052303314,-1.4220352,1.9137452,0.070092775,-1.4273437,128.0
792,-2.6151848,0.052303314,-1.4220352,2.1399536,0.03186035,-0.99298096,128.0
793,-1.6050377,0.26903915,-0.97001266,2.1399536,0.03186035,-0.99298096,128.0
794,-1.6050377,0.26903915,-0.97001266,1.9785279,0.038232423,-0.5872925,128.0
795,-1.13768,0.66233826,-0.25519562,1.9785279,0.038232423,-0.5872925,128.0
796,-1.13768,0.66233826,-0.25519562,1.3901733,-0.29311523,-0.2527588,128.0
797,-0.20307541,1.0283203,0.21479034,1.3901733,-0.29311523,-0.2527588,128.0
798,-0.20307541,1.0283203,0.21479034,0.5671143,-0.12213135,-0.029736329,128.0
799,0.47761536,1.1147957,0.0026779175,0.5671143,-0.12213135,-0.029736329,128.0
800,0.47761536,1.1147957,0.0026779175,-0.19222413,-0.1444336,0.18691407,128.0
801,0.43613434,0.9064865,-0.67040634,-0.19222413,-0.1444336,0.18691407,128.0
802,0.43613434,0.9064865,-0.67040634,-0.87615967,-0.24744873,0.37595215,128.0
803,0.27191925,0.5369301,-1.3115196,-0.87615967,-0.24744873,0.37595215,128.0
804,0.27191925,0.5369301,-1.3115196,-1.4315919,-0.34090576,0.5692383,128.0
805,0.22002602,0.07173157,-1.6222115,-1.4315919,-0.34090576,0.5692383,128.0
806,0.22002602,0.07173157,-1.6222115,-1.7767457,-0.4609131,0.7540283,128.0
807,0.11250687,-0.296463,-1.702858,-1.7767457,-0.4609131,0.7540283,128.0
808,0.11250687,-0.296463,-1.702858,-2.0316284,-0.56605226,0.903772,128.0
809,0.03707695,-0.22286224,-1.3804741,-2.0316284,-0.56605226,0.903772,128.0
810,0.03707695,-0.22286224,-1.3804741,-2.1526978,-0.61278075,0.97280276,128.0
811,-0.3752079,-0.25564575,-1.5559158,-2.1526978,-0.61278075,0.97280276,128.0
812,-0.3752079,-0.25564575,-1.5559158,-2.5116577,-0.7412842,1.1873292,128.0
813,-0.28678703,-0.023532867,-1.0416222,-2.5116577,-0.7412842,1.1873292,128.0
814,-0.28678703,-0.023532867,-1.0416222,-2.6380372,-0.7720825,1.270166,128.0
815,0.2758808,-0.10228729,-0.6713333,-2.6380372,-0.7720825,1.270166,128.0
816,0.2758808,-0.10228729,-0.6713333,-3.0065553,-0.76464844,1.544165,128.0
817,0.7615509,-0.07109833,-0.062286377,-3.0065553,-0.76464844,1.544165,128.0
818,0.7615509,-0.07109833,-0.062286377,-3.0968263,-0.6605713,1.6089478,128.0
819,2.0701904,-0.716568,0.61166,-3.0968263,-0.6605713,1.6089478,128.0
820,2.0701904,-0.716568,0.61166,-3.1116943,-0.6287109,1.9679078,128.0
821,2.2917728,-0.6839714,1.0242767,-3.1116943,-0.6287109,1.9679078,128.0
822,2.2917728,-0.6839714,1.0242767,-3.0416017,-0.5894165,2.0826051,128.0
823,2.8181343,-0.91867447,1.2189941,-3.0416017,-0.5894165,2.0826051,128.0
824,2.8181343,-0.91867447,1.2189941,-2.70813,-0.47471926,2.3948364,128.0
825,2.677225,-0.7136879,1.2996826,-2.70813,-0.47471926,2.3948364,128.0
826,2.677225,-0.7136879,1.2996826,-2.5775025,-0.44179687,2.4681153,128.0
827,2.2113972,-0.63012695,1.05896,-2.5775025,-0.44179687,2.4681153,128.0
828,2.2113972,-0.63012695,1.05896,-2.151636,-0.36320803,2.6104248,128.0
829,1.9851093,-0.54857254,1.0959244,-2.151636,-0.36320803,2.6104248,128.0
830,1.9851093,-0.54857254,1.0959244,-1.993396,-0.35152587,2.6465333,128.0
831,1.4551659,-0.71217346,1.1514206,-1.993396,-0.35152587,2.6465333,128.0
832,1.4551659,-0.71217346,1.1514206,-1.448584,-0.3462158,2.7474244,128.0
833,1.4616547,-0.71678543,1.1457443,-1.448584,-0.3462158,2.7474244,128.0
834,1.4616547,-0.71678543,1.1457443,-1.2499878,-0.33878174,2.7686646,128.0
835,1.2982903,-0.85328674,1.0520554,-1.2499878,-0.33878174,2.7686646,128.0
836,1.2982903,-0.85328674,1.0520554,-0.6818115,-0.26019287,2.8568115,128.0
837,1.3919773,-0.81781006,0.94934845,-0.6818115,-0.26019287,2.8568115,128.0
838,1.3919773,-0.81781006,0.94934845,-0.5278198,-0.2177124,2.88761,128.0
839,1.3742752,-0.84726715,1.0326118,-0.5278198,-0.2177124,2.88761,128.0
840,1.3742752,-0.84726715,1.0326118,-0.32603762,-0.121069334,2.9088502,128.0
841,1.2566833,-0.9195976,1.3492813,-0.32603762,-0.121069334,2.9088502,128.0
842,1.2566833,-0.9195976,1.3492813,-0.27612305,0.019116212,2.8493774,128.0
843,0.8716545,-1.1353378,1.7987862,-0.27612305,0.019116212,2.8493774,128.0
844,0.8716545,-1.1353378,1.7987862,-0.39400634,0.15080567,2.6656494,128.0
845,0.4873867,-1.8747749,2.0356483,-0.39400634,0.15080567,2.6656494,128.0
846,0.4873867,-1.8747749,2.0356483,-0.5299439,0.14549561,2.352356,128.0
847,0.8056078,-3.9191818,1.7829971,-0.5299439,0.14549561,2.352356,128.0
848,0.8056078,-3.9191818,1.7829971,-0.5161377,0.35895997,1.6057618,128.0
849,1.0457678,-3.9778023,1.5005188,-0.5161377,0.35895997,1.6057618,128.0
850,1.0457678,-3.9778023,1.5005188,-0.48640138,0.49383545,1.2499878,128.0
851,1.2499313,-4.020218,1.6067772,-0.48640138,0.49383545,1.2499878,128.0
852,1.2499313,-4.020218,1.6067772,-0.49489745,0.7051758,0.47471926,128.0
853,1.2499313,-4.020218,1.6067772,-0.43967286,0.8517334,-0.23682861,128.0
854,1.011322,-2.8031006,2.372017,-0.43967286,0.8517334,-0.23682861,128.0
855,0.4077263,-0.8355942,3.4862595,-0.43967286,0.8517334,-0.23682861,128.0
856,0.4077263,-0.8355942,3.4862595,-0.16142578,0.96218264,-1.2552979,128.0
857,0.016622543,-0.34178162,2.9584541,-0.16142578,0.96218264,-1.2552979,128.0
858,0.016622543,-0.34178162,2.9584541,0.007434082,1.0142212,-1.5515991,128.0
859,-0.38747025,-0.036899567,1.914959,0.007434082,1.0142212,-1.5515991,128.0
860,-0.38747025,-0.036899567,1.914959,0.3695801,1.1034302,-2.0464966,128.0
861,-0.8991976,0.15053558,0.6174278,0.3695801,1.1034302,-2.0464966,128.0
862,-0.8991976,0.15053558,0.6174278,0.64782715,1.174585,-2.439441,128.0
863,-1.3752298,0.5506897,-0.20936584,0.64782715,1.174585,-2.439441,128.0
864,-1.3752298,0.5506897,-0.20936584,0.88996583,1.1820191,-2.5095336,128.0
865,-1.5499401,1.1744881,-0.38554764,0.88996583,1.1820191,-2.5095336,128.0
866,-1.5499401,1.1744881,-0.38554764,0.9398804,1.0821899,-2.4022706,128.0
867,-1.2279167,1.7271767,-0.10154343,0.9398804,1.0821899,-2.4022706,128.0
868,-1.2279167,1.7271767,-0.10154343,0.78376466,0.96218264,-2.2780151,128.0
869,-0.60087585,1.9082184,0.1904602,0.78376466,0.96218264,-2.2780151,128.0
870,-0.60087585,1.9082184,0.1904602,0.630835,0.8857178,-2.18031,128.0
871,0.09038162,1.850296,-0.1449089,0.630835,0.8857178,-2.18031,128.0
872,0.09038162,1.850296,-0.1449089,0.79332274,0.74659425,-2.061365,128.0
873,-0.0688324,1.5866241,-0.50143814,0.79332274,0.74659425,-2.061365,128.0
874,-0.0688324,1.5866241,-0.50143814,0.9632446,0.67225343,-2.0210083,128.0
875,-0.045482635,1.4015503,-1.1585732,0.9632446,0.67225343,-2.0210083,128.0
876,-0.045482635,1.4015503,-1.1585732,1.4592041,0.5235718,-2.0125122,128.0
877,-0.05209732,1.1749496,-1.7410927,1.4592041,0.5235718,-2.0125122,128.0
878,-0.05209732,1.1749496,-1.7410927,2.0942872,0.37595215,-2.0624268,128.0
879,-0.05209732,1.1749496,-1.7410927,2.0942872,0.37595215,-2.0624268,129.0
880,-0.23469543,1.0068817,-2.2678719,2.0942872,0.37595215,-2.0624268,129.0
881,-0.23469543,1.0068817,-2.2678719,2.7697265,0.2262085,-2.1187134,129.0
882,-0.6501827,0.966568,-2.814003,2.7697265,0.2262085,-2.1187134,129.0
883,-0.6501827,0.966568,-2.814003,3.4334838,0.06690674,-2.182434,129.0
884,-1.1473446,1.0079346,-3.2365074,3.4334838,0.06690674,-2.182434,129.0
885,-1.1473446,1.0079346,-3.2365074,3.981482,-0.09664307,-2.2716432,129.0
886,-1.580204,1.1008453,-3.4490814,3.981482,-0.09664307,-2.2716432,129.0
887,-1.580204,1.1008453,-3.4490814,4.370178,-0.2177124,-2.3980224,129.0
888,-1.9357948,1.210537,-3.3323135,4.370178,-0.2177124,-2.3980224,129.0
889,-1.9357948,1.210537,-3.3323135,4.520984,-0.32178956,-2.543518,129.0
890,-2.2647247,1.3663177,-2.8693771,4.520984,-0.32178956,-2.543518,129.0
891,-2.2647247,1.3663177,-2.8693771,4.35,-0.35152587,-2.7421143,129.0
892,-2.5400887,1.5201683,-2.281742,4.35,-0.35152587,-2.7421143,129.0
893,-2.5400887,1.5201683,-2.281742,3.9220092,-0.35683593,-2.9035401,129.0
894,-2.5841331,1.6280746,-1.7884903,3.9220092,-0.35683593,-2.9035401,129.0
895,-2.5841331,1.6280746,-1.7884903,3.347461,-0.34090576,-2.9768188,129.0
896,-2.2486916,1.8580513,-1.4781914,3.347461,-0.34090576,-2.9768188,129.0
897,-2.2486916,1.8580513,-1.4781914,2.6921997,-0.25063476,-2.890796,129.0
898,-1.7725143,2.511795,-1.2392426,2.6921997,-0.25063476,-2.890796,129.0
899,-1.7725143,2.511795,-1.2392426,1.9572877,-0.052038576,-2.5530763,129.0
900,-1.529522,3.3898582,-1.1414566,1.9572877,-0.052038576,-2.5530763,129.0
901,-1.529522,3.3898582,-1.1414566,1.2106934,0.15823975,-1.897815,129.0
902,-1.6261444,3.4853592,-1.2999077,1.2106934,0.15823975,-1.897815,129.0
903,-1.6261444,3.4853592,-1.2999077,0.4163086,0.35046387,-1.0949341,129.0
904,-1.959301,1.9526405,-1.5102005,0.4163086,0.35046387,-1.0949341,129.0
905,-1.959301,1.9526405,-1.5102005,-0.2442627,0.48427734,-0.19328614,129.0
906,-2.3795986,-0.5629616,-1.4774475,-0.2442627,0.48427734,-0.19328614,129.0
907,-2.3795986,-0.5629616,-1.4774475,-0.43754885,0.724292,0.67650145,129.0
908,-2.5197563,-2.3252106,-1.0752792,-0.43754885,0.724292,0.67650145,129.0
909,-2.5197563,-2.3252106,-1.0752792,-0.31010744,0.813501,1.3402588,129.0
910,-2.02944,-2.4598885,-0.5238724,-0.31010744,0.813501,1.3402588,129.0
911,-2.02944,-2.4598885,-0.5238724,-0.24320069,0.8889038,1.7002808,129.0
912,-1.221098,-1.3740768,-0.09207153,-0.24320069,0.8889038,1.7002808,129.0
913,-1.221098,-1.3740768,-0.09207153,-0.21983643,0.8602295,1.988086,129.0
914,-0.5119362,0.027301788,0.31749344,-0.21983643,0.8602295,1.988086,129.0
915,-0.5119362,0.027301788,0.31749344,-0.5479981,0.8230591,2.1526978,129.0
916,0.08651924,0.7513733,0.57749176,-0.5479981,0.8230591,2.1526978,129.0
917,0.08651924,0.7513733,0.57749176,-1.0354614,0.8496094,2.265271,129.0
918,0.47464752,0.58179855,0.5196228,-1.0354614,0.8496094,2.265271,129.0
919,0.47464752,0.58179855,0.5196228,-1.7427613,0.8973999,2.3077514,129.0
920,0.48082924,0.022628784,0.3577881,-1.7427613,0.8973999,2.3077514,129.0
921,0.48082924,0.022628784,0.3577881,-2.6953857,0.88253176,2.2865112,129.0
922,0.28251648,-0.48495102,0.2396965,-2.6953857,0.88253176,2.2865112,129.0
923,0.28251648,-0.48495102,0.2396965,-3.6310182,0.6977417,2.2748291,129.0
924,0.2598648,-0.78157806,0.09669113,-3.6310182,0.6977417,2.2748291,129.0
925,0.2598648,-0.78157806,0.09669113,-4.34469,0.47790527,2.3183715,129.0
926,0.449152,-0.924736,0.11934662,-4.34469,0.47790527,2.3183715,129.0
927,0.449152,-0.924736,0.11934662,-4.805603,0.2442627,2.3725343,129.0
928,0.709383,-1.0893402,0.45009232,-4.805603,0.2442627,2.3725343,129.0
929,0.709383,-1.0893402,0.45009232,-4.9383545,-0.07965088,2.440503,129.0
930,1.1865997,-1.3605728,0.9441185,-4.9383545,-0.07965088,2.440503,129.0
931,1.1865997,-1.3605728,0.9441185,-4.7631226,-0.36745605,2.5445802,129.0
932,1.886549,-1.5915222,1.498909,-4.7631226,-0.36745605,2.5445802,129.0
933,1.886549,-1.5915222,1.498909,-4.4179688,-0.5936646,2.6444092,129.0
934,2.6230812,-1.656662,2.039177,-4.4179688,-0.5936646,2.6444092,129.0
935,2.6230812,-1.656662,2.039177,-3.9517457,-0.7827026,2.707068,129.0
936,3.3506145,-1.5341187,2.4623718,-3.9517457,-0.7827026,2.707068,129.0
937,3.3506145,-1.5341187,2.4623718,-3.42605,-0.86766356,2.7601686,129.0
938,3.9235573,-1.294178,2.7178612,-3.42605,-0.86766356,2.7601686,129.0
939,3.9235573,-1.294178,2.7178612,-2.9258423,-0.90802,2.7697265,129.0
940,4.100212,-1.0870895,2.68087,-2.9258423,-0.90802,2.7697265,129.0
941,4.100212,-1.0870895,2.68087,-2.4691772,-0.89208984,2.716626,129.0
942,3.830389,-1.0118942,2.376545,-2.4691772,-0.89208984,2.716626,129.0
943,3.830389,-1.0118942,2.376545,-2.086853,-0.8867798,2.5955567,129.0
944,3.4495049,-1.021492,1.9890175,-2.086853,-0.8867798,2.5955567,129.0
945,3.4495049,-1.021492,1.9890175,-1.8510865,-0.904834,2.3980224,129.0
946,3.427023,-1.0220146,1.7023582,-1.8510865,-0.904834,2.3980224,129.0
947,3.427023,-1.0220146,1.7023582,-1.7077149,-0.92501223,2.2164185,129.0
948,3.6824627,-1.0594101,1.533886,-1.7077149,-0.92501223,2.2164185,129.0
949,3.6824627,-1.0594101,1.533886,-1.5664673,-0.89102787,2.0210083,129.0
950,3.8089828,-1.1462822,1.3914375,-1.5664673,-0.89102787,2.0210083,129.0
951,3.8089828,-1.1462822,1.3914375,-1.442212,-0.8527954,1.8043579,129.0
952,3.6821356,-1.2235107,1.2415314,-1.442212,-0.8527954,1.8043579,129.0
953,3.6821356,-1.2235107,1.2415314,-1.3689331,-0.7827026,1.5834595,129.0
954,3.4231005,-1.3073578,1.0845451,-1.3689331,-0.7827026,1.5834595,129.0
955,3.4231005,-1.3073578,1.0845451,-1.2871583,-0.6754395,1.3455689,129.0
956,3.091569,-1.4062729,0.9875946,-1.2871583,-0.6754395,1.3455689,129.0
957,3.091569,-1.4062729,0.9875946,-1.1544068,-0.5214478,1.0620117,129.0
958,2.564515,-1.4343109,0.96502686,-1.1544068,-0.5214478,1.0620117,129.0
959,2.564515,-1.4343109,0.96502686,-0.996167,-0.32178956,0.7306641,129.0
960,1.8007698,-1.3165894,0.9215927,-0.996167,-0.32178956,0.7306641,129.0
961,1.8007698,-1.3165894,0.9215927,-0.8092529,-0.13806152,0.35046387,129.0
962,1.0738554,-1.1276474,0.7738457,-0.8092529,-0.13806152,0.35046387,129.0
963,1.0738554,-1.1276474,0.7738457,-0.5533081,0.078588866,-0.11363526,129.0
964,0.5047264,-0.9572563,0.53265,-0.5533081,0.078588866,-0.11363526,129.0
965,0.5047264,-0.9572563,0.53265,-0.20709229,0.3717041,-0.6860596,129.0
966,0.14124489,-0.8190613,0.34733582,-0.20709229,0.3717041,-0.6860596,129.0
967,0.14124489,-0.8190613,0.34733582,0.22514649,0.6966797,-1.3168945,129.0
968,-0.07071972,-0.536232,0.35393143,0.22514649,0.6966797,-1.3168945,129.0
969,-0.07071972,-0.536232,0.35393143,0.7805786,1.1013062,-1.9243653,129.0
970,-0.4729576,0.013126373,0.4644928,0.7805786,1.1013062,-1.9243653,129.0
971,-0.4729576,0.013126373,0.4644928,1.3763672,1.4878784,-2.4893556,129.0
972,-1.2711153,0.7085495,0.5256462,1.3763672,1.4878784,-2.4893556,129.0
973,-1.2711153,0.7085495,0.5256462,1.905249,1.897815,-3.0065553,129.0
974,-2.355174,1.4018402,0.5100174,1.905249,1.897815,-3.0065553,129.0
975,-2.355174,1.4018402,0.5100174,2.266333,2.2206666,-3.4186158,129.0
976,-3.498189,1.959816,0.49562454,2.266333,2.2206666,-3.4186158,129.0
977,-3.498189,1.959816,0.49562454,2.4054565,2.4936035,-3.710669,129.0
978,-4.5366974,2.3730774,0.68603516,2.4054565,2.4936035,-3.710669,129.0
979,-4.5366974,2.3730774,0.68603516,2.182434,2.7113159,-3.897583,129.0
980,-5.19331,2.7208023,1.2683449,2.182434,2.7113159,-3.897583,129.0
981,-5.19331,2.7208023,1.2683449,1.5027466,2.6837037,-3.9379394,129.0
982,-4.9030495,2.9572716,1.9048004,1.5027466,2.6837037,-3.9379394,129.0
983,-4.9030495,2.9572716,1.9048004,0.5872925,2.3300538,-3.705359,129.0
984,-4.9030495,2.9572716,1.9048004,0.5872925,2.3300538,-3.705359,129.0
985,-3.350687,2.7751694,1.6555786,0.5872925,2.3300538,-3.705359,129.0
986,-3.350687,2.7751694,1.6555786,-0.30373535,1.8224121,-3.2625,129.0
987,-1.1422081,1.9862747,0.21977615,-0.30373535,1.8224121,-3.2625,129.0
988,-1.1422081,1.9862747,0.21977615,-0.9589966,1.6078857,-2.6996338,129.0
989,0.40133286,0.9378967,-1.4342651,-0.9589966,1.6078857,-2.6996338,129.0
990,0.40133286,0.9378967,-1.4342651,-1.3030884,1.5144287,-2.1335816,129.0
991,0.6131439,0.053085327,-2.2448387,-1.3030884,1.5144287,-2.1335816,129.0
992,0.6131439,0.053085327,-2.2448387,-1.2383057,1.3997315,-1.536731,129.0
993,-0.063892365,-0.71097565,-2.2003632,-1.2383057,1.3997315,-1.536731,129.0
994,-0.063892365,-0.71097565,-2.2003632,-0.6669434,1.1968873,-0.9494385,129.0
995,-0.9986,-1.2816124,-1.9088287,-0.6669434,1.1968873,-0.9494385,129.0
996,-0.9986,-1.2816124,-1.9088287,0.26019287,1.0269654,-0.42161867,129.0
997,-1.8096104,-1.2853012,-1.6133652,0.26019287,1.0269654,-0.42161867,129.0
998,-1.8096104,-1.2853012,-1.6133652,1.0630738,0.8846558,-0.0010620117,129.0
999,-2.244625,-0.7103081,-1.228363,1.0630738,0.8846558,-0.0010620117,129.0
1000,-2.244625,-0.7103081,-1.228363,1.6970948,0.725354,0.32816163,129.0
1001,-2.302719,0.11732483,-0.6661606,1.6970948,0.725354,0.32816163,129.0
1002,-2.302719,0.11732483,-0.6661606,2.2684572,0.632959,0.60959476,129.0
1003,-2.3080082,0.94893646,0.02218628,2.2684572,0.632959,0.60959476,129.0
1004,-2.3080082,0.94893646,0.02218628,2.5562623,0.68712157,0.6839356,129.0
1005,-2.3625813,1.6246262,0.770813,2.5562623,0.68712157,0.6839356,129.0
1006,-2.3625813,1.6246262,0.770813,2.427759,0.7083618,0.62552494,129.0
1007,-1.9717903,1.8455887,1.3272934,2.427759,0.7083618,0.62552494,129.0
1008,-1.9717903,1.8455887,1.3272934,2.16969,0.7869507,0.50233155,129.0
1009,-0.9032364,1.3756523,1.3112106,2.16969,0.7869507,0.50233155,129.0
1010,-0.9032364,1.3756523,1.3112106,2.0029542,0.8952759,0.40462646,129.0
1011,0.34557533,0.61678314,0.93065643,2.0029542,0.8952759,0.40462646,129.0
1012,0.34557533,0.61678314,0.93065643,1.6546143,1.0492676,0.28674316,129.0
1013,1.0111408,0.063179016,0.5441704,1.6546143,1.0492676,0.28674316,129.0
1014,1.0111408,0.063179016,0.5441704,1.2106934,1.1289185,0.20603028,129.0
1015,0.76137924,-0.27053833,0.033504486,1.2106934,1.1289185,0.20603028,129.0
1016,0.76137924,-0.27053833,0.033504486,0.8496094,1.0949341,0.10938721,129.0
1017,-0.061649323,-0.27909088,-0.62322235,0.8496094,1.0949341,0.10938721,129.0
1018,-0.061649323,-0.27909088,-0.62322235,0.41843262,0.9770508,0.0031860352,129.0
1019,-0.9255028,0.0144844055,-1.2778625,0.41843262,0.9770508,0.0031860352,129.0
1020,-0.9255028,0.0144844055,-1.2778625,0.0637207,0.6956177,-0.06478272,129.0
1021,-1.6788559,0.22689438,-1.819519,0.0637207,0.6956177,-0.06478272,129.0
1022,-1.6788559,0.22689438,-1.819519,-0.06265869,0.3525879,-0.11257324,129.0
1023,-1.9843216,0.18033218,-2.1206932,-0.06265869,0.3525879,-0.11257324,129.0
1024,-1.9843216,0.18033218,-2.1206932,-0.012744141,-0.081774905,-0.025488282,129.0
1025,-1.8414726,0.22333145,-2.0853996,-0.012744141,-0.081774905,-0.025488282,129.0
1026,-1.8414726,0.22333145,-2.0853996,-0.23682861,-0.21452637,0.007434082,129.0
1027,-2.0242882,0.63461304,-1.619503,-0.23682861,-0.21452637,0.007434082,129.0
1028,-2.0242882,0.63461304,-1.619503,-0.7869507,-0.4991455,0.11151123,129.0
1029,-2.6353111,1.0804329,-0.97475433,-0.7869507,-0.4991455,0.11151123,129.0
1030,-2.6353111,1.0804329,-0.97475433,-1.5091187,-0.7975708,0.23789063,129.0
1031,-3.0374832,1.0322418,-0.56666946,-1.5091187,-0.7975708,0.23789063,129.0
1032,-3.0374832,1.0322418,-0.56666946,-2.078357,-1.1618408,0.42799073,129.0
1033,-2.5500546,0.36790848,-0.40723038,-2.078357,-1.1618408,0.42799073,129.0
1034,-2.5500546,0.36790848,-0.40723038,-2.3353639,-1.4517701,0.6244629,129.0
1035,-1.0852699,-0.47963715,-0.2760048,-2.3353639,-1.4517701,0.6244629,129.0
1036,-1.0852699,-0.47963715,-0.2760048,-2.2992554,-1.5792115,0.84536135,129.0
1037,0.71813774,-1.0445023,-0.0625267,-2.2992554,-1.5792115,0.84536135,129.0
1038,0.71813774,-1.0445023,-0.0625267,-2.0305665,-1.5611572,1.0705079,129.0
1039,2.1402817,-1.2047806,0.25222397,-2.0305665,-1.5611572,1.0705079,129.0
1040,2.1402817,-1.2047806,0.25222397,-1.621692,-1.5303589,1.2765381,129.0
1041,3.1297665,-0.98976135,0.54512787,-1.621692,-1.5303589,1.2765381,129.0
1042,3.1297665,-0.98976135,0.54512787,-1.2011353,-1.5176147,1.4857544,129.0
1043,4.013176,-0.6520386,0.68798065,-1.2011353,-1.5176147,1.4857544,129.0
1044,4.013176,-0.6520386,0.68798065,-0.8963379,-1.447522,1.6450561,129.0
1045,4.79245,-0.43115234,0.6746063,-0.8963379,-1.447522,1.6450561,129.0
1046,4.79245,-0.43115234,0.6746063,-0.7072998,-1.3710572,1.7841797,129.0
1047,5.2335587,-0.3556404,0.5709114,-0.7072998,-1.3710572,1.7841797,129.0
1048,5.2335587,-0.3556404,0.5709114,-0.64570314,-1.26698,1.8648926,129.0
1049,5.2523746,-0.3573265,0.4486847,-0.64570314,-1.26698,1.8648926,129.0
1050,5.2523746,-0.3573265,0.4486847,-0.7338501,-1.1586548,1.8925049,129.0
1051,4.855135,-0.3923416,0.3861351,-0.7338501,-1.1586548,1.8925049,129.0
1052,4.855135,-0.3923416,0.3861351,-0.9409424,-1.0567017,1.8595825,129.0
1053,4.120119,-0.47982788,0.404747,-0.9409424,-1.0567017,1.8595825,129.0
1054,4.120119,-0.47982788,0.404747,-1.2043213,-1.0248413,1.7597535,129.0
1055,3.3161516,-0.6035652,0.45685577,-1.2043213,-1.0248413,1.7597535,129.0
1056,3.3161516,-0.6035652,0.45685577,-1.4199097,-1.0365235,1.6036377,129.0
1057,2.6032515,-0.7409439,0.48467636,-1.4199097,-1.0365235,1.6036377,129.0
1058,2.6032515,-0.7409439,0.48467636,-1.5144287,-1.0567017,1.3986695,129.0
1059,1.9167318,-0.87205505,0.47327423,-1.5144287,-1.0567017,1.3986695,129.0
1060,1.9167318,-0.87205505,0.47327423,-1.4018555,-1.1044922,1.1841431,129.0
1061,1.236022,-0.97844315,0.41311646,-1.4018555,-1.1044922,1.1841431,129.0
1062,1.236022,-0.97844315,0.41311646,-1.0981201,-1.1820191,0.9866089,129.0
1063,0.72922325,-1.0503922,0.26099777,-1.0981201,-1.1820191,0.9866089,129.0
1064,0.72922325,-1.0503922,0.26099777,-0.5968506,-1.2712281,0.8496094,129.0
1065,0.51637363,-1.0707207,0.008041382,-0.5968506,-1.2712281,0.8496094,129.0
1066,0.51637363,-1.0707207,0.008041382,0.10089111,-1.2914063,0.77526855,129.0
1067,0.33468056,-0.99188995,-0.30931473,0.10089111,-1.2914063,0.77526855,129.0
1068,0.33468056,-0.99188995,-0.30931473,0.84323734,-1.2106934,0.70198977,129.0
1069,-0.16648483,-0.75723267,-0.61203766,0.84323734,-1.2106934,0.70198977,129.0
1070,-0.16648483,-0.75723267,-0.61203766,1.450708,-1.1034302,0.57454836,129.0
1071,-0.76252174,-0.37895203,-0.8333092,1.450708,-1.1034302,0.57454836,129.0
1072,-0.76252174,-0.37895203,-0.8333092,1.8043579,-0.994043,0.39613038,129.0
1073,-0.76252174,-0.37895203,-0.8333092,1.8043579,-0.994043,0.39613038,129.0
1074,-0.9456501,0.0032691956,-0.97698975,1.8043579,-0.994043,0.39613038,129.0
1075,-0.9456501,0.0032691956,-0.97698975,1.9721558,-0.8092529,0.15080567,129.0
1076,-0.8540783,0.29533768,-1.0371933,1.9721558,-0.8092529,0.15080567,129.0
1077,-0.8540783,0.29533768,-1.0371933,1.9572877,-0.48427734,-0.22302246,129.0
1078,-0.77258205,0.56629944,-0.92845917,1.9572877,-0.48427734,-0.22302246,129.0
1079,-0.77258205,0.56629944,-0.92845917,1.7109009,-0.18585205,-0.6414551,129.0
1080,-0.5841303,0.84189606,-0.59999466,1.7109009,-0.18585205,-0.6414551,129.0
1081,-0.5841303,0.84189606,-0.59999466,1.3062744,0.22514649,-1.0864381,129.0
1082,-0.42351723,0.9985275,-0.1589508,1.3062744,0.22514649,-1.0864381,129.0
1083,-0.42351723,0.9985275,-0.1589508,0.91120607,0.635083,-1.5091187,129.0
1084,-0.63041496,0.9615669,0.2326889,0.91120607,0.635083,-1.5091187,129.0
1085,-0.63041496,0.9615669,0.2326889,0.60959476,1.0216553,-1.8755127,129.0
1086,-1.1426134,0.9072151,0.5729065,0.60959476,1.0216553,-1.8755127,129.0
1087,-1.1426134,0.9072151,0.5729065,0.29099122,1.359375,-2.1463258,129.0
1088,-1.5485392,1.0077934,0.94721603,0.29099122,1.359375,-2.1463258,129.0
1089,-1.5485392,1.0077934,0.94721603,-0.05522461,1.6121339,-2.264209,129.0
1090,-1.4485607,1.1100464,1.3430481,-0.05522461,1.6121339,-2.264209,129.0
1091,-1.4485607,1.1100464,1.3430481,-0.3419678,1.725769,-2.2227905,129.0
1092,-0.7275505,1.0659294,1.6438217,-0.3419678,1.725769,-2.2227905,129.0
1093,-0.7275505,1.0659294,1.6438217,-0.5533081,1.6790406,-2.0156982,129.0
1094,0.3397007,0.86828613,1.6756134,-0.5533081,1.6790406,-2.0156982,129.0
1095,0.3397007,0.86828613,1.6756134,-0.7519043,1.5622193,-1.713025,129.0
1096,1.2478962,0.50572586,1.301796,-0.7519043,1.5622193,-1.713025,129.0
1097,1.2478962,0.50572586,1.301796,-0.9133301,1.4570801,-1.3360108,129.0
1098,1.642909,-0.032318115,0.59052277,-0.9133301,1.4570801,-1.3360108,129.0
1099,1.642909,-0.032318115,0.59052277,-0.86766356,1.260608,-0.9430664,129.0
1100,1.5818443,-0.5762329,-0.1888237,-0.86766356,1.260608,-0.9430664,129.0
1101,1.5818443,-0.5762329,-0.1888237,-0.634021,1.0630738,-0.632959,129.0
1102,1.2165861,-0.9086304,-0.7406349,-0.634021,1.0630738,-0.632959,129.0
1103,1.2165861,-0.9086304,-0.7406349,-0.2548828,0.9197022,-0.42161867,129.0
1104,0.5523834,-0.98749924,-0.9599037,-0.2548828,0.9197022,-0.42161867,129.0
1105,0.5523834,-0.98749924,-0.9599037,0.2803711,0.74447024,-0.32178956,129.0
1106,-0.2868042,-0.8722153,-1.0015259,0.2803711,0.74447024,-0.32178956,129.0
1107,-0.2868042,-0.8722153,-1.0015259,0.89102787,0.5692383,-0.32709962,129.0
1108,-1.1056032,-0.6133232,-1.0508919,0.89102787,0.5692383,-0.32709962,129.0
1109,-1.1056032,-0.6133232,-1.0508919,1.5303589,0.362146,-0.41099855,129.0
1110,-1.76478,-0.23172379,-1.1875534,1.5303589,0.362146,-0.41099855,129.0
1111,-1.76478,-0.23172379,-1.1875534,2.2259767,0.121069334,-0.5140137,129.0
1112,-2.1450024,0.3114853,-1.4279709,2.2259767,0.121069334,-0.5140137,129.0
1113,-2.1450024,0.3114853,-1.4279709,2.9035401,-0.032922365,-0.6159668,129.0
1114,-2.2137794,0.960392,-1.6895561,2.9035401,-0.032922365,-0.6159668,129.0
1115,-2.2137794,0.960392,-1.6895561,3.4037476,0.008496094,-0.76464844,129.0
1116,-2.1029072,1.4513588,-1.7996063,3.4037476,0.008496094,-0.76464844,129.0
1117,-2.1029072,1.4513588,-1.7996063,3.6873047,0.095581055,-0.84748536,129.0
1118,-1.8213158,1.5791664,-1.5959587,3.6873047,0.095581055,-0.84748536,129.0
1119,-1.8213158,1.5791664,-1.5959587,3.702173,0.25913087,-0.91120607,129.0
1120,-1.3966522,1.4200096,-1.0592003,3.702173,0.25913087,-0.91120607,129.0
1121,-1.3966522,1.4200096,-1.0592003,3.3060424,0.540564,-0.97280276,129.0
1122,-1.4283199,1.1602173,-0.38067245,3.3060424,0.540564,-0.97280276,129.0
1123,-1.4283199,1.1602173,-0.38067245,2.456433,0.82730716,-1.0694458,129.0
1124,-2.2427292,0.965847,0.08879852,2.456433,0.82730716,-1.0694458,129.0
1125,-2.2427292,0.965847,0.08879852,1.3190186,1.0513916,-1.2468017,129.0
1126,-3.2555962,0.83979034,0.14058304,1.3190186,1.0513916,-1.2468017,129.0
1127,-3.2555962,0.83979034,0.14058304,0.24851075,1.3020264,-1.4220337,129.0
1128,-3.7372532,0.81090546,-0.07671738,0.24851075,1.3020264,-1.4220337,129.0
1129,-3.7372532,0.81090546,-0.07671738,-0.72641605,1.2754761,-1.454956,129.0
1130,-3.3901691,0.7088547,-0.46978378,-0.72641605,1.2754761,-1.454956,129.0
1131,-3.3901691,0.7088547,-0.46978378,-1.3052124,1.264856,-1.3338867,129.0
1132,-2.6912231,0.30491257,-0.7884598,-1.3052124,1.264856,-1.3338867,129.0
1133,-2.6912231,0.30491257,-0.7884598,-1.5717773,1.0280274,-1.183081,129.0
1134,-1.9052486,-0.15818024,-0.6346855,-1.5717773,1.0280274,-1.183081,129.0
1135,-1.9052486,-0.15818024,-0.6346855,-1.5983276,0.8007569,-0.99510497,129.0
1136,-1.1282501,-0.37745667,0.054740906,-1.5983276,0.8007569,-0.99510497,129.0
1137,-1.1282501,-0.37745667,0.054740906,-1.6121339,0.5299439,-0.8506714,129.0
1138,-0.5346794,-0.26169586,0.8244209,-1.6121339,0.5299439,-0.8506714,129.0
1139,-0.5346794,-0.26169586,0.8244209,-1.6397461,0.14337158,-0.6446411,129.0
1140,-0.22646141,0.021720886,1.0946579,-1.6397461,0.14337158,-0.6446411,129.0
1141,-0.22646141,0.021720886,1.0946579,-1.8309082,-0.09451904,-0.4619751,129.0
1142,-0.4089527,0.25222778,0.8832207,-1.8309082,-0.09451904,-0.4619751,129.0
1143,-0.4089527,0.25222778,0.8832207,-2.2121704,-0.44498292,-0.26868898,129.0
1144,-0.76161003,0.265213,0.5728378,-2.2121704,-0.44498292,-0.26868898,129.0
1145,-0.76161003,0.265213,0.5728378,-2.6051147,-0.7476563,-0.08814698,129.0
1146,-0.8274021,-0.007968903,0.37784958,-2.6051147,-0.7476563,-0.08814698,129.0
1147,-0.8274021,-0.007968903,0.37784958,-2.8164551,-1.1055542,0.12850343,129.0
1148,-0.50875854,-0.49011612,0.2796631,-2.8164551,-1.1055542,0.12850343,129.0
1149,-0.50875854,-0.49011612,0.2796631,-2.7803466,-1.4262818,0.38232422,129.0
1150,0.06654167,-1.0152512,0.21945953,-2.7803466,-1.4262818,0.38232422,129.0
1151,0.06654167,-1.0152512,0.21945953,-2.4489992,-1.717273,0.6754395,129.0
1152,0.88201904,-1.4014206,0.3041687,-2.4489992,-1.717273,0.6754395,129.0
1153,0.88201904,-1.4014206,0.3041687,-1.9434814,-1.9190552,1.0067872,129.0
1154,1.8574104,-1.5243721,0.6438103,-1.9434814,-1.9190552,1.0067872,129.0
1155,1.8574104,-1.5243721,0.6438103,-1.3668091,-1.996582,1.3402588,129.0
1156,2.6806183,-1.3885422,1.1149483,-1.3668091,-1.996582,1.3402588,129.0
1157,2.6806183,-1.3885422,1.1149483,-0.75721437,-2.0401247,1.6747925,129.0
1158,3.1736088,-1.0481148,1.3940201,-0.75721437,-2.0401247,1.6747925,129.0
1159,3.1736088,-1.0481148,1.3940201,-0.22302246,-1.9976441,1.9413575,129.0
1160,3.378193,-0.58952713,1.2941704,-0.22302246,-1.9976441,1.9413575,129.0
1161,3.378193,-0.58952713,1.2941704,0.1274414,-1.8744507,2.095349,129.0
1162,3.2932396,-0.15742493,0.90164185,0.1274414,-1.8744507,2.095349,129.0
1163,3.2932396,-0.15742493,0.90164185,0.26762697,-1.7809937,2.2323487,129.0
1164,2.982296,0.078453064,0.3907814,0.26762697,-1.7809937,2.2323487,129.0
1165,2.982296,0.078453064,0.3907814,0.23364258,-1.6716064,2.2684572,129.0
1166,2.6277676,0.089653015,-0.085128784,0.23364258,-1.6716064,2.2684572,129.0
1167,2.6277676,0.089653015,-0.085128784,0.081774905,-1.5877075,2.2429688,129.0
1168,2.255022,-0.061065674,-0.40301514,0.081774905,-1.5877075,2.2429688,129.0
1169,2.255022,-0.061065674,-0.40301514,-0.12213135,-1.5346069,2.182434,129.0
1170,1.9043598,-0.31900787,-0.5488281,-0.12213135,-1.5346069,2.182434,129.0
1171,1.9043598,-0.31900787,-0.5488281,-0.25700685,-1.536731,2.0995972,129.0
1172,1.665968,-0.5839157,-0.5752449,-0.25700685,-1.536731,2.0995972,129.0
1173,1.665968,-0.5839157,-0.5752449,-0.3058594,-1.5420411,2.0125122,129.0
1174,1.5398426,-0.762558,-0.541481,-0.3058594,-1.5420411,2.0125122,129.0
1175,1.5398426,-0.762558,-0.541481,-0.19647217,-1.5569092,1.9296753,129.0
1176,1.5107689,-0.87254333,-0.49438858,-0.19647217,-1.5569092,1.9296753,129.0
1177,1.5107689,-0.87254333,-0.49438858,0.040356446,-1.5346069,1.8500245,129.0
1178,1.4678068,-0.90722656,-0.47208786,0.040356446,-1.5346069,1.8500245,129.0
1179,1.4678068,-0.90722656,-0.47208786,0.3164795,-1.453894,1.7342652,129.0
1180,1.2515411,-0.84059906,-0.48807144,0.3164795,-1.453894,1.7342652,129.0
1181,1.2515411,-0.84059906,-0.48807144,0.54587406,-1.3349488,1.5643433,129.0
1182,0.8773804,-0.68006897,-0.47074127,0.54587406,-1.3349488,1.5643433,129.0
1183,0.8773804,-0.68006897,-0.47074127,0.5968506,-1.1968873,1.3105224,129.0
1184,0.6145878,-0.49344254,-0.40253448,0.5968506,-1.1968873,1.3105224,129.0
1185,0.6145878,-0.49344254,-0.40253448,0.5161377,-1.0577637,1.0301514,129.0
1186,0.561079,-0.41532135,-0.35469437,0.5161377,-1.0577637,1.0301514,129.0
1187,0.561079,-0.41532135,-0.35469437,0.4609131,-0.8336792,0.65632325,129.0
1188,0.6417217,-0.4197197,-0.35038376,0.4609131,-0.8336792,0.65632325,129.0
1189,0.6417217,-0.4197197,-0.35038376,0.4163086,-0.64995116,0.24957275,129.0
1190,1.0863876,-0.39067078,-0.3129959,0.4163086,-0.64995116,0.24957275,129.0
1191,1.0863876,-0.39067078,-0.3129959,0.43754885,-0.3971924,-0.18054199,129.0
1192,1.0863876,-0.39067078,-0.3129959,0.43754885,-0.3971924,-0.18054199,130.0
1193,1.7790718,-0.2985344,-0.18622589,0.43754885,-0.3971924,-0.18054199,130.0
1194,1.7790718,-0.2985344,-0.18622589,0.55543214,-0.08496094,-0.5883545,130.0
1195,2.0952425,-0.12773132,-0.01292038,0.55543214,-0.08496094,-0.5883545,130.0
1196,2.0952425,-0.12773132,-0.01292038,0.7317261,0.26125488,-0.97280276,130.0
1197,1.5885715,0.09801102,0.13903809,0.7317261,0.26125488,-0.97280276,130.0
1198,1.5885715,0.09801102,0.13903809,0.8496094,0.60216063,-1.364685,130.0
1199,0.46411896,0.3684082,0.24277496,0.8496094,0.60216063,-1.364685,130.0
1200,0.46411896,0.3684082,0.24277496,0.8889038,0.87615967,-1.7278931,130.0
1201,-0.603302,0.69124603,0.3398857,0.8889038,0.87615967,-1.7278931,130.0
1202,-0.603302,0.69124603,0.3398857,0.8219971,1.1533448,-2.0252564,130.0
1203,-1.3034544,1.0552673,0.62304306,0.8219971,1.1533448,-2.0252564,130.0
1204,-1.3034544,1.0552673,0.62304306,0.6053467,1.3678712,-2.2036743,130.0
1205,-1.5103054,1.3305054,1.174118,0.6053467,1.3678712,-2.2036743,130.0
1206,-1.5103054,1.3305054,1.174118,0.24001466,1.4719483,-2.2546508,130.0
1207,-1.2004318,1.3640518,1.7253304,0.24001466,1.4719483,-2.2546508,130.0
1208,-1.2004318,1.3640518,1.7253304,-0.11257324,1.4358399,-2.1898682,130.0
1209,-0.5129576,1.0995636,1.8177528,-0.11257324,1.4358399,-2.1898682,130.0
1210,-0.5129576,1.0995636,1.8177528,-0.33984375,1.2807862,-2.0326905,130.0
1211,0.24219704,0.6648102,1.3238411,-0.33984375,1.2807862,-2.0326905,130.0
1212,0.24219704,0.6648102,1.3238411,-0.42692873,1.1629028,-1.8266602,130.0
1213,0.5722246,0.23744965,0.5345001,-0.42692873,1.1629028,-1.8266602,130.0
1214,0.5722246,0.23744965,0.5345001,-0.36108398,1.0535157,-1.63125,130.0
1215,0.3737831,-0.15259552,-0.31163406,-0.36108398,1.0535157,-1.63125,130.0
1216,0.3737831,-0.15259552,-0.31163406,0.011682129,0.83474123,-1.3912354,130.0
1217,-0.017623901,-0.4778595,-1.1096191,0.011682129,0.83474123,-1.3912354,130.0
1218,-0.017623901,-0.4778595,-1.1096191,0.5692383,0.6425171,-1.2021973,130.0
1219,-0.43328857,-0.5703125,-1.7215843,0.5692383,0.6425171,-1.2021973,130.0
1220,-0.43328857,-0.5703125,-1.7215843,1.0959961,0.5479981,-1.1225464,130.0
1221,-1.0551643,-0.39318848,-1.9437714,1.0959961,0.5479981,-1.1225464,130.0
1222,-1.0551643,-0.39318848,-1.9437714,1.5600952,0.49064943,-1.1182984,130.0
1223,-2.005252,-0.07984924,-1.7619247,1.5600952,0.49064943,-1.1182984,130.0
1224,-2.005252,-0.07984924,-1.7619247,2.0539308,0.3419678,-1.1490967,130.0
1225,-2.866127,0.32159424,-1.4291306,2.0539308,0.3419678,-1.1490967,130.0
1226,-2.866127,0.32159424,-1.4291306,2.535022,0.12531738,-1.2085694,130.0
1227,-3.147272,0.8321152,-1.0794373,2.535022,0.12531738,-1.2085694,130.0
1228,-3.147272,0.8321152,-1.0794373,2.794153,0.14549561,-1.3774292,130.0
1229,-2.7902412,1.3647766,-0.57580566,2.794153,0.14549561,-1.3774292,130.0
1230,-2.7902412,1.3647766,-0.57580566,2.7824707,0.14124756,-1.4878784,130.0
1231,-2.0153713,1.6606293,0.12812424,2.7824707,0.14124756,-1.4878784,130.0
1232,-2.0153713,1.6606293,0.12812424,2.4861696,0.31860352,-1.5781494,130.0
1233,-1.4732838,1.4668846,0.73191833,2.4861696,0.31860352,-1.5781494,130.0
1234,-1.4732838,1.4668846,0.73191833,2.095349,0.5607422,-1.6790406,130.0
1235,-1.9673233,0.988739,0.8055191,2.095349,0.5607422,-1.6790406,130.0
1236,-1.9673233,0.988739,0.8055191,1.6684204,0.77739257,-1.7958618,130.0
1237,-3.3384953,0.6748886,0.15717316,1.6684204,0.77739257,-1.7958618,130.0
1238,-3.3384953,0.6748886,0.15717316,1.2765381,0.9133301,-1.905249,130.0
1239,-4.508505,0.6840019,-0.79774857,1.2765381,0.9133301,-1.905249,130.0
1240,-4.508505,0.6840019,-0.79774857,0.9143921,0.78164065,-1.8563966,130.0
1241,-4.230192,0.96437836,-1.4434853,0.9143921,0.78164065,-1.8563966,130.0
1242,-4.230192,0.96437836,-1.4434853,0.5278198,0.51082766,-1.6238159,130.0
1243,-2.7940178,1.2151337,-1.6613312,0.5278198,0.51082766,-1.6238159,130.0
1244,-2.7940178,1.2151337,-1.6613312,0.08071289,0.54693604,-1.3083985,130.0
1245,-2.7940178,1.2151337,-1.6613312,-0.23789063,0.26975098,-0.811377,130.0
1246,-1.4385452,1.0779572,-1.4332886,-0.23789063,0.26975098,-0.811377,130.0
1247,-0.5891781,0.4991455,-0.57725906,-0.23789063,0.26975098,-0.811377,130.0
1248,-0.5891781,0.4991455,-0.57725906,-0.6839356,0.27506104,-0.41524658,130.0
1249,-0.5891781,0.4991455,-0.57725906,-1.0588257,0.04991455,-0.009558106,130.0
1250,-0.70563126,0.28783035,-0.4328041,-1.0588257,0.04991455,-0.009558106,130.0
1251,-0.70563126,0.28783035,-0.4328041,-1.3954834,-0.093457036,0.3334717,130.0
1252,-0.8694248,0.14393616,-0.62981033,-1.3954834,-0.093457036,0.3334717,130.0
1253,-0.8694248,0.14393616,-0.62981033,-1.6386842,-0.22939454,0.6064087,130.0
1254,-1.1921692,-0.10047531,-0.8430824,-1.6386842,-0.22939454,0.6064087,130.0
1255,-1.1921692,-0.10047531,-0.8430824,-1.7767457,-0.47365722,0.8219971,130.0
1256,-1.1526718,-0.34384537,-0.7768707,-1.7767457,-0.47365722,0.8219971,130.0
1257,-1.1526718,-0.34384537,-0.7768707,-1.9402955,-0.7168579,0.991919,130.0
1258,-0.44699097,-0.477211,-0.42347336,-1.9402955,-0.7168579,0.991919,130.0
1259,-0.44699097,-0.477211,-0.42347336,-2.1176515,-0.8496094,1.1214844,130.0
1260,0.53494835,-0.5139961,0.02260971,-2.1176515,-0.8496094,1.1214844,130.0
1261,0.53494835,-0.5139961,0.02260971,-2.2812011,-0.89846194,1.2181275,130.0
1262,1.405035,-0.4988556,0.43291855,-2.2812011,-0.89846194,1.2181275,130.0
1263,1.405035,-0.4988556,0.43291855,-2.4914796,-0.88359374,1.2776002,130.0
1264,2.0681324,-0.5152817,0.8336029,-2.4914796,-0.88359374,1.2776002,130.0
1265,2.0681324,-0.5152817,0.8336029,-2.7899048,-0.74447024,1.2754761,130.0
1266,2.5130005,-0.63458633,1.2924805,-2.7899048,-0.74447024,1.2754761,130.0
1267,2.5130005,-0.63458633,1.2924805,-2.984253,-0.76677245,1.3413209,130.0
1268,2.8335686,-0.8240013,1.8071556,-2.984253,-0.76677245,1.3413209,130.0
1269,2.8335686,-0.8240013,1.8071556,-2.9587648,-0.7147339,1.4262818,130.0
1270,3.001463,-1.0088844,2.1999855,-2.9587648,-0.7147339,1.4262818,130.0
1271,3.001463,-1.0088844,2.1999855,-2.6582153,-0.7168579,1.536731,130.0
1272,2.9097633,-1.1062012,2.2542648,-2.6582153,-0.7168579,1.536731,130.0
1273,2.9097633,-1.1062012,2.2542648,-2.2281005,-0.7657105,1.6535523,130.0
1274,2.679348,-1.069458,2.0132523,-2.2281005,-0.7657105,1.6535523,130.0
1275,2.679348,-1.069458,2.0132523,-1.8542725,-0.83474123,1.7608155,130.0
1276,2.4392433,-0.9429321,1.5927277,-1.8542725,-0.83474123,1.7608155,130.0
1277,2.4392433,-0.9429321,1.5927277,-1.6524903,-0.8952759,1.7937378,130.0
1278,2.1102448,-0.85097504,1.1412354,-1.6524903,-0.8952759,1.7937378,130.0
1279,2.1102448,-0.85097504,1.1412354,-1.5484132,-0.9420044,1.7501954,130.0
1280,1.597168,-0.8452568,0.7896576,-1.5484132,-0.9420044,1.7501954,130.0
1281,1.597168,-0.8452568,0.7896576,-1.5101807,-1.0365235,1.6450561,130.0
1282,1.597168,-0.8452568,0.7896576,-1.5101807,-1.0365235,1.6450561,130.0
1283,1.0314941,-0.84041214,0.5558243,-1.5101807,-1.0365235,1.6450561,130.0
1284,1.0314941,-0.84041214,0.5558243,-1.5261109,-1.1629028,1.5239868,130.0
1285,0.62086296,-0.860672,0.456707,-1.5261109,-1.1629028,1.5239868,130.0
1286,0.62086296,-0.860672,0.456707,-1.5239868,-1.2797241,1.3668091,130.0
1287,0.4821396,-0.90979004,0.4524269,-1.5239868,-1.2797241,1.3668091,130.0
1288,0.4821396,-0.90979004,0.4524269,-1.449646,-1.3838013,1.2276856,130.0
1289,0.6082821,-0.95381165,0.43481827,-1.449646,-1.3838013,1.2276856,130.0
1290,0.6082821,-0.95381165,0.43481827,-1.260608,-1.3763672,1.1321045,130.0
1291,0.8445606,-0.9994354,0.30472565,-1.260608,-1.3763672,1.1321045,130.0
1292,0.8445606,-0.9994354,0.30472565,-0.9834229,-1.3052124,1.0598878,130.0
1293,1.0873299,-1.2202606,0.08075333,-0.9834229,-1.3052124,1.0598878,130.0
1294,1.0873299,-1.2202606,0.08075333,-0.5936646,-1.183081,0.9759888,130.0
1295,1.3868198,-1.7427139,-0.19070816,-0.5936646,-1.183081,0.9759888,130.0
1296,1.3868198,-1.7427139,-0.19070816,-0.10301514,-1.0280274,0.79226077,130.0
1297,1.6914263,-2.0872993,-0.38834763,-0.10301514,-1.0280274,0.79226077,130.0
1298,1.6914263,-2.0872993,-0.38834763,0.2262085,-0.68074954,0.4885254,130.0
1299,1.4341345,-1.63517,-0.26296234,0.2262085,-0.68074954,0.4885254,130.0
1300,1.4341345,-1.63517,-0.26296234,0.26550293,-0.2782471,0.057348635,130.0
1301,0.68086433,-0.5795708,0.29335403,0.26550293,-0.2782471,0.057348635,130.0
1302,0.68086433,-0.5795708,0.29335403,-0.0010620117,0.016992187,-0.40144044,130.0
1303,0.44854832,0.30281067,1.1016159,-0.0010620117,0.016992187,-0.40144044,130.0
1304,0.44854832,0.30281067,1.1016159,-0.45454103,0.3440918,-0.7391602,130.0
1305,0.5971317,0.50564957,1.7018127,-0.45454103,0.3440918,-0.7391602,130.0
1306,0.5971317,0.50564957,1.7018127,-0.817749,0.6605713,-0.97280276,130.0
1307,0.31414318,0.22319794,1.7451897,-0.817749,0.6605713,-0.97280276,130.0
1308,0.31414318,0.22319794,1.7451897,-0.90058595,0.87191164,-1.0503296,130.0
1309,-0.26286983,-0.10651016,1.365036,-0.90058595,0.87191164,-1.0503296,130.0
1310,-0.26286983,-0.10651016,1.365036,-0.83686525,1.0471436,-1.0460815,130.0
1311,-0.6880665,-0.25951385,0.8893547,-0.83686525,1.0471436,-1.0460815,130.0
1312,-0.6880665,-0.25951385,0.8893547,-0.6042847,1.1257324,-0.9876709,130.0
1313,-0.862587,-0.23154831,0.66293335,-0.6042847,1.1257324,-0.9876709,130.0
1314,-0.862587,-0.23154831,0.66293335,-0.4704712,1.1618408,-0.9228882,130.0
1315,-1.2093439,-0.17026138,0.47641754,-0.4704712,1.1618408,-0.9228882,130.0
1316,-1.2093439,-0.17026138,0.47641754,-0.22833252,1.1862671,-0.6265869,130.0
1317,-1.1627512,-0.19163132,0.5445366,-0.22833252,1.1862671,-0.6265869,130.0
1318,-1.1627512,-0.19163132,0.5445366,-0.19541016,1.1597168,-0.5033936,130.0
1319,-0.32572174,-0.4240799,1.262825,-0.19541016,1.1597168,-0.5033936,130.0
1320,-0.32572174,-0.4240799,1.262825,-0.21877442,1.0641358,-0.14230958,130.0
1321,0.11373901,-0.42141724,1.3125191,-0.21877442,1.0641358,-0.14230958,130.0
1322,0.11373901,-0.42141724,1.3125191,-0.2081543,1.0067872,-0.039294433,130.0
1323,1.3360109,-0.3359375,1.3627853,-0.2081543,1.0067872,-0.039294433,130.0
1324,1.3360109,-0.3359375,1.3627853,-0.07434082,0.9866089,0.20284425,130.0
1325,1.2666235,-0.23005676,1.076004,-0.07434082,0.9866089,0.20284425,130.0
1326,1.2666235,-0.23005676,1.076004,-0.011682129,0.9398804,0.24744873,130.0
1327,1.6382627,-0.19298172,0.7390137,-0.011682129,0.9398804,0.24744873,130.0
1328,1.6382627,-0.19298172,0.7390137,0.3462158,0.80394286,0.26019287,130.0
1329,1.6231346,-0.13024902,0.49489594,0.3462158,0.80394286,0.26019287,130.0
1330,1.6231346,-0.13024902,0.49489594,0.51082766,0.814563,0.24001466,130.0
1331,1.6938696,0.27220154,0.4143753,0.51082766,0.814563,0.24001466,130.0
1332,1.6938696,0.27220154,0.4143753,0.80181885,0.89102787,0.1709839,130.0
1333,1.1022024,0.4872055,0.34745407,0.80181885,0.89102787,0.1709839,130.0
1334,1.1022024,0.4872055,0.34745407,0.83049315,0.84748536,0.13062744,130.0
1335,0.3581047,1.0460014,0.39372253,0.83049315,0.84748536,0.13062744,130.0
1336,0.3581047,1.0460014,0.39372253,0.7614624,0.903772,-0.06584473,130.0
1337,0.13465309,1.095604,0.26488113,0.7614624,0.903772,-0.06584473,130.0
1338,0.13465309,1.095604,0.26488113,0.66588134,0.9653687,-0.1274414,130.0
1339,-0.5894699,1.3631172,0.42318344,0.66588134,0.9653687,-0.1274414,130.0
1340,-0.5894699,1.3631172,0.42318344,0.36002198,1.0598878,-0.26019287,130.0
1341,-2.0371637,1.4219742,0.77625656,0.36002198,1.0598878,-0.26019287,130.0
1342,-2.0371637,1.4219742,0.77625656,0.0541626,1.0248413,-0.36002198,130.0
1343,-3.391243,1.084919,0.89336777,0.0541626,1.0248413,-0.36002198,130.0
1344,-3.391243,1.084919,0.89336777,-0.04460449,0.8973999,-0.38232422,130.0
1345,-3.8445377,0.51288223,0.5632553,-0.04460449,0.8973999,-0.38232422,130.0
1346,-3.8445377,0.51288223,0.5632553,0.15930176,0.72960204,-0.29948732,130.0
1347,-3.927742,-0.082675934,-0.04334259,0.15930176,0.72960204,-0.29948732,130.0
1348,-3.927742,-0.082675934,-0.04334259,0.58304447,0.6244629,-0.078588866,130.0
1349,-3.5345268,-0.16861725,-0.24473572,0.58304447,0.6244629,-0.078588866,130.0
1350,-3.5345268,-0.16861725,-0.24473572,0.80181885,0.48321533,0.02442627,130.0
1351,-3.5930634,-0.6597252,-0.78393555,0.80181885,0.48321533,0.02442627,130.0
1352,-3.5930634,-0.6597252,-0.78393555,1.7055908,0.016992187,0.32816163,130.0
1353,-2.6849747,-0.52155685,-1.0994873,1.7055908,0.016992187,0.32816163,130.0
1354,-2.6849747,-0.52155685,-1.0994873,1.9710938,-0.06159668,0.35152587,130.0
1355,-1.2104073,-0.10677338,-1.4099884,1.9710938,-0.06159668,0.35152587,130.0
1356,-1.2104073,-0.10677338,-1.4099884,2.2833252,-0.11257324,0.15930176,130.0
1357,-0.94376564,0.16420364,-1.2507095,2.2833252,-0.11257324,0.15930176,130.0
1358,-0.94376564,0.16420364,-1.2507095,2.6454713,-0.2782471,0.10513916,130.0
1359,-0.9947586,0.5418968,-0.6932945,2.6454713,-0.2782471,0.10513916,130.0
1360,-0.9947586,0.5418968,-0.6932945,3.245508,-0.6149048,-0.052038576,130.0
1361,-0.9947586,0.5418968,-0.6932945,2.8493774,-0.6244629,-0.452417,130.0
1362,-0.32694626,1.22435,-0.80282974,2.8493774,-0.6244629,-0.452417,130.0
1363,1.5504303,2.9143677,-2.7256012,2.8493774,-0.6244629,-0.452417,130.0
1364,1.5504303,2.9143677,-2.7256012,2.3353639,-0.57454836,-0.8050049,130.0
1365,1.5504303,2.9143677,-2.7256012,1.9859619,-0.5320679,-1.0715698,130.0
1366,1.5504303,2.9143677,-2.7256012,1.6248779,-0.4991455,-1.2744141,130.0
1367,0.5207405,2.378357,-2.631958,1.6248779,-0.4991455,-1.2744141,130.0
1368,0.5207405,2.378357,-2.631958,1.1066163,-0.49277344,-1.4900025,130.0
1369,-0.54756737,2.082058,-2.59132,1.1066163,-0.49277344,-1.4900025,130.0
1370,-0.54756737,2.082058,-2.59132,0.4694092,-0.4991455,-1.6662964,130.0
1371,-1.1504192,2.080246,-2.332615,0.4694092,-0.4991455,-1.6662964,130.0
1372,-1.1504192,2.080246,-2.332615,-0.16354981,-0.4991455,-1.7140869,130.0
1373,-1.0341892,2.1717415,-1.8516273,-0.16354981,-0.4991455,-1.7140869,130.0
1374,-1.0341892,2.1717415,-1.8516273,-0.8814697,-0.4704712,-1.4910644,130.0
1375,-0.80374146,1.6725235,-1.2740288,-0.8814697,-0.4704712,-1.4910644,130.0
1376,-0.80374146,1.6725235,-1.2740288,-1.0152832,-0.45772704,-1.3455689,130.0
1377,-0.12696457,0.924736,-0.6232147,-1.0152832,-0.45772704,-1.3455689,130.0
1378,-0.12696457,0.924736,-0.6232147,-1.1087402,-0.4364868,-0.9791748,130.0
1379,0.80329895,0.10218048,0.06303787,-1.1087402,-0.4364868,-0.9791748,130.0
1380,0.80329895,0.10218048,0.06303787,-1.0609497,-0.4322388,-0.56392825,130.0
1381,1.8179703,-0.48571014,0.62409973,-1.0609497,-0.4322388,-0.56392825,130.0
1382,1.8179703,-0.48571014,0.62409973,-0.88359374,-0.43011475,-0.1263794,130.0
1383,2.6358833,-0.77345276,0.92767334,-0.88359374,-0.43011475,-0.1263794,130.0
1384,2.6358833,-0.77345276,0.92767334,-0.6053467,-0.45666504,0.3090454,130.0
1385,3.0447674,-0.83709717,0.917099,-0.6053467,-0.45666504,0.3090454,130.0
1386,3.0447674,-0.83709717,0.917099,-0.36427003,-0.49489745,0.68287355,130.0
1387,2.9637794,-0.8014641,0.626976,-0.36427003,-0.49489745,0.68287355,130.0
1388,2.9637794,-0.8014641,0.626976,-0.21558838,-0.5235718,0.9653687,130.0
1389,2.4419956,-0.7740326,0.1908989,-0.21558838,-0.5235718,0.9653687,130.0
1390,2.4419956,-0.7740326,0.1908989,-0.12000733,-0.57561034,1.1459106,130.0
1391,1.7040119,-0.7657242,-0.23365784,-0.12000733,-0.57561034,1.1459106,130.0
1392,1.7040119,-0.7657242,-0.23365784,-0.028674318,-0.635083,1.2404298,130.0
1393,1.7040119,-0.7657242,-0.23365784,-0.028674318,-0.635083,1.2404298,131.0
1394,1.0633678,-0.7407913,-0.5662842,-0.028674318,-0.635083,1.2404298,131.0
1395,1.0633678,-0.7407913,-0.5662842,0.08283692,-0.7391602,1.273352,131.0
1396,0.72742844,-0.7055855,-0.8028221,0.08283692,-0.7391602,1.273352,131.0
1397,0.72742844,-0.7055855,-0.8028221,0.22939454,-0.8358032,1.264856,131.0
1398,0.6921978,-0.6678238,-0.94651794,0.22939454,-0.8358032,1.264856,131.0
1399,0.6921978,-0.6678238,-0.94651794,0.40993652,-0.91757816,1.2425537,131.0
1400,0.7015486,-0.5883484,-1.0301971,0.40993652,-0.91757816,1.2425537,131.0
1401,0.7015486,-0.5883484,-1.0301971,0.6085327,-0.8952759,1.2149414,131.0
1402,0.48589706,-0.486866,-1.0702515,0.6085327,-0.8952759,1.2149414,131.0
1403,0.48589706,-0.486866,-1.0702515,0.83049315,-0.86553955,1.2000732,131.0
1404,0.15718651,-0.4033966,-1.0650291,0.83049315,-0.86553955,1.2000732,131.0
1405,0.15718651,-0.4033966,-1.0650291,1.0556396,-0.7678345,1.1692749,131.0
1406,-0.18145275,-0.33272934,-0.9960289,1.0556396,-0.7678345,1.1692749,131.0
1407,-0.18145275,-0.33272934,-0.9960289,1.2478638,-0.5798584,1.1055542,131.0
1408,-0.8108959,-0.22447205,-0.88648224,1.2478638,-0.5798584,1.1055542,131.0
1409,-0.8108959,-0.22447205,-0.88648224,1.3880494,-0.3727661,0.991919,131.0
1410,-1.7883778,-0.087623596,-0.7689667,1.3880494,-0.3727661,0.991919,131.0
1411,-1.7883778,-0.087623596,-0.7689667,1.3668091,-0.15930176,0.7763306,131.0
1412,-2.4638195,0.10335159,-0.620739,1.3668091,-0.15930176,0.7763306,131.0
1413,-2.4638195,0.10335159,-0.620739,1.0875,0.039294433,0.48640138,131.0
1414,-2.2396832,0.294693,-0.3257408,1.0875,0.039294433,0.48640138,131.0
1415,-2.2396832,0.294693,-0.3257408,0.60109866,0.3164795,0.18797608,131.0
1416,-2.2396832,0.294693,-0.3257408,0.08920898,0.5713623,-0.12000733,131.0
1417,-1.8156853,0.35224533,0.14298248,0.08920898,0.5713623,-0.12000733,131.0
1418,-0.7760105,-0.40066147,1.6996765,0.08920898,0.5713623,-0.12000733,131.0
1419,-0.7760105,-0.40066147,1.6996765,-0.36320803,0.6945557,-0.29417726,131.0
1420,-0.7760105,-0.40066147,1.6996765,-0.6669434,0.76677245,-0.4343628,131.0
1421,-0.7760105,-0.40066147,1.6996765,-0.8028809,0.78376466,-0.45878908,131.0
1422,-0.16721916,-0.640049,1.4565659,-0.8028809,0.78376466,-0.45878908,131.0
1423,-0.16721916,-0.640049,1.4565659,-0.72854006,0.7604004,-0.38338622,131.0
1424,-0.13248062,-0.80846405,0.91000366,-0.72854006,0.7604004,-0.38338622,131.0
1425,-0.13248062,-0.80846405,0.91000366,-0.44816896,0.6595093,-0.21558838,131.0
1426,-0.4895172,-1.008255,0.3280983,-0.44816896,0.6595093,-0.21558838,131.0
1427,-0.4895172,-1.008255,0.3280983,-0.004248047,0.4428589,-0.0053100586,131.0
1428,-0.5911617,-1.2919693,-0.15295029,-0.004248047,0.4428589,-0.0053100586,131.0
1429,-0.5911617,-1.2919693,-0.15295029,0.5713623,0.10407715,0.23364258,131.0
1430,0.20591545,-1.5069389,-0.48731232,0.5713623,0.10407715,0.23364258,131.0
1431,0.20591545,-1.5069389,-0.48731232,1.1246704,-0.098767094,0.38657227,131.0
1432,1.6395245,-1.3816605,-0.70233536,1.1246704,-0.098767094,0.38657227,131.0
1433,1.6395245,-1.3816605,-0.70233536,1.4836304,-0.23789063,0.42161867,131.0
1434,2.9861927,-0.8511658,-0.8538246,1.4836304,-0.23789063,0.42161867,131.0
1435,2.9861927,-0.8511658,-0.8538246,1.6057618,-0.2793091,0.3536499,131.0
1436,3.730629,-0.08898926,-0.83272934,1.6057618,-0.2793091,0.3536499,131.0
1437,3.730629,-0.08898926,-0.83272934,1.5303589,-0.23151855,0.1996582,131.0
1438,3.7197447,0.6623421,-0.5880089,1.5303589,-0.23151855,0.1996582,131.0
1439,3.7197447,0.6623421,-0.5880089,1.2882203,-0.16779785,-0.004248047,131.0
1440,3.215066,1.2028732,-0.30102158,1.2882203,-0.16779785,-0.004248047,131.0
1441,3.215066,1.2028732,-0.30102158,0.8963379,-0.08920898,-0.22089843,131.0
1442,2.557417,1.391571,-0.17923355,0.8963379,-0.08920898,-0.22089843,131.0
1443,2.557417,1.391571,-0.17923355,0.4439209,0.059472658,-0.41843262,131.0
1444,1.8547955,1.1098175,-0.29824448,0.4439209,0.059472658,-0.41843262,131.0
1445,1.8547955,1.1098175,-0.29824448,0.2177124,0.1444336,-0.4991455,131.0
1446,1.1363392,0.50419617,-0.6119118,0.2177124,0.1444336,-0.4991455,131.0
1447,1.1363392,0.50419617,-0.6119118,0.3164795,0.22196046,-0.5522461,131.0
1448,0.44723034,-0.0036735535,-0.92239,0.3164795,0.22196046,-0.5522461,131.0
1449,0.44723034,-0.0036735535,-0.92239,0.5522461,0.31116945,-0.6414551,131.0
1450,-0.20118713,-0.14854431,-1.0025978,0.5522461,0.31116945,-0.6414551,131.0
1451,-0.20118713,-0.14854431,-1.0025978,0.83049315,0.3971924,-0.74022216,131.0
1452,-0.8630247,0.04475403,-0.8301163,0.83049315,0.3971924,-0.74022216,131.0
1453,-0.8630247,0.04475403,-0.8301163,1.0545777,0.48533937,-0.8782837,131.0
1454,-1.6891994,0.44091797,-0.56954956,1.0545777,0.48533937,-0.8782837,131.0
1455,-1.6891994,0.44091797,-0.56954956,1.0630738,0.5479981,-1.0790039,131.0
1456,-2.5912514,0.83451843,-0.30555344,1.0630738,0.5479981,-1.0790039,131.0
1457,-2.5912514,0.83451843,-0.30555344,0.8772217,0.5533081,-1.2882203,131.0
1458,-3.0371246,1.0215454,-0.12881851,0.8772217,0.5533081,-1.2882203,131.0
1459,-3.0371246,1.0215454,-0.12881851,0.6435791,0.5150757,-1.4284058,131.0
1460,-2.856886,0.94348145,-0.20339584,0.6435791,0.5150757,-1.4284058,131.0
1461,-2.856886,0.94348145,-0.20339584,0.452417,0.5872925,-1.5069946,131.0
1462,-2.7792091,0.74614334,-0.4610443,0.452417,0.5872925,-1.5069946,131.0
1463,-2.7792091,0.74614334,-0.4610443,0.25913087,0.71154785,-1.5919555,131.0
1464,-3.3706703,0.6087799,-0.573925,0.25913087,0.71154785,-1.5919555,131.0
1465,-3.3706703,0.6087799,-0.573925,0.04991455,0.73809814,-1.632312,131.0
1466,-4.276821,0.6252556,-0.3707466,0.04991455,0.73809814,-1.632312,131.0
1467,-4.276821,0.6252556,-0.3707466,-0.16142578,0.71154785,-1.628064,131.0
1468,-4.8030605,0.7654724,-0.12919235,-0.16142578,0.71154785,-1.628064,131.0
1469,-4.8030605,0.7654724,-0.12919235,-0.26975098,0.5883545,-1.5038086,131.0
1470,-4.490299,0.8798599,-0.13283539,-0.26975098,0.5883545,-1.5038086,131.0
1471,-4.490299,0.8798599,-0.13283539,-0.26337892,0.38551027,-1.2361816,131.0
1472,-3.1468048,0.8181076,-0.23622513,-0.26337892,0.38551027,-1.2361816,131.0
1473,-3.1468048,0.8181076,-0.23622513,-0.1985962,0.27399904,-0.84536135,131.0
1474,-1.41189,0.6224785,-0.0798378,-0.1985962,0.27399904,-0.84536135,131.0
1475,-1.41189,0.6224785,-0.0798378,-0.26762697,0.20921631,-0.4248047,131.0
1476,-0.15054512,0.39678574,0.37136078,-0.26762697,0.20921631,-0.4248047,131.0
1477,-0.15054512,0.39678574,0.37136078,-0.44073486,0.10938721,0.04141846,131.0
1478,-0.15054512,0.39678574,0.37136078,-0.63614506,0.06584473,0.44179687,131.0
1479,0.3532219,0.17299652,0.69312286,-0.63614506,0.06584473,0.44179687,131.0
1480,-0.43606186,-0.18655396,-0.19103241,-0.63614506,0.06584473,0.44179687,131.0
1481,-0.43606186,-0.18655396,-0.19103241,-0.98873293,-0.15186767,0.7763306,131.0
1482,-0.43606186,-0.18655396,-0.19103241,-1.3009644,-0.40462646,1.0142212,131.0
1483,-0.43606186,-0.18655396,-0.19103241,-1.4369019,-0.6180908,1.1947632,131.0
1484,-0.43606186,-0.18655396,-0.19103241,-1.4369019,-0.6180908,1.1947632,131.0
1485,0.11289406,-0.46806717,-0.45493698,-1.4369019,-0.6180908,1.1947632,131.0
1486,0.11289406,-0.46806717,-0.45493698,-1.4326538,-0.8230591,1.3030884,131.0
1487,0.88430786,-0.7424965,-0.3800125,-1.4326538,-0.8230591,1.3030884,131.0
1488,0.88430786,-0.7424965,-0.3800125,-1.3296387,-0.9876709,1.3668091,131.0
1489,1.7880363,-0.90463257,-0.04399872,-1.3296387,-0.9876709,1.3668091,131.0
1490,1.7880363,-0.90463257,-0.04399872,-1.1469727,-1.081128,1.4347779,131.0
1491,2.736168,-0.8839874,0.43627548,-1.1469727,-1.081128,1.4347779,131.0
1492,2.736168,-0.8839874,0.43627548,-0.994043,-1.1034302,1.4931885,131.0
1493,3.5426693,-0.70131683,0.8884125,-0.994043,-1.1034302,1.4931885,131.0
1494,3.5426693,-0.70131683,0.8884125,-0.9451904,-1.0535157,1.5176147,131.0
1495,3.984953,-0.48121643,1.1720581,-0.9451904,-1.0535157,1.5176147,131.0
1496,3.984953,-0.48121643,1.1720581,-0.96643066,-0.9483765,1.5091187,131.0
1497,3.9789295,-0.30085373,1.2246819,-0.96643066,-0.9483765,1.5091187,131.0
1498,3.9789295,-0.30085373,1.2246819,-1.081128,-0.815625,1.4326538,131.0
1499,3.6058483,-0.2026329,1.0855064,-1.081128,-0.815625,1.4326538,131.0
1500,3.6058483,-0.2026329,1.0855064,-1.2563599,-0.71367186,1.3105224,131.0
1501,3.0672722,-0.21257019,0.8231659,-1.2563599,-0.71367186,1.3105224,131.0
1502,3.0672722,-0.21257019,0.8231659,-1.4326538,-0.65632325,1.1544068,131.0
1503,2.5106907,-0.3238411,0.54532623,-1.4326538,-0.65632325,1.1544068,131.0
1504,2.5106907,-0.3238411,0.54532623,-1.5664673,-0.62340087,0.9717407,131.0
1505,1.9674635,-0.4755516,0.40357208,-1.5664673,-0.62340087,0.9717407,131.0
1506,1.9674635,-0.4755516,0.40357208,-1.5792115,-0.63614506,0.8007569,131.0
1507,1.4898396,-0.6312103,0.40574646,-1.5792115,-0.63614506,0.8007569,131.0
1508,1.4898396,-0.6312103,0.40574646,-1.4156617,-0.6754395,0.65844727,131.0
1509,1.0531025,-0.7373047,0.46039963,-1.4156617,-0.6754395,0.65844727,131.0
1510,1.0531025,-0.7373047,0.46039963,-1.1321045,-0.7041138,0.541626,131.0
1511,0.55838776,-0.7439461,0.50865173,-1.1321045,-0.7041138,0.541626,131.0
1512,0.55838776,-0.7439461,0.50865173,-0.7614624,-0.7476563,0.45560303,131.0
1513,0.088689804,-0.6440735,0.50206375,-0.7614624,-0.7476563,0.45560303,131.0
1514,0.088689804,-0.6440735,0.50206375,-0.35046387,-0.80181885,0.41843262,131.0
1515,-0.21184921,-0.4960823,0.3587036,-0.35046387,-0.80181885,0.41843262,131.0
1516,-0.21184921,-0.4960823,0.3587036,0.06265869,-0.817749,0.40356445,131.0
1517,-0.47033405,-0.33015442,0.08047867,0.06265869,-0.817749,0.40356445,131.0
1518,-0.47033405,-0.33015442,0.08047867,0.40993652,-0.77102053,0.36427003,131.0
1519,-0.97579193,-0.14227295,-0.205307,0.40993652,-0.77102053,0.36427003,131.0
1520,-0.97579193,-0.14227295,-0.205307,0.6573853,-0.68499756,0.3175415,131.0
1521,-1.6982975,0.024475098,-0.3638916,0.6573853,-0.68499756,0.3175415,131.0
1522,-1.6982975,0.024475098,-0.3638916,0.80606693,-0.64570314,0.25806886,131.0
1523,-2.088253,0.10992432,-0.41001892,0.80606693,-0.64570314,0.25806886,131.0
1524,-2.088253,0.10992432,-0.41001892,0.89421386,-0.60959476,0.20072022,131.0
1525,-1.9453087,0.12295151,-0.4099121,0.89421386,-0.60959476,0.20072022,131.0
1526,-1.9453087,0.12295151,-0.4099121,0.9674927,-0.44816896,0.08920898,131.0
1527,-1.3628864,0.13001251,-0.36541748,0.9674927,-0.44816896,0.08920898,131.0
1528,-1.3628864,0.13001251,-0.36541748,0.9855469,-0.36002198,0.0,131.0
1529,-0.49663162,0.15184784,-0.2686386,0.9855469,-0.36002198,0.0,131.0
1530,-0.49663162,0.15184784,-0.2686386,0.9632446,-0.13062744,-0.14868164,131.0
1531,0.27063942,0.2163887,-0.12696838,0.9632446,-0.13062744,-0.14868164,131.0
1532,0.27063942,0.2163887,-0.12696838,0.85491943,0.045666505,-0.31860352,131.0
1533,0.27063942,0.2163887,-0.12696838,0.61065674,0.270813,-0.4970215,131.0
1534,0.7895336,0.35253143,0.07827377,0.61065674,0.270813,-0.4970215,131.0
1535,0.035814285,0.54504776,0.72751236,0.61065674,0.270813,-0.4970215,131.0
1536,0.035814285,0.54504776,0.72751236,0.30267334,0.45029297,-0.6637573,131.0
1537,0.035814285,0.54504776,0.72751236,0.10301514,0.5564942,-0.77951664,131.0
1538,0.035814285,0.54504776,0.72751236,0.0010620117,0.62552494,-0.84748536,131.0
1539,-0.34661674,0.42349243,0.5825844,0.0010620117,0.62552494,-0.84748536,131.0
1540,-0.34661674,0.42349243,0.5825844,0.009558106,0.63614506,-0.8464233,131.0
1541,-0.4294052,0.28955078,0.39187622,0.009558106,0.63614506,-0.8464233,131.0
1542,-0.4294052,0.28955078,0.39187622,0.1359375,0.58410645,-0.7742066,131.0
1543,-0.0584774,0.0966301,0.16656494,0.1359375,0.58410645,-0.7742066,131.0
1544,-0.0584774,0.0966301,0.16656494,0.39082032,0.48321533,-0.6403931,131.0
1545,0.8158283,-0.07831192,-0.07407379,0.39082032,0.48321533,-0.6403931,131.0
1546,0.8158283,-0.07831192,-0.07407379,0.6531372,0.41312256,-0.4800293,131.0
1547,1.8488903,-0.09074783,-0.24141312,0.6531372,0.41312256,-0.4800293,131.0
1548,1.8488903,-0.09074783,-0.24141312,0.76677245,0.3971924,-0.3419678,131.0
1549,2.5490093,0.041488647,-0.26186752,0.76677245,0.3971924,-0.3419678,131.0
1550,2.5490093,0.041488647,-0.26186752,0.7742066,0.44923097,-0.2357666,131.0
1551,2.567443,0.1713028,-0.11488724,0.7742066,0.44923097,-0.2357666,131.0
1552,2.567443,0.1713028,-0.11488724,0.68924564,0.5076416,-0.19541016,131.0
1553,1.9832268,0.18556595,0.042453766,0.68924564,0.5076416,-0.19541016,131.0
1554,1.9832268,0.18556595,0.042453766,0.58198243,0.49489745,-0.22408448,131.0
1555,1.2880955,0.06237793,-0.032161713,0.58198243,0.49489745,-0.22408448,131.0
1556,1.2880955,0.06237793,-0.032161713,0.5299439,0.48533937,-0.30267334,131.0
1557,0.76481533,-0.101501465,-0.31990814,0.5299439,0.48533937,-0.30267334,131.0
1558,0.76481533,-0.101501465,-0.31990814,0.5607422,0.49277344,-0.42692873,131.0
1559,0.29114914,-0.2257309,-0.6378479,0.5607422,0.49277344,-0.42692873,131.0
1560,0.29114914,-0.2257309,-0.6378479,0.67225343,0.5129517,-0.60322267,131.0
1561,-0.28547668,-0.27007294,-0.8332138,0.67225343,0.5129517,-0.60322267,131.0
1562,-0.28547668,-0.27007294,-0.8332138,0.83898926,0.5479981,-0.83474123,131.0
1563,-1.0165291,-0.19194794,-0.832634,0.83898926,0.5479981,-0.83474123,131.0
1564,-1.0165291,-0.19194794,-0.832634,0.99510497,0.5787964,-1.1119263,131.0
1565,-1.7632961,0.015094757,-0.6851387,0.99510497,0.5787964,-1.1119263,131.0
1566,-1.7632961,0.015094757,-0.6851387,1.1108643,0.60109866,-1.3986695,131.0
1567,-2.2399578,0.2948532,-0.44360733,1.1108643,0.60109866,-1.3986695,131.0
1568,-2.2399578,0.2948532,-0.44360733,1.1692749,0.63614506,-1.6365601,131.0
1569,-2.404234,0.56269836,-0.17549133,1.1692749,0.63614506,-1.6365601,131.0
1570,-2.404234,0.56269836,-0.17549133,1.1055542,0.68287355,-1.803296,131.0
1571,-2.4829082,0.73874664,0.025512695,1.1055542,0.68287355,-1.803296,131.0
1572,-2.4829082,0.73874664,0.025512695,0.9133301,0.7657105,-1.905249,131.0
1573,-2.7795143,0.81508255,0.11394119,0.9133301,0.7657105,-1.905249,131.0
1574,-2.7795143,0.81508255,0.11394119,0.6064087,0.84748536,-1.9625977,131.0
1575,-3.4086208,0.7924118,0.076114655,0.6064087,0.84748536,-1.9625977,131.0
1576,-3.4086208,0.7924118,0.076114655,0.2793091,0.8857178,-1.9700317,131.0
