,accx,accy,accz,gyrox,gyroy,gyroz,heart rate
0,walk,walk,walk,walk,walk,walk,walk
1,-1.0356445,-49.38228,42.12771,0.0,0.0,0.0,0.0
2,-1.0356445,-49.38228,42.12771,-0.007434082,0.060534667,-0.008496094,0.0
3,-1.0356445,-49.38228,42.12771,0.039294433,0.060534667,-0.010620117,0.0
4,-0.8587159,-39.580566,33.70174,0.039294433,0.060534667,-0.010620117,0.0
5,-0.7018043,-31.69873,26.887894,0.039294433,0.060534667,-0.010620117,0.0
6,-0.7018043,-31.69873,26.887894,0.070092775,0.059472658,-0.007434082,0.0
7,-0.55791557,-25.376,21.388172,0.070092775,0.059472658,-0.007434082,0.0
8,-0.55791557,-25.376,21.388172,0.07752686,0.04141846,0.0180542,0.0
9,-0.42855906,-20.289143,17.001797,0.07752686,0.04141846,0.0180542,0.0
10,-0.42855906,-20.289143,17.001797,0.06478272,0.016992187,0.027612304,0.0
11,-0.31613827,-16.179749,13.57468,0.06478272,0.016992187,0.027612304,0.0
12,-0.31613827,-16.179749,13.57468,0.02442627,0.0010620117,0.028674318,0.0
13,-0.23801804,-12.893459,10.893425,0.02442627,0.0010620117,0.028674318,0.0
14,-0.23801804,-12.893459,10.893425,-0.011682129,-0.011682129,0.020178223,0.0
15,-0.19822693,-10.307995,8.78117,-0.011682129,-0.011682129,0.020178223,0.0
16,-0.19822693,-10.307995,8.78117,-0.047790527,-0.016992187,0.019116212,0.0
17,-0.16263425,-8.267975,7.105892,-0.047790527,-0.016992187,0.019116212,0.0
18,-0.16263425,-8.267975,7.105892,-0.053100586,-0.008496094,0.026550293,0.0
19,-0.13433099,-6.624256,5.7387543,-0.053100586,-0.008496094,0.026550293,0.0
20,-0.13433099,-6.624256,5.7387543,-0.050976563,-0.008496094,0.022302246,0.0
21,-0.10503566,-5.2890778,4.5991707,-0.050976563,-0.008496094,0.022302246,0.0
22,-0.10503566,-5.2890778,4.5991707,-0.0541626,-0.008496094,0.009558106,0.0
23,-0.07786405,-4.2239265,3.6631508,-0.0541626,-0.008496094,0.009558106,0.0
24,-0.07786405,-4.2239265,3.6631508,-0.032922365,-0.010620117,0.013806152,0.0
25,-0.06741822,-3.3941078,2.9317932,-0.032922365,-0.010620117,0.013806152,0.0
26,-0.06741822,-3.3941078,2.9317932,-0.021240234,-0.008496094,0.014868164,0.0
27,-0.07045066,-2.737358,2.3799057,-0.021240234,-0.008496094,0.014868164,0.0
28,-0.07045066,-2.737358,2.3799057,-0.0063720704,-0.0031860352,0.015930176,0.0
29,-0.038086653,-2.1960983,1.93676,-0.0063720704,-0.0031860352,0.015930176,0.0
30,-0.038086653,-2.1960983,1.93676,0.009558106,0.007434082,0.016992187,0.0
31,0.009862781,-1.7284126,1.5454559,0.009558106,0.007434082,0.016992187,0.0
32,0.009862781,-1.7284126,1.5454559,0.0063720704,0.010620117,0.014868164,0.0
33,0.025114298,-1.3534088,1.2042961,0.0063720704,0.010620117,0.014868164,0.0
34,0.025114298,-1.3534088,1.2042961,0.0031860352,0.0021240234,0.0053100586,0.0
35,0.021727204,-1.0797958,0.9196129,0.0031860352,0.0021240234,0.0053100586,0.0
36,0.021727204,-1.0797958,0.9196129,0.010620117,-0.0063720704,0.004248047,0.0
37,0.015343189,-0.871685,0.6902199,0.010620117,-0.0063720704,0.004248047,0.0
38,0.015343189,-0.871685,0.6902199,0.0180542,-0.015930176,0.0021240234,0.0
39,-0.0021663904,-0.7122879,0.5419693,0.0180542,-0.015930176,0.0021240234,0.0
40,-0.0021663904,-0.7122879,0.5419693,0.0063720704,-0.007434082,-0.0031860352,0.0
41,-0.0021663904,-0.7122879,0.5419693,0.0063720704,-0.007434082,-0.0031860352,96.0
42,-0.007861018,-0.5898514,0.47418594,0.0063720704,-0.007434082,-0.0031860352,96.0
43,-0.007861018,-0.5898514,0.47418594,0.0053100586,-0.0021240234,0.0053100586,96.0
44,-0.0057150126,-0.46785355,0.42373657,0.0053100586,-0.0021240234,0.0053100586,96.0
45,-0.0057150126,-0.46785355,0.42373657,0.007434082,-0.0031860352,-0.008496094,96.0
46,-0.004572034,-0.35092926,0.3383026,0.007434082,-0.0031860352,-0.008496094,96.0
47,-0.004572034,-0.35092926,0.3383026,-0.0031860352,-0.004248047,-0.011682129,96.0
48,-0.018977404,-0.27307892,0.24000168,-0.0031860352,-0.004248047,-0.011682129,96.0
49,-0.018977404,-0.27307892,0.24000168,-0.007434082,-0.0031860352,-0.008496094,96.0
50,-0.04200077,-0.24500275,0.17232513,-0.007434082,-0.0031860352,-0.008496094,96.0
51,-0.04200077,-0.24500275,0.17232513,0.0010620117,0.0,-0.0031860352,96.0
52,-0.05122757,-0.23861694,0.1355896,0.0010620117,0.0,-0.0031860352,96.0
53,-0.05122757,-0.23861694,0.1355896,0.016992187,0.0021240234,0.0063720704,96.0
54,-0.03855288,-0.19905853,0.09675217,0.016992187,0.0021240234,0.0063720704,96.0
55,-0.03855288,-0.19905853,0.09675217,0.035046387,0.0021240234,0.013806152,96.0
56,-0.03855288,-0.19905853,0.09675217,0.027612304,-0.0031860352,0.019116212,96.0
57,-0.027790546,-0.122161865,0.06951904,0.027612304,-0.0031860352,0.019116212,96.0
58,-0.011990666,-0.03868103,0.058288574,0.027612304,-0.0031860352,0.019116212,96.0
59,-0.011990666,-0.03868103,0.058288574,0.0,-0.0010620117,0.011682129,96.0
60,-0.004074931,0.001663208,0.058120728,0.0,-0.0010620117,0.011682129,96.0
61,-0.004074931,0.001663208,0.058120728,-0.012744141,-0.0031860352,0.0031860352,96.0
62,0.0017205477,-0.015281677,0.05416107,-0.012744141,-0.0031860352,0.0031860352,96.0
63,0.0017205477,-0.015281677,0.05416107,-0.011682129,-0.0053100586,0.0,96.0
64,0.010836959,-0.06755829,0.031303406,-0.011682129,-0.0053100586,0.0,96.0
65,0.010836959,-0.06755829,0.031303406,0.0010620117,-0.0010620117,0.008496094,96.0
66,0.015017271,-0.09414673,-0.0113220215,0.0010620117,-0.0010620117,0.008496094,96.0
67,0.015017271,-0.09414673,-0.0113220215,0.009558106,-0.0053100586,0.014868164,96.0
68,0.007631421,-0.077625275,-0.046058655,0.009558106,-0.0053100586,0.014868164,96.0
69,0.007631421,-0.077625275,-0.046058655,0.010620117,-0.012744141,0.021240234,96.0
70,-0.004380703,-0.077819824,-0.058181763,0.010620117,-0.012744141,0.021240234,96.0
71,-0.004380703,-0.077819824,-0.058181763,-0.0010620117,-0.012744141,0.035046387,96.0
72,-0.017908812,-0.12420654,-0.052757263,-0.0010620117,-0.012744141,0.035046387,96.0
73,-0.017908812,-0.12420654,-0.052757263,0.004248047,-0.022302246,0.087084964,96.0
74,-0.033687472,-0.1959343,-0.016098022,0.004248047,-0.022302246,0.087084964,96.0
75,-0.033687472,-0.1959343,-0.016098022,-0.0010620117,-0.014868164,0.107263185,96.0
76,-0.030831814,-0.24037933,0.012973785,-0.0010620117,-0.014868164,0.107263185,96.0
77,-0.030831814,-0.24037933,0.012973785,0.027612304,-0.019116212,0.14337158,96.0
78,-0.004633665,-0.11404419,0.038909912,0.027612304,-0.019116212,0.14337158,96.0
79,-0.004633665,-0.11404419,0.038909912,0.019116212,-0.06265869,0.1709839,96.0
80,0.038822412,0.16796875,0.08882904,0.019116212,-0.06265869,0.1709839,96.0
81,0.038822412,0.16796875,0.08882904,-0.060534667,-0.06159668,0.14124756,96.0
82,0.038822412,0.16796875,0.08882904,-0.08602295,-0.038232423,0.11257324,96.0
83,0.09949064,0.3077774,0.119026184,-0.08602295,-0.038232423,0.11257324,96.0
84,0.16947293,0.1991539,0.10209274,-0.08602295,-0.038232423,0.11257324,96.0
85,0.16947293,0.1991539,0.10209274,-0.0541626,-0.0180542,0.059472658,96.0
86,0.20891821,0.0051002502,0.041721344,-0.0541626,-0.0180542,0.059472658,96.0
87,0.20891821,0.0051002502,0.041721344,0.02442627,0.0,0.07965088,96.0
88,0.17967117,-0.060775757,-0.0023880005,0.02442627,0.0,0.07965088,96.0
89,0.17967117,-0.060775757,-0.0023880005,0.057348635,0.0053100586,0.0722168,96.0
90,0.15709138,0.040454865,0.017936707,0.057348635,0.0053100586,0.0722168,96.0
91,0.15709138,0.040454865,0.017936707,0.060534667,0.0053100586,0.043542482,96.0
92,0.17889571,0.14220428,0.047542572,0.060534667,0.0053100586,0.043542482,96.0
93,0.17889571,0.14220428,0.047542572,0.03717041,0.0063720704,0.013806152,96.0
94,0.22396374,0.12969208,0.043712616,0.03717041,0.0063720704,0.013806152,96.0
95,0.22396374,0.12969208,0.043712616,0.014868164,0.011682129,-0.0053100586,96.0
96,0.2352745,0.032756805,0.015460968,0.014868164,0.011682129,-0.0053100586,96.0
97,0.2352745,0.032756805,0.015460968,0.013806152,0.012744141,-0.023364259,96.0
98,0.25096375,-0.042800903,-0.02394867,0.013806152,0.012744141,-0.023364259,96.0
99,0.25096375,-0.042800903,-0.02394867,0.03717041,0.020178223,-0.025488282,96.0
100,0.25096375,-0.042800903,-0.02394867,0.04991455,0.014868164,-0.028674318,96.0
101,0.2946309,-0.022632599,-0.045345306,0.04991455,0.014868164,-0.028674318,96.0
102,0.40234292,0.1393776,-0.03885269,0.04991455,0.014868164,-0.028674318,96.0
103,0.40234292,0.1393776,-0.03885269,0.008496094,0.009558106,-0.08602295,96.0
104,0.5765496,0.3530693,-0.05443573,0.008496094,0.009558106,-0.08602295,96.0
105,0.5765496,0.3530693,-0.05443573,-0.098767094,0.007434082,-0.16885987,96.0
106,0.7769868,0.4386673,-0.17727661,-0.098767094,0.007434082,-0.16885987,96.0
107,0.7769868,0.4386673,-0.17727661,-0.16779785,-0.033984374,-0.26337892,96.0
108,1.0293165,0.43362427,-0.4181633,-0.16779785,-0.033984374,-0.26337892,96.0
109,1.0293165,0.43362427,-0.4181633,-0.2538208,-0.07115479,-0.36851808,96.0
110,1.2620397,0.4745865,-0.7421608,-0.2538208,-0.07115479,-0.36851808,96.0
111,1.2620397,0.4745865,-0.7421608,-0.39400634,-0.07646485,-0.4991455,96.0
112,1.3173587,0.6018257,-1.0966606,-0.39400634,-0.07646485,-0.4991455,96.0
113,1.3173587,0.6018257,-1.0966606,-0.67650145,-0.039294433,-0.70092773,96.0
114,1.0984182,0.6877823,-1.4506454,-0.67650145,-0.039294433,-0.70092773,96.0
115,1.0984182,0.6877823,-1.4506454,-1.1618408,-0.010620117,-0.991919,96.0
116,0.7469475,0.5048523,-1.6492615,-1.1618408,-0.010620117,-0.991919,96.0
117,0.7469475,0.5048523,-1.6492615,-1.5781494,-0.027612304,-1.2255615,96.0
118,0.414477,0.12194824,-1.4495506,-1.5781494,-0.027612304,-1.2255615,96.0
119,0.414477,0.12194824,-1.4495506,-1.992334,-0.11257324,-1.445398,96.0
120,0.032643557,-0.20075607,-0.7828827,-1.992334,-0.11257324,-1.445398,96.0
121,0.032643557,-0.20075607,-0.7828827,-2.4925416,-0.2177124,-1.7650635,96.0
122,-0.3870566,-0.59228516,0.18204498,-2.4925416,-0.2177124,-1.7650635,96.0
123,-0.3870566,-0.59228516,0.18204498,-2.9194703,-0.32072756,-2.0337524,96.0
124,-0.8016131,-1.2302856,1.1852608,-2.9194703,-0.32072756,-2.0337524,96.0
125,-0.8016131,-1.2302856,1.1852608,-2.7760987,-0.3812622,-2.2748291,96.0
126,-1.0945009,-1.8492813,1.973671,-2.7760987,-0.3812622,-2.2748291,96.0
127,-1.0945009,-1.8492813,1.973671,-2.6614015,-0.4354248,-2.4946656,96.0
128,-1.0936549,-2.2309265,2.2737732,-2.6614015,-0.4354248,-2.4946656,96.0
129,-1.0936549,-2.2309265,2.2737732,-2.52865,-0.4067505,-2.6475952,96.0
130,-1.0202731,-2.1279297,2.0815659,-2.52865,-0.4067505,-2.6475952,96.0
131,-1.0202731,-2.1279297,2.0815659,-2.3884645,-0.36851808,-2.698572,96.0
132,-0.80232686,-2.404026,1.5585518,-2.3884645,-0.36851808,-2.698572,96.0
133,-0.80232686,-2.404026,1.5585518,-1.7618774,-0.36108398,-2.703882,96.0
134,-0.88019156,-1.9108429,1.3027725,-1.7618774,-0.36108398,-2.703882,96.0
135,-0.88019156,-1.9108429,1.3027725,-1.6206299,-0.36427003,-2.7368042,96.0
136,-0.88019156,-1.9108429,1.3027725,-1.6206299,-0.36427003,-2.7368042,97.0
137,-1.0117216,-0.9608383,0.97720337,-1.6206299,-0.36427003,-2.7368042,97.0
138,-1.0117216,-0.9608383,0.97720337,-1.4984986,-0.43117675,-3.0150514,97.0
139,-1.021682,-0.5221939,0.8551483,-1.4984986,-0.43117675,-3.0150514,97.0
140,-1.021682,-0.5221939,0.8551483,-1.5346069,-0.41737062,-3.0978882,97.0
141,-0.6629877,-0.13345337,0.869812,-1.5346069,-0.41737062,-3.0978882,97.0
142,-0.6629877,-0.13345337,0.869812,-1.7894897,-0.33134767,-3.3102906,97.0
143,-0.67669153,-0.20001984,0.91319656,-1.7894897,-0.33134767,-3.3102906,97.0
144,-0.67669153,-0.20001984,0.91319656,-1.8903809,-0.2899292,-3.3910034,97.0
145,-0.43275952,-0.49352264,0.6323738,-1.8903809,-0.2899292,-3.3910034,97.0
146,-0.43275952,-0.49352264,0.6323738,-2.2111084,-0.11363526,-3.7478395,97.0
147,-0.60721827,-0.5818329,0.5007248,-2.2111084,-0.11363526,-3.7478395,97.0
148,-0.60721827,-0.5818329,0.5007248,-2.2461548,-0.046728518,-3.8561647,97.0
149,-0.627254,-0.8932495,0.030841827,-2.2461548,-0.046728518,-3.8561647,97.0
150,-0.627254,-0.8932495,0.030841827,-2.3874023,0.04991455,-4.0802493,97.0
151,-0.77876854,-1.1388168,0.14506912,-2.3874023,0.04991455,-4.0802493,97.0
152,-0.77876854,-1.1388168,0.14506912,-2.3396118,0.04460449,-4.156714,97.0
153,-0.43373263,-2.0286102,0.097587585,-2.3396118,0.04460449,-4.156714,97.0
154,-0.43373263,-2.0286102,0.097587585,-2.090039,0.050976563,-4.2204347,97.0
155,-0.49963498,-2.0289764,0.16776657,-2.090039,0.050976563,-4.2204347,97.0
156,-0.49963498,-2.0289764,0.16776657,-2.1102173,0.03717041,-4.2905273,97.0
157,-0.30083108,-1.7294235,-0.061317444,-2.1102173,0.03717041,-4.2905273,97.0
158,-0.30083108,-1.7294235,-0.061317444,-2.2960694,-0.052038576,-4.4466434,97.0
159,0.02018714,-1.300972,-0.47842407,-2.2960694,-0.052038576,-4.4466434,97.0
160,0.02018714,-1.300972,-0.47842407,-3.07771,-0.17947999,-4.5485964,97.0
161,0.6856322,-1.4014816,-0.9471817,-3.07771,-0.17947999,-4.5485964,97.0
162,0.6856322,-1.4014816,-0.9471817,-4.620813,-0.16567384,-4.720642,97.0
163,1.5275097,-2.5017395,-1.40942,-4.620813,-0.16567384,-4.720642,97.0
164,1.5275097,-2.5017395,-1.40942,-5.9366455,-0.0021240234,-4.8597655,97.0
165,2.2565048,-4.5061035,-1.6552696,-5.9366455,-0.0021240234,-4.8597655,97.0
166,2.2565048,-4.5061035,-1.6552696,-5.8400025,0.13381349,-4.976587,97.0
167,2.733573,-6.351967,-1.4456253,-5.8400025,0.13381349,-4.976587,97.0
168,2.733573,-6.351967,-1.4456253,-4.972339,0.025488282,-5.1135864,97.0
169,3.3880181,-6.627716,-0.7574539,-4.972339,0.025488282,-5.1135864,97.0
170,3.3880181,-6.627716,-0.7574539,-3.8720949,-0.23045655,-4.911804,97.0
171,3.136147,-5.7007294,-0.49642944,-3.8720949,-0.23045655,-4.911804,97.0
172,3.136147,-5.7007294,-0.49642944,-3.361267,-0.34833986,-4.8087893,97.0
173,2.876105,-3.670433,0.14530182,-3.361267,-0.34833986,-4.8087893,97.0
174,2.876105,-3.670433,0.14530182,-2.1314576,-0.6956177,-4.1322875,97.0
175,2.6265554,-2.653679,0.18959045,-2.1314576,-0.6956177,-4.1322875,97.0
176,2.6265554,-2.653679,0.18959045,-1.6641724,-0.7476563,-3.8742187,97.0
177,2.433105,-0.7564621,-0.19363785,-1.6641724,-0.7476563,-3.8742187,97.0
178,2.433105,-0.7564621,-0.19363785,-0.25806886,-0.721106,-2.9608886,97.0
179,2.0180902,-0.33531952,-0.5697937,-0.25806886,-0.721106,-2.9608886,97.0
180,2.0180902,-0.33531952,-0.5697937,-0.19116211,-0.65844727,-2.6444092,97.0
181,1.0740547,-0.0772171,-1.425209,-0.19116211,-0.65844727,-2.6444092,97.0
182,1.0740547,-0.0772171,-1.425209,-0.32072756,-0.5787964,-1.8871949,97.0
183,-0.060189724,-0.18940735,-1.9370804,-0.32072756,-0.5787964,-1.8871949,97.0
184,-0.060189724,-0.18940735,-1.9370804,-0.67331547,-0.4704712,-1.3041505,97.0
185,-0.9434154,-0.2156372,-1.9654236,-0.67331547,-0.4704712,-1.3041505,97.0
186,-0.9434154,-0.2156372,-1.9654236,-1.0439576,-0.37701416,-0.90695804,97.0
187,-1.4466269,-0.14308167,-1.6518784,-1.0439576,-0.37701416,-0.90695804,97.0
188,-1.4466269,-0.14308167,-1.6518784,-1.3816773,-0.28461915,-0.6435791,97.0
189,-1.6296282,-0.12751007,-1.2487144,-1.3816773,-0.28461915,-0.6435791,97.0
190,-1.6296282,-0.12751007,-1.2487144,-1.6185058,-0.23364258,-0.44604492,97.0
191,-1.6260169,-0.28862,-0.9567108,-1.6185058,-0.23364258,-0.44604492,97.0
192,-1.6260169,-0.28862,-0.9567108,-1.7353271,-0.20390625,-0.31966552,97.0
193,-1.3960161,-0.56066895,-0.74337006,-1.7353271,-0.20390625,-0.31966552,97.0
194,-1.3960161,-0.56066895,-0.74337006,-1.7427613,-0.18585205,-0.21558838,97.0
195,-0.9905555,-0.77697754,-0.5202446,-1.7427613,-0.18585205,-0.21558838,97.0
196,-0.9905555,-0.77697754,-0.5202446,-1.7576294,-0.14549561,-0.1539917,97.0
197,-0.5325446,-0.9337311,-0.30506134,-1.7576294,-0.14549561,-0.1539917,97.0
198,-0.5325446,-0.9337311,-0.30506134,-1.6992188,-0.121069334,-0.12956543,97.0
199,-0.12109184,-1.0254898,-0.15646362,-1.6992188,-0.121069334,-0.12956543,97.0
200,-0.12109184,-1.0254898,-0.15646362,-1.4698242,-0.1263794,-0.0722168,97.0
201,0.19852448,-0.96647644,-0.09611511,-1.4698242,-0.1263794,-0.0722168,97.0
202,0.19852448,-0.96647644,-0.09611511,-1.2404298,-0.13275146,0.026550293,97.0
203,0.41503286,-0.67881775,-0.069675446,-1.2404298,-0.13275146,0.026550293,97.0
204,0.41503286,-0.67881775,-0.069675446,-1.1416626,-0.0998291,0.121069334,97.0
205,0.49556398,-0.19084167,-0.057926178,-1.1416626,-0.0998291,0.121069334,97.0
206,0.49556398,-0.19084167,-0.057926178,-0.92076415,-0.0361084,0.20921631,97.0
207,0.44825792,0.35066223,-0.108680725,-0.92076415,-0.0361084,0.20921631,97.0
208,0.44825792,0.35066223,-0.108680725,-0.99510497,-0.043542482,0.13487549,97.0
209,0.3870976,0.50325775,-0.21798706,-0.99510497,-0.043542482,0.13487549,97.0
210,0.3870976,0.50325775,-0.21798706,-1.2499878,-0.011682129,0.04248047,97.0
211,0.42557168,0.27355194,-0.26394272,-1.2499878,-0.011682129,0.04248047,97.0
212,0.42557168,0.27355194,-0.26394272,-1.6036377,0.023364259,-0.16142578,97.0
213,0.597867,-0.10181427,-0.26182556,-1.6036377,0.023364259,-0.16142578,97.0
214,0.597867,-0.10181427,-0.26182556,-1.7332032,0.07965088,-0.31010744,97.0
215,0.8854103,-0.49359894,-0.30149078,-1.7332032,0.07965088,-0.31010744,97.0
216,0.8854103,-0.49359894,-0.30149078,-1.9275513,0.14124756,-0.4598511,97.0
217,1.2775664,-0.7973099,-0.40086365,-1.9275513,0.14124756,-0.4598511,97.0
218,1.2775664,-0.7973099,-0.40086365,-2.2461548,0.1985962,-0.5522461,97.0
219,1.9113965,-1.0628738,-0.61938477,-2.2461548,0.1985962,-0.5522461,97.0
220,1.9113965,-1.0628738,-0.61938477,-2.6550293,0.23682861,-0.5246338,97.0
221,2.9655185,-1.1793747,-1.0812759,-2.6550293,0.23682861,-0.5246338,97.0
222,2.9655185,-1.1793747,-1.0812759,-3.1106324,0.270813,-0.41949463,97.0
223,3.5370388,-1.0659103,-1.6728554,-3.1106324,0.270813,-0.41949463,97.0
224,3.5370388,-1.0659103,-1.6728554,-3.5577393,0.542688,-0.47365722,97.0
225,2.1297655,-0.8838196,-2.0433884,-3.5577393,0.542688,-0.47365722,97.0
226,2.1297655,-0.8838196,-2.0433884,-3.7435913,0.72641605,-0.8336792,97.0
227,-0.79648066,-0.86946106,-2.0254822,-3.7435913,0.72641605,-0.8336792,97.0
228,-0.79648066,-0.86946106,-2.0254822,-3.1817873,0.5533081,-0.9897949,97.0
229,-2.8928485,-0.89801025,-1.7594833,-3.1817873,0.5533081,-0.9897949,97.0
230,-2.8928485,-0.89801025,-1.7594833,-1.9222412,0.1996582,-0.996167,97.0
231,-2.9609585,-0.6671982,-1.4582214,-1.9222412,0.1996582,-0.996167,97.0
232,-2.9609585,-0.6671982,-1.4582214,-1.2489258,-0.02442627,-0.8602295,97.0
233,-1.7595506,-0.15042114,-1.1762695,-1.2489258,-0.02442627,-0.8602295,97.0
234,-1.7595506,-0.15042114,-1.1762695,-0.73809814,-0.090270996,-0.7508423,97.0
235,-0.5850942,0.47535706,-1.0889053,-0.73809814,-0.090270996,-0.7508423,97.0
236,-0.5850942,0.47535706,-1.0889053,-0.7848267,-0.0063720704,-0.72004396,97.0
237,-0.5850942,0.47535706,-1.0889053,-0.7848267,-0.0063720704,-0.72004396,97.0
238,-0.087631226,0.90502167,-1.2763138,-0.7848267,-0.0063720704,-0.72004396,97.0
239,-0.087631226,0.90502167,-1.2763138,-1.083252,0.046728518,-0.6711914,97.0
240,-0.05455327,0.87989044,-1.564373,-1.083252,0.046728518,-0.6711914,97.0
241,-0.05455327,0.87989044,-1.564373,-1.359375,0.070092775,-0.65844727,97.0
242,-0.09569359,0.39704132,-1.6758385,-1.359375,0.070092775,-0.65844727,97.0
243,-0.09569359,0.39704132,-1.6758385,-1.4974365,0.098767094,-0.7051758,97.0
244,-0.09327865,-0.2880478,-1.5713615,-1.4974365,0.098767094,-0.7051758,97.0
245,-0.09327865,-0.2880478,-1.5713615,-1.5271729,0.1263794,-0.73597413,97.0
246,-0.09401989,-0.84601593,-1.4270134,-1.5271729,0.1263794,-0.73597413,97.0
247,-0.09401989,-0.84601593,-1.4270134,-1.5006226,0.10938721,-0.75615233,97.0
248,-0.08017206,-1.1920471,-1.2675171,-1.5006226,0.10938721,-0.75615233,97.0
249,-0.08017206,-1.1920471,-1.2675171,-1.2956543,0.0361084,-0.75721437,97.0
250,0.043186665,-1.3716888,-0.8826294,-1.2956543,0.0361084,-0.75721437,97.0
251,0.043186665,-1.3716888,-0.8826294,-0.8878418,-0.03717041,-0.721106,97.0
252,0.30762076,-1.4040527,-0.25200272,-0.8878418,-0.03717041,-0.721106,97.0
253,0.30762076,-1.4040527,-0.25200272,-0.4258667,-0.083898924,-0.70198977,97.0
254,0.5939727,-1.3614502,0.3325386,-0.4258667,-0.083898924,-0.70198977,97.0
255,0.5939727,-1.3614502,0.3325386,0.010620117,-0.09664307,-0.727478,97.0
256,0.78910637,-1.2877808,0.6250992,0.010620117,-0.09664307,-0.727478,97.0
257,0.78910637,-1.2877808,0.6250992,0.35471192,-0.08496094,-0.72004396,97.0
258,0.9471421,-1.1070557,0.6687546,0.35471192,-0.08496094,-0.72004396,97.0
259,0.9471421,-1.1070557,0.6687546,0.65207523,-0.1178833,-0.60216063,97.0
260,1.2964954,-0.7381592,0.629509,0.65207523,-0.1178833,-0.60216063,97.0
261,1.2964954,-0.7381592,0.629509,0.8379273,-0.15717773,-0.43754885,97.0
262,1.8353043,-0.32559204,0.54351044,0.8379273,-0.15717773,-0.43754885,97.0
263,1.8353043,-0.32559204,0.54351044,0.88359374,-0.1444336,-0.27506104,97.0
264,2.2228947,-0.052253723,0.44963837,0.88359374,-0.1444336,-0.27506104,97.0
265,2.2228947,-0.052253723,0.44963837,0.8050049,-0.10301514,-0.14549561,97.0
266,2.2536821,0.048355103,0.47141647,0.8050049,-0.10301514,-0.14549561,97.0
267,2.2536821,0.048355103,0.47141647,0.7593384,-0.032922365,-0.027612304,97.0
268,1.7981853,0.08406067,0.62345886,0.7593384,-0.032922365,-0.027612304,97.0
269,1.7981853,0.08406067,0.62345886,0.7083618,0.087084964,0.095581055,97.0
270,1.0676746,0.15327454,0.75483704,0.7083618,0.087084964,0.095581055,97.0
271,1.0676746,0.15327454,0.75483704,0.62977296,0.081774905,0.24320069,97.0
272,1.0413952,0.0721817,0.68857193,0.62977296,0.081774905,0.24320069,97.0
273,1.0413952,0.0721817,0.68857193,0.71579593,0.045666505,0.39400634,97.0
274,1.7512684,-0.1835022,0.5636139,0.71579593,0.045666505,0.39400634,97.0
275,1.7512684,-0.1835022,0.5636139,1.1023682,0.24213867,0.60109866,97.0
276,1.5202894,-0.14156342,0.56843185,1.1023682,0.24213867,0.60109866,97.0
277,1.5202894,-0.14156342,0.56843185,1.6779785,0.47684327,0.8708496,97.0
278,-0.1336708,0.465477,0.5128021,1.6779785,0.47684327,0.8708496,97.0
279,-0.1336708,0.465477,0.5128021,2.1505737,0.5363159,1.170337,97.0
280,-1.6307282,1.1441574,0.222435,2.1505737,0.5363159,1.170337,97.0
281,-1.6307282,1.1441574,0.222435,2.3151855,0.5479981,1.4846925,97.0
282,-1.8334398,1.3850937,-0.1143837,2.3151855,0.5479981,1.4846925,97.0
283,-1.8334398,1.3850937,-0.1143837,2.3003175,0.61065674,1.7873658,97.0
284,-1.3396153,1.2209396,-0.30715942,2.3003175,0.61065674,1.7873658,97.0
285,-1.3396153,1.2209396,-0.30715942,2.0326905,0.8028809,1.988086,97.0
286,-1.2552738,1.1230164,-0.24568176,2.0326905,0.8028809,1.988086,97.0
287,-1.2552738,1.1230164,-0.24568176,2.5074098,0.903772,2.0964112,97.0
288,-1.7657056,1.3546753,-0.04000473,2.5074098,0.903772,2.0964112,97.0
289,-1.7657056,1.3546753,-0.04000473,1.5887696,1.0237793,2.1951783,97.0
290,-2.4044466,1.3932495,0.22865295,1.5887696,1.0237793,2.1951783,97.0
291,-2.4044466,1.3932495,0.22865295,0.76358646,1.1023682,2.3236816,97.0
292,-2.822239,0.89759827,0.35848236,0.76358646,1.1023682,2.3236816,97.0
293,-2.822239,0.89759827,0.35848236,0.24001466,1.1427246,2.3757203,97.0
294,-2.9640534,0.30199432,0.16449738,0.24001466,1.1427246,2.3757203,97.0
295,-2.9640534,0.30199432,0.16449738,-0.043542482,1.1013062,2.4054565,97.0
296,-2.977566,0.051841736,-0.15299606,-0.043542482,1.1013062,2.4054565,97.0
297,-2.977566,0.051841736,-0.15299606,0.039294433,0.92501223,2.446875,97.0
298,-2.9212496,0.08368683,-0.34002304,0.039294433,0.92501223,2.446875,97.0
299,-2.9212496,0.08368683,-0.34002304,0.04141846,0.7869507,2.362976,97.0
300,-2.8092775,0.20088959,-0.2590294,0.04141846,0.7869507,2.362976,97.0
301,-2.8092775,0.20088959,-0.2590294,0.16779785,0.6881836,2.3013794,97.0
302,-2.66229,0.36860657,-0.044757843,0.16779785,0.6881836,2.3013794,97.0
303,-2.66229,0.36860657,-0.044757843,0.17735596,0.61915284,2.1049073,97.0
304,-2.4491072,0.58140564,0.1613388,0.17735596,0.61915284,2.1049073,97.0
305,-2.4491072,0.58140564,0.1613388,0.22939454,0.48427734,1.8383423,97.0
306,-2.1397424,0.73404694,0.49565887,0.22939454,0.48427734,1.8383423,97.0
307,-2.1397424,0.73404694,0.49565887,0.3812622,0.29948732,1.5823975,97.0
308,-1.7139301,0.88539124,0.9951935,0.3812622,0.29948732,1.5823975,97.0
309,-1.7139301,0.88539124,0.9951935,0.35789797,0.4619751,1.2744141,97.0
310,-1.4348892,1.0668945,1.253994,0.35789797,0.4619751,1.2744141,97.0
311,-1.4348892,1.0668945,1.253994,0.1720459,0.5766724,0.9133301,97.0
312,-1.50526,1.0739365,1.1300392,0.1720459,0.5766724,0.9133301,97.0
313,-1.50526,1.0739365,1.1300392,-0.26868898,0.41737062,0.5787964,97.0
314,-1.5478358,0.7706833,0.9484863,-0.26868898,0.41737062,0.5787964,97.0
315,-1.5478358,0.7706833,0.9484863,-0.77526855,0.3334717,0.33878174,97.0
316,-1.2070796,0.48558807,0.8440819,-0.77526855,0.3334717,0.33878174,97.0
317,-1.2070796,0.48558807,0.8440819,-0.91864014,0.3154175,-0.013806152,97.0
318,-0.7365012,0.4144745,0.8194046,-0.91864014,0.3154175,-0.013806152,97.0
319,-0.7365012,0.4144745,0.8194046,-1.081128,0.18266602,-0.41524658,97.0
320,-0.14949155,0.2108612,0.7720375,-1.081128,0.18266602,-0.41524658,97.0
321,-0.14949155,0.2108612,0.7720375,-1.4082276,0.052038576,-0.90695804,97.0
322,1.1466665,-0.42513275,0.443058,-1.4082276,0.052038576,-0.90695804,97.0
323,1.1466665,-0.42513275,0.443058,-1.8415283,-0.26656494,-1.4995606,97.0
324,3.234069,-1.405304,-0.16126251,-1.8415283,-0.26656494,-1.4995606,97.0
325,3.234069,-1.405304,-0.16126251,-2.2015502,-0.32709962,-2.1888063,97.0
326,4.464013,-2.4041138,-0.60266876,-2.2015502,-0.32709962,-2.1888063,97.0
327,4.464013,-2.4041138,-0.60266876,-2.3757203,-0.12956543,-2.9205322,97.0
328,3.6359932,-2.9724503,-0.5734558,-2.3757203,-0.12956543,-2.9205322,97.0
329,3.6359932,-2.9724503,-0.5734558,-2.1378295,-0.27612305,-3.0235474,97.0
330,2.1425958,-2.837265,-0.44730377,-2.1378295,-0.27612305,-3.0235474,97.0
331,2.1425958,-2.837265,-0.44730377,-1.5611572,-0.36639404,-3.0447876,97.0
332,1.3288472,-2.1708298,-0.49279022,-1.5611572,-0.36639404,-3.0447876,97.0
333,1.3288472,-2.1708298,-0.49279022,-0.89846194,-0.4609131,-3.0479736,97.0
334,1.0477579,-1.3235397,-0.66809845,-0.89846194,-0.4609131,-3.0479736,97.0
335,1.0477579,-1.3235397,-0.66809845,-0.62764895,-0.45878908,-2.8769898,97.0
336,0.80239105,-0.67316437,-0.88967896,-0.62764895,-0.45878908,-2.8769898,97.0
337,0.80239105,-0.67316437,-0.88967896,-0.8209351,-0.33984375,-2.5732543,97.0
338,0.39855337,-0.33795166,-1.1820831,-0.8209351,-0.33984375,-2.5732543,97.0
339,0.39855337,-0.33795166,-1.1820831,-1.178833,-0.14230958,-2.2004883,97.0
340,-0.10232425,-0.16378784,-1.6087265,-1.178833,-0.14230958,-2.2004883,97.0
341,-0.10232425,-0.16378784,-1.6087265,-1.6036377,0.011682129,-1.8319702,97.0
342,-0.43981838,-0.037231445,-2.091961,-1.6036377,0.011682129,-1.8319702,97.0
343,-0.43981838,-0.037231445,-2.091961,-1.996582,0.107263185,-1.5685914,97.0
344,-0.42546308,-0.116256714,-2.3975792,-1.996582,0.107263185,-1.5685914,97.0
345,-0.42546308,-0.116256714,-2.3975792,-1.9795898,0.1274414,-1.4230957,97.0
346,-0.1364764,-0.40163422,-2.220848,-1.9795898,0.1274414,-1.4230957,97.0
347,-0.1364764,-0.40163422,-2.220848,-1.9795898,0.1274414,-1.4230957,98.0
348,-0.1364764,-0.40163422,-2.220848,-1.7916138,0.098767094,-1.3434448,98.0
349,0.35746932,-0.82814026,-1.6062813,-1.7916138,0.098767094,-1.3434448,98.0
350,0.35746932,-0.82814026,-1.6062813,-1.5176147,0.118945315,-1.2722901,98.0
351,0.9192641,-1.2906189,-1.0201073,-1.5176147,0.118945315,-1.2722901,98.0
352,0.9192641,-1.2906189,-1.0201073,-1.0662597,0.13806152,-1.1894531,98.0
353,1.3439074,-1.4939117,-0.73156357,-1.0662597,0.13806152,-1.1894531,98.0
354,1.3439074,-1.4939117,-0.73156357,-0.5012695,0.098767094,-1.1416626,98.0
355,1.5915201,-1.3832626,-0.57518005,-0.5012695,0.098767094,-1.1416626,98.0
356,1.5915201,-1.3832626,-0.57518005,0.07965088,0.06478272,-1.1565307,98.0
357,1.6878889,-1.114151,-0.35393143,0.07965088,0.06478272,-1.1565307,98.0
358,1.6878889,-1.114151,-0.35393143,0.6701294,-0.022302246,-1.1299804,98.0
359,1.6888485,-0.76724243,-0.0049972534,0.6701294,-0.022302246,-1.1299804,98.0
360,1.6888485,-0.76724243,-0.0049972534,1.1023682,-0.10089111,-1.0110352,98.0
361,1.5599413,-0.3404541,0.4321251,1.1023682,-0.10089111,-1.0110352,98.0
362,1.5599413,-0.3404541,0.4321251,1.2351197,-0.10620117,-0.8230591,98.0
363,1.327323,0.06575775,0.77059937,1.2351197,-0.10620117,-0.8230591,98.0
364,1.327323,0.06575775,0.77059937,1.1905152,-0.10938721,-0.54693604,98.0
365,1.2172537,0.35690308,0.8344345,1.1905152,-0.10938721,-0.54693604,98.0
366,1.2172537,0.35690308,0.8344345,1.1204224,-0.10938721,-0.2177124,98.0
367,1.2108636,0.5589218,0.69908905,1.1204224,-0.10938721,-0.2177124,98.0
368,1.2108636,0.5589218,0.69908905,1.0354614,-0.059472658,0.0722168,98.0
369,0.99072456,0.6710892,0.5605278,1.0354614,-0.059472658,0.0722168,98.0
370,0.99072456,0.6710892,0.5605278,0.91014403,-0.04141846,0.33134767,98.0
371,0.75178385,0.5763092,0.4454422,0.91014403,-0.04141846,0.33134767,98.0
372,0.75178385,0.5763092,0.4454422,0.7688965,-0.12000733,0.59472656,98.0
373,1.4650259,0.20191956,0.31303024,0.7688965,-0.12000733,0.59472656,98.0
374,1.4650259,0.20191956,0.31303024,0.8421753,-0.21134034,0.8496094,98.0
375,2.5424795,-0.13414764,0.36696625,0.8421753,-0.21134034,0.8496094,98.0
376,2.5424795,-0.13414764,0.36696625,1.1947632,0.03079834,1.0906861,98.0
377,2.0028682,0.11698151,0.6501999,1.1947632,0.03079834,1.0906861,98.0
378,2.0028682,0.11698151,0.6501999,1.5792115,0.21558838,1.3678712,98.0
379,-0.010877132,0.87425995,0.732914,1.5792115,0.21558838,1.3678712,98.0
380,-0.010877132,0.87425995,0.732914,2.1378295,0.1901001,1.6822265,98.0
381,-1.4480448,1.6536865,0.40839005,2.1378295,0.1901001,1.6822265,98.0
382,-1.4480448,1.6536865,0.40839005,2.9492066,0.13275146,1.9307374,98.0
383,-1.4337292,2.1203384,0.13495255,2.9492066,0.13275146,1.9307374,98.0
384,-1.4337292,2.1203384,0.13495255,3.0532837,0.17629395,1.987024,98.0
385,-0.9724717,2.2898483,0.3335724,3.0532837,0.17629395,1.987024,98.0
386,-0.9724717,2.2898483,0.3335724,3.5439332,0.37595215,1.9498535,98.0
387,-0.9945302,2.39859,0.778286,3.5439332,0.37595215,1.9498535,98.0
388,-0.9945302,2.39859,0.778286,3.6427002,0.49277344,1.8510865,98.0
389,-1.5524602,2.8939438,1.2444458,3.6427002,0.49277344,1.8510865,98.0
390,-1.5524602,2.8939438,1.2444458,3.3156006,0.6488892,1.7151489,98.0
391,-2.2823858,3.4093552,1.4703255,3.3156006,0.6488892,1.7151489,98.0
392,-2.2823858,3.4093552,1.4703255,1.5006226,0.7763306,1.721521,98.0
393,-2.879632,2.965683,1.3958511,1.5006226,0.7763306,1.721521,98.0
394,-2.879632,2.965683,1.3958511,0.59897465,0.72323,1.6822265,98.0
395,-3.1911569,1.7265396,1.0765305,0.59897465,0.72323,1.6822265,98.0
396,-3.1911569,1.7265396,1.0765305,-0.06690674,0.6573853,1.5739014,98.0
397,-3.1977253,0.5141449,0.7211609,-0.06690674,0.6573853,1.5739014,98.0
398,-3.1977253,0.5141449,0.7211609,-0.19116211,0.58304447,1.536731,98.0
399,-3.034511,-0.29701233,0.511219,-0.19116211,0.58304447,1.536731,98.0
400,-3.034511,-0.29701233,0.511219,-0.12319336,0.51188964,1.4177856,98.0
401,-2.788351,-0.5179901,0.50471497,-0.12319336,0.51188964,1.4177856,98.0
402,-2.788351,-0.5179901,0.50471497,0.03079834,0.46622315,1.2722901,98.0
403,-2.448857,-0.39943695,0.54042816,0.03079834,0.46622315,1.2722901,98.0
404,-2.448857,-0.39943695,0.54042816,0.04141846,0.4248047,1.1066163,98.0
405,-2.0100257,-0.2859726,0.5326843,0.04141846,0.4248047,1.1066163,98.0
406,-2.0100257,-0.2859726,0.5326843,0.004248047,0.33028564,0.98129886,98.0
407,-1.492481,-0.22917175,0.64310455,0.004248047,0.33028564,0.98129886,98.0
408,-1.492481,-0.22917175,0.64310455,-0.31329346,0.50870365,0.7805786,98.0
409,-0.9859892,-0.14916992,0.7008972,-0.31329346,0.50870365,0.7805786,98.0
410,-0.9859892,-0.14916992,0.7008972,-0.6435791,0.69136965,0.6616333,98.0
411,-0.55380607,-0.08820343,0.3497467,-0.6435791,0.69136965,0.6616333,98.0
412,-0.55380607,-0.08820343,0.3497467,-0.90270996,0.63933104,0.48109132,98.0
413,0.010898054,-0.15742493,-0.2411232,-0.90270996,0.63933104,0.48109132,98.0
414,0.010898054,-0.15742493,-0.2411232,-1.0290893,0.53950197,0.28355715,98.0
415,0.79432636,-0.28405762,-0.5956459,-1.0290893,0.53950197,0.28355715,98.0
416,0.79432636,-0.28405762,-0.5956459,-1.0821899,0.4895874,0.06690674,98.0
417,1.3344846,-0.32904053,-0.48945618,-1.0821899,0.4895874,0.06690674,98.0
418,1.3344846,-0.32904053,-0.48945618,-1.3349488,0.5628662,-0.13912354,98.0
419,1.1995579,-0.33813477,-0.16792297,-1.3349488,0.5628662,-0.13912354,98.0
420,1.1995579,-0.33813477,-0.16792297,-1.7395753,0.56605226,-0.36639404,98.0
421,1.1531155,-0.5258026,-0.14643478,-1.7395753,0.56605226,-0.36639404,98.0
422,1.1531155,-0.5258026,-0.14643478,-2.1463258,0.27399904,-0.70092773,98.0
423,1.885847,-1.1329117,-0.5400009,-2.1463258,0.27399904,-0.70092773,98.0
424,1.885847,-1.1329117,-0.5400009,-2.2397828,0.08496094,-1.2000732,98.0
425,2.1254988,-1.93219,-0.8254967,-2.2397828,0.08496094,-1.2000732,98.0
426,2.1254988,-1.93219,-0.8254967,-1.993396,0.07434082,-1.6864747,98.0
427,0.94717646,-2.2713852,-0.65844345,-1.993396,0.07434082,-1.6864747,98.0
428,0.94717646,-2.2713852,-0.65844345,-1.717273,-0.24107666,-1.8829468,98.0
429,-0.24330866,-2.0088348,-0.25164795,-1.717273,-0.24107666,-1.8829468,98.0
430,-0.24330866,-2.0088348,-0.25164795,-1.2722901,-0.6244629,-2.0539308,98.0
431,-0.08679783,-1.5764923,0.19533539,-1.2722901,-0.6244629,-2.0539308,98.0
432,-0.08679783,-1.5764923,0.19533539,-0.65632325,-0.88996583,-2.257837,98.0
433,0.8852248,-1.2759552,0.53818893,-0.65632325,-0.88996583,-2.257837,98.0
434,0.8852248,-1.2759552,0.53818893,-0.30054933,-0.86553955,-2.3151855,98.0
435,1.3797376,-1.0339508,0.48973083,-0.30054933,-0.86553955,-2.3151855,98.0
436,1.3797376,-1.0339508,0.48973083,-0.33984375,-0.66269535,-2.1335816,98.0
437,0.9211364,-0.74121094,-0.114486694,-0.33984375,-0.66269535,-2.1335816,98.0
438,0.9211364,-0.74121094,-0.114486694,-0.66588134,-0.41949463,-1.7958618,98.0
439,-0.087504864,-0.32495117,-0.97302246,-0.66588134,-0.41949463,-1.7958618,98.0
440,-0.087504864,-0.32495117,-0.97302246,-1.0312134,-0.23258057,-1.4156617,98.0
441,-0.9957607,0.11266327,-1.5966187,-1.0312134,-0.23258057,-1.4156617,98.0
442,-0.9957607,0.11266327,-1.5966187,-1.3455689,-0.10407715,-1.1427246,98.0
443,-1.3728415,0.30780792,-1.772644,-1.3455689,-0.10407715,-1.1427246,98.0
444,-1.3728415,0.30780792,-1.772644,-1.5208008,-0.028674318,-0.994043,98.0
445,-1.213825,0.08155823,-1.5928345,-1.5208008,-0.028674318,-0.994043,98.0
446,-1.213825,0.08155823,-1.5928345,-1.5229248,0.004248047,-0.85704345,98.0
447,-0.71610403,-0.45874023,-1.1932869,-1.5229248,0.004248047,-0.85704345,98.0
448,-0.71610403,-0.45874023,-1.1932869,-1.4082276,0.043542482,-0.72854006,98.0
449,-0.05885732,-1.0112534,-0.7276535,-1.4082276,0.043542482,-0.72854006,98.0
450,-0.05885732,-1.0112534,-0.7276535,-1.1363525,0.0998291,-0.635083,98.0
451,0.5660856,-1.3333054,-0.3652153,-1.1363525,0.0998291,-0.635083,98.0
452,0.5660856,-1.3333054,-0.3652153,-0.6711914,0.115759276,-0.60322267,98.0
453,1.0837278,-1.3739014,-0.14704132,-0.6711914,0.115759276,-0.60322267,98.0
454,1.0837278,-1.3739014,-0.14704132,-0.08602295,0.06690674,-0.6244629,98.0
455,1.5932031,-1.1960907,0.02204132,-0.08602295,0.06690674,-0.6244629,98.0
456,1.5932031,-1.1960907,0.02204132,-0.08602295,0.06690674,-0.6244629,98.0
457,1.5932031,-1.1960907,0.02204132,0.5055176,0.0180542,-0.6669434,98.0
458,2.020278,-0.8562622,0.17460251,0.5055176,0.0180542,-0.6669434,98.0
459,2.020278,-0.8562622,0.17460251,0.95581055,0.0010620117,-0.68499756,98.0
460,2.0605462,-0.36689758,0.3702469,0.95581055,0.0010620117,-0.68499756,98.0
461,2.0605462,-0.36689758,0.3702469,1.1990112,0.021240234,-0.62764895,98.0
462,1.7428951,0.16991425,0.64751434,1.1990112,0.021240234,-0.62764895,98.0
463,1.7428951,0.16991425,0.64751434,1.1575928,0.021240234,-0.4428589,98.0
464,1.5831833,0.5690384,0.87921524,1.1575928,0.021240234,-0.4428589,98.0
465,1.5831833,0.5690384,0.87921524,1.0312134,0.07752686,-0.24107666,98.0
466,1.6125307,0.72319794,0.8970108,1.0312134,0.07752686,-0.24107666,98.0
467,1.6125307,0.72319794,0.8970108,0.9260742,0.15930176,-0.0637207,98.0
468,1.3850808,0.66895294,0.6618843,0.9260742,0.15930176,-0.0637207,98.0
469,1.3850808,0.66895294,0.6618843,0.7954468,0.21027832,0.1178833,98.0
470,1.0976152,0.47431183,0.28103256,0.7954468,0.21027832,0.1178833,98.0
471,1.0976152,0.47431183,0.28103256,0.60109866,0.15930176,0.3175415,98.0
472,1.6230264,0.11553192,-0.062892914,0.60109866,0.15930176,0.3175415,98.0
473,1.6230264,0.11553192,-0.062892914,0.6064087,0.115759276,0.47471926,98.0
474,2.3532186,-0.19622803,-0.054698944,0.6064087,0.115759276,0.47471926,98.0
475,2.3532186,-0.19622803,-0.054698944,0.8517334,0.3154175,0.62127686,98.0
476,1.633893,-0.061553955,0.2389946,0.8517334,0.3154175,0.62127686,98.0
477,1.633893,-0.061553955,0.2389946,1.0917481,0.45347902,0.8623535,98.0
478,-0.14563227,0.51480865,0.2922821,1.0917481,0.45347902,0.8623535,98.0
479,-0.14563227,0.51480865,0.2922821,1.3753052,0.45560303,1.173523,98.0
480,-1.2568989,1.0263367,0.010070801,1.3753052,0.45560303,1.173523,98.0
481,-1.2568989,1.0263367,0.010070801,1.7608155,0.3525879,1.3668091,98.0
482,-1.3158827,1.1032257,-0.26126862,1.7608155,0.3525879,1.3668091,98.0
483,-1.3158827,1.1032257,-0.26126862,1.806482,0.42161867,1.622754,98.0
484,-1.2993002,1.0674438,-0.2375412,1.806482,0.42161867,1.622754,98.0
485,-1.2993002,1.0674438,-0.2375412,1.9774659,0.4895874,1.81073,98.0
486,-1.7554803,1.2356262,-0.034820557,1.9774659,0.4895874,1.81073,98.0
487,-1.7554803,1.2356262,-0.034820557,1.7236451,0.53525394,1.9604737,98.0
488,-2.3962302,1.4407196,0.15349197,1.7236451,0.53525394,1.9604737,98.0
489,-2.3962302,1.4407196,0.15349197,1.4273437,0.5703003,2.0932252,98.0
490,-2.902165,1.4907608,0.22755432,1.4273437,0.5703003,2.0932252,98.0
491,-2.902165,1.4907608,0.22755432,1.0673218,0.57242435,2.1590698,98.0
492,-3.156876,1.3660736,0.22927094,1.0673218,0.57242435,2.1590698,98.0
493,-3.156876,1.3660736,0.22927094,0.7582764,0.52250975,2.1484497,98.0
494,-3.173914,1.1001434,0.25663376,0.7582764,0.52250975,2.1484497,98.0
495,-3.173914,1.1001434,0.25663376,0.56817627,0.45878908,2.0942872,98.0
496,-3.0241654,0.82886505,0.30456161,0.56817627,0.45878908,2.0942872,98.0
497,-3.0241654,0.82886505,0.30456161,0.47578126,0.3536499,1.99552,98.0
498,-2.8222132,0.64604187,0.3870201,0.47578126,0.3536499,1.99552,98.0
499,-2.8222132,0.64604187,0.3870201,0.3695801,0.2793091,1.8510865,98.0
500,-2.6441965,0.6017456,0.56153107,0.3695801,0.2793091,1.8510865,98.0
501,-2.6441965,0.6017456,0.56153107,0.4725952,0.26125488,1.6970948,98.0
502,-2.4412603,0.6962204,0.75984573,0.4725952,0.26125488,1.6970948,98.0
503,-2.4412603,0.6962204,0.75984573,0.4725952,0.15611573,1.4592041,98.0
504,-2.0148492,0.7216034,0.925148,0.4725952,0.15611573,1.4592041,98.0
505,-2.0148492,0.7216034,0.925148,0.3695801,0.093457036,1.1958252,98.0
506,-1.2967914,0.7471466,1.1859703,0.3695801,0.093457036,1.1958252,98.0
507,-1.2967914,0.7471466,1.1859703,0.362146,0.21452637,0.8750977,98.0
508,-0.6108706,0.8267822,1.3356781,0.362146,0.21452637,0.8750977,98.0
509,-0.6108706,0.8267822,1.3356781,-0.013806152,0.41843262,0.4980835,98.0
510,-0.20271015,0.73178864,0.93483734,-0.013806152,0.41843262,0.4980835,98.0
511,-0.20271015,0.73178864,0.93483734,-0.4970215,0.41099855,0.1709839,98.0
512,0.15562963,0.47026062,0.18685913,-0.4970215,0.41099855,0.1709839,98.0
513,0.15562963,0.47026062,0.18685913,-0.8867798,0.3791382,-0.15823975,98.0
514,0.66381025,0.25125885,-0.3063469,-0.8867798,0.3791382,-0.15823975,98.0
515,0.66381025,0.25125885,-0.3063469,-1.1629028,0.32922363,-0.48321533,98.0
516,1.0863217,0.050727844,-0.2817726,-1.1629028,0.32922363,-0.48321533,98.0
517,1.0863217,0.050727844,-0.2817726,-1.5154908,0.29417726,-0.7763306,98.0
518,1.3426781,-0.3575592,0.040195465,-1.5154908,0.29417726,-0.7763306,98.0
519,1.3426781,-0.3575592,0.040195465,-1.8903809,0.19647217,-1.1034302,98.0
520,2.10914,-0.98638916,0.06239319,-1.8903809,0.19647217,-1.1034302,98.0
521,2.10914,-0.98638916,0.06239319,-2.2111084,-0.093457036,-1.5537232,98.0
522,3.2376173,-1.7597275,-0.4046631,-2.2111084,-0.093457036,-1.5537232,98.0
523,3.2376173,-1.7597275,-0.4046631,-2.3831544,-0.07752686,-2.1388917,98.0
524,2.9515195,-2.420807,-0.66496277,-2.3831544,-0.07752686,-2.1388917,98.0
525,2.9515195,-2.420807,-0.66496277,-2.3353639,-0.115759276,-2.4043946,98.0
526,1.2306615,-2.5427094,-0.5074806,-2.3353639,-0.115759276,-2.4043946,98.0
527,1.2306615,-2.5427094,-0.5074806,-1.906311,-0.31223145,-2.451123,98.0
528,0.066206455,-2.1035156,-0.43159485,-1.906311,-0.31223145,-2.451123,98.0
529,0.066206455,-2.1035156,-0.43159485,-1.0556396,-0.6467652,-2.5594482,98.0
530,0.38572884,-1.5344467,-0.48722076,-1.0556396,-0.6467652,-2.5594482,98.0
531,0.38572884,-1.5344467,-0.48722076,-0.34090576,-0.8814697,-2.6794555,98.0
532,1.3485733,-1.1653595,-0.4355545,-0.34090576,-0.8814697,-2.6794555,98.0
533,1.3485733,-1.1653595,-0.4355545,0.0010620117,-0.8602295,-2.5987427,98.0
534,1.7121596,-0.96110535,-0.42185593,0.0010620117,-0.8602295,-2.5987427,98.0
535,1.7121596,-0.96110535,-0.42185593,0.015930176,-0.6977417,-2.3066895,98.0
536,1.1752942,-0.66485596,-0.6930237,0.015930176,-0.6977417,-2.3066895,98.0
537,1.1752942,-0.66485596,-0.6930237,-0.2347046,-0.5097656,-1.8903809,98.0
538,0.25107503,-0.21006775,-1.1121216,-0.2347046,-0.5097656,-1.8903809,98.0
539,0.25107503,-0.21006775,-1.1121216,-0.5607422,-0.35683593,-1.4984986,98.0
540,-0.4932685,0.19923401,-1.3467522,-0.5607422,-0.35683593,-1.4984986,98.0
541,-0.4932685,0.19923401,-1.3467522,-0.8241211,-0.24744873,-1.2276856,98.0
542,-0.8439312,0.35212708,-1.2392807,-0.8241211,-0.24744873,-1.2276856,98.0
543,-0.8439312,0.35212708,-1.2392807,-0.9653687,-0.16992188,-1.0407715,98.0
544,-0.8439312,0.35212708,-1.2392807,-0.9653687,-0.16992188,-1.0407715,98.0
545,-0.8237412,0.1366806,-0.884079,-0.9653687,-0.16992188,-1.0407715,98.0
546,-0.8237412,0.1366806,-0.884079,-1.0938721,-0.09451904,-0.87191164,98.0
547,-0.8237412,0.1366806,-0.884079,-1.0641358,-0.029736329,-0.72323,98.0
548,-0.5191736,-0.34252167,-0.50512695,-1.0641358,-0.029736329,-0.72323,98.0
549,-0.037775397,-0.79597473,-0.22542572,-1.0641358,-0.029736329,-0.72323,98.0
550,-0.037775397,-0.79597473,-0.22542572,-0.81668705,0.016992187,-0.61915284,98.0
551,0.5059736,-1.0474854,-0.03705597,-0.81668705,0.016992187,-0.61915284,98.0
552,0.5059736,-1.0474854,-0.03705597,-0.40993652,0.03186035,-0.5713623,98.0
553,1.067584,-1.1305542,0.03416443,-0.40993652,0.03186035,-0.5713623,98.0
554,1.067584,-1.1305542,0.03416443,0.11151123,0.007434082,-0.54587406,98.0
555,1.638967,-1.0769653,0.006664276,0.11151123,0.007434082,-0.54587406,98.0
556,1.638967,-1.0769653,0.006664276,0.70092773,-0.023364259,-0.5076416,98.0
557,2.0301433,-0.78546906,0.10115814,0.70092773,-0.023364259,-0.5076416,98.0
558,2.0301433,-0.78546906,0.10115814,1.1544068,-0.0010620117,-0.41418457,98.0
559,1.9389827,-0.24803925,0.41404343,1.1544068,-0.0010620117,-0.41418457,98.0
560,1.9389827,-0.24803925,0.41404343,1.3030884,0.040356446,-0.2347046,98.0
561,1.5132713,0.3130951,0.72776794,1.3030884,0.040356446,-0.2347046,98.0
562,1.5132713,0.3130951,0.72776794,1.2223755,0.06265869,0.0053100586,98.0
563,1.2422333,0.67372894,0.8473358,1.2223755,0.06265869,0.0053100586,98.0
564,1.2422333,0.67372894,0.8473358,1.1034302,0.1083252,0.25063476,98.0
565,1.1667118,0.80166626,0.77464676,1.1034302,0.1083252,0.25063476,98.0
566,1.1667118,0.80166626,0.77464676,0.9770508,0.1720459,0.46622315,98.0
567,0.9198928,0.7439575,0.6335106,0.9770508,0.1720459,0.46622315,98.0
568,0.9198928,0.7439575,0.6335106,0.7699585,0.24107666,0.6680054,98.0
569,0.56370974,0.5471115,0.44662857,0.7699585,0.24107666,0.6680054,98.0
570,0.56370974,0.5471115,0.44662857,0.634021,0.20921631,0.85704345,98.0
571,1.0490026,0.23622131,0.19268036,0.634021,0.20921631,0.85704345,98.0
572,1.0490026,0.23622131,0.19268036,0.8050049,0.107263185,0.9420044,98.0
573,1.9931936,0.118515015,0.09768677,0.8050049,0.107263185,0.9420044,98.0
574,1.9931936,0.118515015,0.09768677,1.5303589,0.29311523,0.91120607,98.0
575,1.7597036,0.419899,0.1494751,1.5303589,0.29311523,0.91120607,98.0
576,1.7597036,0.419899,0.1494751,1.9477295,0.3345337,1.0630738,98.0
577,0.5143056,0.96199036,0.07926178,1.9477295,0.3345337,1.0630738,98.0
578,0.5143056,0.96199036,0.07926178,2.5679443,0.35895997,1.1724609,98.0
579,-0.46449566,1.55896,-0.010040283,2.5679443,0.35895997,1.1724609,98.0
580,-0.46449566,1.55896,-0.010040283,2.7877808,0.3334717,1.3243287,98.0
581,-0.8550558,1.9947205,0.12575531,2.7877808,0.3334717,1.3243287,98.0
582,-0.8550558,1.9947205,0.12575531,2.9417725,0.41312256,1.4602661,98.0
583,-1.1827631,2.2633057,0.39466858,2.9417725,0.41312256,1.4602661,98.0
584,-1.1827631,2.2633057,0.39466858,2.6348512,0.53525394,1.544165,98.0
585,-1.7623482,2.4291534,0.6356201,2.6348512,0.53525394,1.544165,98.0
586,-1.7623482,2.4291534,0.6356201,2.095349,0.71367186,1.63125,98.0
587,-2.5822053,2.4452133,0.770668,2.095349,0.71367186,1.63125,98.0
588,-2.5822053,2.4452133,0.770668,1.4974365,0.8379273,1.6875366,98.0
589,-3.4334035,2.2516022,0.7278023,1.4974365,0.8379273,1.6875366,98.0
590,-3.4334035,2.2516022,0.7278023,0.8358032,0.81243896,1.621692,98.0
591,-3.9529972,1.7940903,0.59726715,0.8358032,0.81243896,1.621692,98.0
592,-3.9529972,1.7940903,0.59726715,0.42799073,0.6690674,1.5760254,98.0
593,-3.9132888,1.125351,0.468647,0.42799073,0.6690674,1.5760254,98.0
594,-3.9132888,1.125351,0.468647,0.2177124,0.5511841,1.532483,98.0
595,-3.436173,0.46276855,0.37750626,0.2177124,0.5511841,1.532483,98.0
596,-3.436173,0.46276855,0.37750626,0.2166504,0.41949463,1.4145997,98.0
597,-2.8149908,0.03299713,0.3824768,0.2166504,0.41949463,1.4145997,98.0
598,-2.8149908,0.03299713,0.3824768,0.33134767,0.31435546,1.3179566,98.0
599,-2.2514188,-0.0734787,0.48365784,0.33134767,0.31435546,1.3179566,98.0
600,-2.2514188,-0.0734787,0.48365784,0.48321533,0.23789063,1.2234375,98.0
601,-1.6910155,0.08568573,0.51758957,0.48321533,0.23789063,1.2234375,98.0
602,-1.6910155,0.08568573,0.51758957,0.62764895,0.17947999,1.0407715,98.0
603,-1.064873,0.31541443,0.47314072,0.62764895,0.17947999,1.0407715,98.0
604,-1.064873,0.31541443,0.47314072,0.5511841,0.15930176,0.8400513,98.0
605,-0.5052798,0.35453033,0.46543884,0.5511841,0.15930176,0.8400513,98.0
606,-0.5052798,0.35453033,0.46543884,0.20178223,0.14655761,0.68074954,98.0
607,-0.07814956,0.09363556,0.51185226,0.20178223,0.14655761,0.68074954,98.0
608,-0.07814956,0.09363556,0.51185226,-0.24213867,0.26975098,0.5511841,98.0
609,0.337578,-0.023422241,0.49777222,-0.24213867,0.26975098,0.5511841,98.0
610,0.337578,-0.023422241,0.49777222,-0.4354248,0.2814331,0.3717041,98.0
611,0.8108095,0.06549072,0.3418808,-0.4354248,0.2814331,0.3717041,98.0
612,0.8108095,0.06549072,0.3418808,-0.6956177,0.2347046,0.13912354,98.0
613,1.2314357,-0.011604309,0.17567825,-0.6956177,0.2347046,0.13912354,98.0
614,1.2314357,-0.011604309,0.17567825,-0.93138427,0.23258057,-0.08602295,98.0
615,1.2878097,-0.21308136,0.13834763,-0.93138427,0.23258057,-0.08602295,98.0
616,1.2878097,-0.21308136,0.13834763,-1.1119263,0.2357666,-0.2538208,98.0
617,1.3251574,-0.41226196,0.1452713,-1.1119263,0.2357666,-0.2538208,98.0
618,1.3251574,-0.41226196,0.1452713,-1.4262818,-0.004248047,-0.4991455,98.0
619,2.2118227,-0.7985687,0.033210754,-1.4262818,-0.004248047,-0.4991455,98.0
620,2.2118227,-0.7985687,0.033210754,-1.5261109,-0.24957275,-0.9696167,98.0
621,2.8500733,-1.4178848,-0.041793823,-1.5261109,-0.24957275,-0.9696167,98.0
622,2.8500733,-1.4178848,-0.041793823,-1.445398,-0.18160401,-1.4315919,98.0
623,1.6707326,-1.7618942,0.16770172,-1.445398,-0.18160401,-1.4315919,98.0
624,1.6707326,-1.7618942,0.16770172,-1.3912354,-0.39188233,-1.5611572,98.0
625,-0.20505214,-1.536171,0.529377,-1.3912354,-0.39188233,-1.5611572,98.0
626,-0.20505214,-1.536171,0.529377,-1.0906861,-0.70942384,-1.6365601,98.0
627,-0.93199825,-1.1372986,0.8769913,-1.0906861,-0.70942384,-1.6365601,98.0
628,-0.93199825,-1.1372986,0.8769913,-0.47365722,-1.0343994,-1.7470093,98.0
629,-0.33777392,-0.8588257,1.21978,-0.47365722,-1.0343994,-1.7470093,98.0
630,-0.33777392,-0.8588257,1.21978,0.057348635,-1.083252,-1.7958618,98.0
631,0.27831602,-0.6826935,1.2450981,0.057348635,-1.083252,-1.7958618,98.0
632,0.27831602,-0.6826935,1.2450981,0.15930176,-0.991919,-1.7597535,98.0
633,0.6373501,-0.53022766,1.187706,0.15930176,-0.991919,-1.7597535,98.0
634,0.6373501,-0.53022766,1.187706,-0.13699952,-0.56817627,-1.4655762,98.0
635,0.49003136,-0.38063812,0.67632294,-0.13699952,-0.56817627,-1.4655762,98.0
636,0.49003136,-0.38063812,0.67632294,-0.362146,-0.43754885,-1.3285767,98.0
637,-0.5529822,-0.00289917,-0.7355194,-0.362146,-0.43754885,-1.3285767,98.0
638,-0.5529822,-0.00289917,-0.7355194,-0.8878418,-0.1444336,-0.99510497,98.0
639,-0.66588426,0.022888184,-1.0721321,-0.8878418,-0.1444336,-0.99510497,98.0
640,-0.66588426,0.022888184,-1.0721321,-0.96430665,-0.08920898,-0.92926025,98.0
641,-1.0661424,-0.10170746,-1.5019836,-0.96430665,-0.08920898,-0.92926025,98.0
642,-1.0661424,-0.10170746,-1.5019836,-0.8612915,-0.021240234,-0.76464844,98.0
643,-0.82668114,-0.28398132,-1.3035126,-0.8612915,-0.021240234,-0.76464844,98.0
644,-0.82668114,-0.28398132,-1.3035126,-0.76464844,-0.009558106,-0.7168579,98.0
645,-0.43391567,-0.96494293,-0.73122406,-0.76464844,-0.009558106,-0.7168579,98.0
646,-0.43391567,-0.96494293,-0.73122406,-0.37701416,0.029736329,-0.541626,98.0
647,-0.13219112,-1.0366516,-0.4260559,-0.37701416,0.029736329,-0.541626,98.0
648,-0.13219112,-1.0366516,-0.4260559,-0.22833252,0.052038576,-0.4959595,98.0
649,0.5844693,-1.3279648,0.1245842,-0.22833252,0.052038576,-0.4959595,98.0
650,0.5844693,-1.3279648,0.1245842,0.38763428,0.06584473,-0.41206056,98.0
651,0.73886454,-1.0704422,0.25513458,0.38763428,0.06584473,-0.41206056,98.0
652,0.73886454,-1.0704422,0.25513458,0.62127686,0.06584473,-0.38657227,98.0
653,1.1416898,-0.7551727,0.5315361,0.62127686,0.06584473,-0.38657227,98.0
654,1.1416898,-0.7551727,0.5315361,1.0875,0.093457036,-0.29948732,98.0
655,1.0336155,-0.43263245,0.64360046,1.0875,0.093457036,-0.29948732,98.0
656,1.0336155,-0.43263245,0.64360046,1.1968873,0.10089111,-0.26337892,98.0
657,1.0508425,0.06925964,0.6814575,1.1968873,0.10089111,-0.26337892,98.0
658,1.0508425,0.06925964,0.6814575,1.1968873,0.10089111,-0.26337892,97.0
659,1.0508425,0.06925964,0.6814575,1.3976074,0.10089111,-0.13168946,97.0
660,0.94386005,0.29371643,0.65911865,1.3976074,0.10089111,-0.13168946,97.0
661,0.94386005,0.29371643,0.65911865,1.4167236,0.0998291,-0.08283692,97.0
662,1.147654,0.55142975,0.43034363,1.4167236,0.0998291,-0.08283692,97.0
663,1.147654,0.55142975,0.43034363,1.356189,0.1709839,0.10620117,97.0
664,0.96689034,0.58563995,0.44040298,1.356189,0.1709839,0.10620117,97.0
665,0.96689034,0.58563995,0.44040298,1.3137085,0.20178223,0.17947999,97.0
666,0.7134659,0.62525177,0.3898964,1.3137085,0.20178223,0.17947999,97.0
667,0.7134659,0.62525177,0.3898964,1.1958252,0.2527588,0.34090576,97.0
668,0.42681527,0.67565155,0.27830887,1.1958252,0.2527588,0.34090576,97.0
669,0.42681527,0.67565155,0.27830887,1.0726318,0.24638672,0.5076416,97.0
670,0.9230318,0.600029,-0.007335663,1.0726318,0.24638672,0.5076416,97.0
671,0.9230318,0.600029,-0.007335663,1.0142212,0.05628662,0.6403931,97.0
672,2.6455789,0.23561096,-0.32564545,1.0142212,0.05628662,0.6403931,97.0
673,2.6455789,0.23561096,-0.32564545,1.1565307,0.047790527,0.72641605,97.0
674,3.3740926,-0.010314941,-0.14929962,1.1565307,0.047790527,0.72641605,97.0
675,3.3740926,-0.010314941,-0.14929962,1.4719483,0.43754885,1.0280274,97.0
676,1.759479,0.3595581,0.18606567,1.4719483,0.43754885,1.0280274,97.0
677,1.759479,0.3595581,0.18606567,1.5176147,0.45347902,1.1575928,97.0
678,-0.8690648,1.168396,0.44023514,1.5176147,0.45347902,1.1575928,97.0
679,-0.8690648,1.168396,0.44023514,1.6864747,0.36108398,1.4326538,97.0
680,-1.9690437,1.6489487,0.30654526,1.6864747,0.36108398,1.4326538,97.0
681,-1.9690437,1.6489487,0.30654526,1.8797607,0.2814331,1.6662964,97.0
682,-1.6779203,1.6946335,0.046676636,1.8797607,0.2814331,1.6662964,97.0
683,-1.6779203,1.6946335,0.046676636,2.1951783,0.29417726,1.7735596,97.0
684,-1.4449487,1.6708908,-0.06668854,2.1951783,0.29417726,1.7735596,97.0
685,-1.4449487,1.6708908,-0.06668854,2.350232,0.3355957,1.8670167,97.0
686,-1.7722797,1.8172684,-0.03655243,2.350232,0.3355957,1.8670167,97.0
687,-1.7722797,1.8172684,-0.03655243,2.4861696,0.35152587,1.9562256,97.0
688,-2.237245,2.2078552,-0.015129089,2.4861696,0.35152587,1.9562256,97.0
689,-2.237245,2.2078552,-0.015129089,2.362976,0.38338622,1.9434814,97.0
690,-2.5268934,2.5211868,-0.041755676,2.362976,0.38338622,1.9434814,97.0
691,-2.5268934,2.5211868,-0.041755676,2.2164185,0.34940186,1.9296753,97.0
692,-2.5577452,2.5842361,-0.06588745,2.2164185,0.34940186,1.9296753,97.0
693,-2.5577452,2.5842361,-0.06588745,2.0942872,0.28568116,1.7767457,97.0
694,-2.3683398,2.541008,-0.052963257,2.0942872,0.28568116,1.7767457,97.0
695,-2.3683398,2.541008,-0.052963257,1.8946289,0.18160401,1.5813354,97.0
696,-2.0863345,2.2668915,-0.034267426,1.8946289,0.18160401,1.5813354,97.0
697,-2.0863345,2.2668915,-0.034267426,1.6620483,0.09239502,1.3880494,97.0
698,-1.7654299,1.8315659,-0.013717651,1.6620483,0.09239502,1.3880494,97.0
699,-1.7654299,1.8315659,-0.013717651,1.4730103,0.0021240234,1.2457398,97.0
700,-1.4050319,1.4301453,0.027404785,1.4730103,0.0021240234,1.2457398,97.0
701,-1.4050319,1.4301453,0.027404785,1.450708,-0.1274414,1.1299804,97.0
702,-0.98581755,1.2249527,0.119766235,1.450708,-0.1274414,1.1299804,97.0
703,-0.98581755,1.2249527,0.119766235,1.3912354,-0.25594482,1.0014771,97.0
704,-0.52562916,1.2570114,0.30714035,1.3912354,-0.25594482,1.0014771,97.0
705,-0.52562916,1.2570114,0.30714035,1.175647,-0.32178956,0.8581055,97.0
706,-0.127559,1.3836517,0.57299423,1.175647,-0.32178956,0.8581055,97.0
707,-0.127559,1.3836517,0.57299423,0.8581055,-0.3727661,0.7434082,97.0
708,0.13525748,1.447998,0.9103584,0.8581055,-0.3727661,0.7434082,97.0
709,0.13525748,1.447998,0.9103584,0.53950197,-0.35046387,0.634021,97.0
710,0.27983683,1.418663,1.3459854,0.53950197,-0.35046387,0.634021,97.0
711,0.27983683,1.418663,1.3459854,0.24107666,-0.19434814,0.5171997,97.0
712,0.44729477,1.2830734,1.5382996,0.24107666,-0.19434814,0.5171997,97.0
713,0.44729477,1.2830734,1.5382996,-0.17841797,-0.09239502,0.40462646,97.0
714,0.7326893,1.007431,1.2337875,-0.17841797,-0.09239502,0.40462646,97.0
715,0.7326893,1.007431,1.2337875,-0.6265869,-0.060534667,0.29205322,97.0
716,1.140839,0.6597519,0.82585907,-0.6265869,-0.060534667,0.29205322,97.0
717,1.140839,0.6597519,0.82585907,-0.90908206,-0.04991455,0.20709229,97.0
718,1.5482303,0.3313446,0.6778374,-0.90908206,-0.04991455,0.20709229,97.0
719,1.5482303,0.3313446,0.6778374,-1.3168945,0.03079834,0.09770508,97.0
720,1.8303201,-0.057052612,0.669796,-1.3168945,0.03079834,0.09770508,97.0
721,1.8303201,-0.057052612,0.669796,-1.7002808,-0.05628662,-0.124255374,97.0
722,2.420689,-0.7150421,0.4732895,-1.7002808,-0.05628662,-0.124255374,97.0
723,2.420689,-0.7150421,0.4732895,-1.8457764,-0.26762697,-0.544812,97.0
724,2.8387852,-1.5542221,0.28598022,-1.8457764,-0.26762697,-0.544812,97.0
725,2.8387852,-1.5542221,0.28598022,-1.7024049,-0.2516968,-1.0460815,97.0
726,1.712642,-2.0691605,0.58281326,-1.7024049,-0.2516968,-1.0460815,97.0
727,1.712642,-2.0691605,0.58281326,-1.4358399,-0.32816163,-1.2977784,97.0
728,-0.54430294,-1.8595505,1.0953026,-1.4358399,-0.32816163,-1.2977784,97.0
729,-0.54430294,-1.8595505,1.0953026,-1.1926392,-0.44073486,-1.3944215,97.0
730,-2.133587,-1.2606354,1.2298775,-1.1926392,-0.44073486,-1.3944215,97.0
731,-2.133587,-1.2606354,1.2298775,-0.8952759,-0.65632325,-1.4698242,97.0
732,-2.1234956,-0.9261627,0.92671204,-0.8952759,-0.65632325,-1.4698242,97.0
733,-2.1234956,-0.9261627,0.92671204,-0.5097656,-0.8219971,-1.5271729,97.0
734,-1.0259693,-0.94844055,0.4814186,-0.5097656,-0.8219971,-1.5271729,97.0
735,-1.0259693,-0.94844055,0.4814186,-0.115759276,-0.7699585,-1.5006226,97.0
736,0.05588472,-0.9563446,0.021560669,-0.115759276,-0.7699585,-1.5006226,97.0
737,0.05588472,-0.9563446,0.021560669,-0.090270996,-0.6425171,-1.3763672,97.0
738,0.5864924,-0.8260956,-0.4648819,-0.090270996,-0.6425171,-1.3763672,97.0
739,0.5864924,-0.8260956,-0.4648819,-0.26550293,-0.48746338,-1.260608,97.0
740,0.5964035,-0.6703491,-0.8389702,-0.26550293,-0.48746338,-1.260608,97.0
741,0.5964035,-0.6703491,-0.8389702,-0.4333008,-0.36533204,-1.179895,97.0
742,0.30757928,-0.5641403,-0.94916916,-0.4333008,-0.36533204,-1.179895,97.0
743,0.30757928,-0.5641403,-0.94916916,-0.5713623,-0.3069214,-1.1236085,97.0
744,0.03251362,-0.61912537,-0.76272964,-0.5713623,-0.3069214,-1.1236085,97.0
745,0.03251362,-0.61912537,-0.76272964,-0.5872925,-0.27399904,-1.0938721,97.0
746,-0.06291735,-0.85180664,-0.3341484,-0.5872925,-0.27399904,-1.0938721,97.0
747,-0.06291735,-0.85180664,-0.3341484,-0.41206056,-0.2357666,-1.0683838,97.0
748,-0.046842694,-1.11969,0.17370987,-0.41206056,-0.2357666,-1.0683838,97.0
749,-0.046842694,-1.11969,0.17370987,-0.22302246,-0.1996582,-1.0174073,97.0
750,0.027674794,-1.2492065,0.5340347,-0.22302246,-0.1996582,-1.0174073,97.0
751,0.027674794,-1.2492065,0.5340347,0.03717041,-0.14549561,-0.95368654,97.0
752,0.13789904,-1.1276855,0.6623688,0.03717041,-0.14549561,-0.95368654,97.0
753,0.13789904,-1.1276855,0.6623688,0.35152587,-0.0998291,-0.901648,97.0
754,0.13789904,-1.1276855,0.6623688,0.35152587,-0.0998291,-0.901648,97.0
755,0.23262143,-0.8282471,0.61984634,0.35152587,-0.0998291,-0.901648,97.0
756,0.23262143,-0.8282471,0.61984634,0.6595093,-0.046728518,-0.8358032,97.0
757,0.32478118,-0.4821396,0.47584534,0.6595093,-0.046728518,-0.8358032,97.0
758,0.32478118,-0.4821396,0.47584534,0.9366943,-0.013806152,-0.71367186,97.0
759,0.52238595,-0.124191284,0.32097244,0.9366943,-0.013806152,-0.71367186,97.0
760,0.52238595,-0.124191284,0.32097244,1.1342286,0.004248047,-0.5363159,97.0
761,0.89885354,0.17710876,0.29601288,1.1342286,0.004248047,-0.5363159,97.0
762,0.89885354,0.17710876,0.29601288,1.2191895,0.083898924,-0.3058594,97.0
763,1.4003694,0.38991547,0.33063507,1.2191895,0.083898924,-0.3058594,97.0
764,1.4003694,0.38991547,0.33063507,1.2043213,0.15505372,-0.04460449,97.0
765,1.833113,0.5491867,0.2760315,1.2043213,0.15505372,-0.04460449,97.0
766,1.833113,0.5491867,0.2760315,1.1384766,0.25700685,0.21027832,97.0
767,1.7719226,0.7363739,0.14388275,1.1384766,0.25700685,0.21027832,97.0
768,1.7719226,0.7363739,0.14388275,0.9866089,0.33665773,0.45135498,97.0
769,1.0937343,0.9345932,0.021282196,0.9866089,0.33665773,0.45135498,97.0
770,1.0937343,0.9345932,0.021282196,0.70942384,0.3451538,0.6924316,97.0
771,0.58201885,0.94932556,-0.0050811768,0.70942384,0.3451538,0.6924316,97.0
772,0.58201885,0.94932556,-0.0050811768,0.47896728,0.26337892,0.92926025,97.0
773,1.2985864,0.5945511,-0.017990112,0.47896728,0.26337892,0.92926025,97.0
774,1.2985864,0.5945511,-0.017990112,0.50870365,0.23895264,1.0790039,97.0
775,2.199648,0.15097046,-0.05922699,0.50870365,0.23895264,1.0790039,97.0
776,2.199648,0.15097046,-0.05922699,0.7476563,0.48215333,1.2542359,97.0
777,1.2162004,0.26503754,-0.12484741,0.7476563,0.48215333,1.2542359,97.0
778,1.2162004,0.26503754,-0.12484741,0.9589966,0.62127686,1.5176147,97.0
779,-0.8871107,0.9121475,-0.4056778,0.9589966,0.62127686,1.5176147,97.0
780,-0.8871107,0.9121475,-0.4056778,1.1406006,0.57454836,1.7820557,97.0
781,-1.8976159,1.3923492,-0.92092896,1.1406006,0.57454836,1.7820557,97.0
782,-1.8976159,1.3923492,-0.92092896,1.4326538,0.47578126,2.0114503,97.0
783,-1.5641377,1.4754257,-1.3478279,1.4326538,0.47578126,2.0114503,97.0
784,-1.5641377,1.4754257,-1.3478279,1.8330323,0.44498292,2.0826051,97.0
785,-1.2034829,1.49617,-1.4315453,1.8330323,0.44498292,2.0826051,97.0
786,-1.2034829,1.49617,-1.4315453,2.1325195,0.4322388,2.095349,97.0
787,-1.4198298,1.7315903,-1.2711868,2.1325195,0.4322388,2.095349,97.0
788,-1.4198298,1.7315903,-1.2711868,2.173938,0.3982544,2.090039,97.0
789,-1.8193233,2.1064758,-1.0973587,2.173938,0.3982544,2.090039,97.0
790,-1.8193233,2.1064758,-1.0973587,2.0008302,0.33984375,2.0380006,97.0
791,-2.0767965,2.3493652,-0.9355278,2.0008302,0.33984375,2.0380006,97.0
792,-2.0767965,2.3493652,-0.9355278,1.6694825,0.30267334,1.9349854,97.0
793,-2.1692986,2.2890778,-0.70479584,1.6694825,0.30267334,1.9349854,97.0
794,-2.1692986,2.2890778,-0.70479584,1.4241577,0.20709229,1.8181641,97.0
795,-2.104604,2.0377808,-0.4474907,1.4241577,0.20709229,1.8181641,97.0
796,-2.104604,2.0377808,-0.4474907,1.3020264,0.095581055,1.6493043,97.0
797,-1.8338298,1.7643814,-0.26060486,1.3020264,0.095581055,1.6493043,97.0
798,-1.8338298,1.7643814,-0.26060486,1.270166,-0.03079834,1.4793824,97.0
799,-1.4311874,1.5635452,-0.15421295,1.270166,-0.03079834,1.4793824,97.0
800,-1.4311874,1.5635452,-0.15421295,1.3094605,-0.15186767,1.3243287,97.0
801,-0.96180785,1.5237122,-0.07262421,1.3094605,-0.15186767,1.3243287,97.0
802,-0.96180785,1.5237122,-0.07262421,1.3710572,-0.2782471,1.1204224,97.0
803,-0.43431443,1.5556183,0.036239624,1.3710572,-0.2782471,1.1204224,97.0
804,-0.43431443,1.5556183,0.036239624,1.2361816,-0.3440918,0.92713624,97.0
805,0.117746204,1.5738907,0.18388367,1.2361816,-0.3440918,0.92713624,97.0
806,0.117746204,1.5738907,0.18388367,1.0906861,-0.38551027,0.6924316,97.0
807,0.6298171,1.4949799,0.40411377,1.0906861,-0.38551027,0.6924316,97.0
808,0.6298171,1.4949799,0.40411377,0.7965088,-0.35577393,0.45878908,97.0
809,1.0404992,1.2462769,0.63093567,0.7965088,-0.35577393,0.45878908,97.0
810,1.0404992,1.2462769,0.63093567,0.42268068,-0.3175415,0.23045655,97.0
811,1.4466693,0.8862076,0.7472038,0.42268068,-0.3175415,0.23045655,97.0
812,1.4466693,0.8862076,0.7472038,0.04885254,-0.27718505,0.027612304,97.0
813,1.8911368,0.5890579,0.77454376,0.04885254,-0.27718505,0.027612304,97.0
814,1.8911368,0.5890579,0.77454376,-0.4248047,-0.16248779,-0.14761963,97.0
815,2.161945,0.41895294,-33.211666,-0.4248047,-0.16248779,-0.14761963,97.0
816,2.161945,0.41895294,-33.211666,-1.0057251,-0.016992187,-0.29523927,97.0
817,1.864749,0.30368042,7.5516014,-1.0057251,-0.016992187,-0.29523927,97.0
818,1.864749,0.30368042,7.5516014,-1.5112427,0.08920898,-0.44179687,97.0
819,1.1537254,0.10594177,6.2741776,-1.5112427,0.08920898,-0.44179687,97.0
820,1.1537254,0.10594177,6.2741776,-1.81073,0.0637207,-0.6637573,97.0
821,0.9967842,-0.390831,5.159477,-1.81073,0.0637207,-0.6637573,97.0
822,0.9967842,-0.390831,5.159477,-1.9583496,-0.10938721,-1.0439576,97.0
823,1.5818145,-1.2321625,4.0345154,-1.9583496,-0.10938721,-1.0439576,97.0
824,1.5818145,-1.2321625,4.0345154,-1.9764038,-0.08283692,-1.4730103,97.0
825,1.5655861,-1.9377289,3.1495209,-1.9764038,-0.08283692,-1.4730103,97.0
826,1.5655861,-1.9377289,3.1495209,-1.991272,-0.07115479,-1.6769165,97.0
827,0.36123347,-2.0026474,-39.39635,-1.991272,-0.07115479,-1.6769165,97.0
828,0.36123347,-2.0026474,-39.39635,-1.8574585,-0.19222413,-1.7778076,97.0
829,-0.85813236,-1.6436234,10.615562,-1.8574585,-0.19222413,-1.7778076,97.0
830,-0.85813236,-1.6436234,10.615562,-1.538855,-0.43117675,-1.8457764,97.0
831,-1.1328073,-1.1935349,0.8694,-1.538855,-0.43117675,-1.8457764,97.0
832,-1.1328073,-1.1935349,0.8694,-1.0683838,-0.64782715,-1.8436524,97.0
833,-0.4447713,-1.2722855,8.835854,-1.0683838,-0.64782715,-1.8436524,97.0
834,-0.4447713,-1.2722855,8.835854,-0.59897465,-0.6669434,-1.7799317,97.0
835,-0.06779218,-1.0522156,7.2508087,-0.59897465,-0.6669434,-1.7799317,97.0
836,-0.06779218,-1.0522156,7.2508087,-0.3430298,-0.6085327,-1.6036377,97.0
837,-0.15366006,-0.6608658,5.7022324,-0.3430298,-0.6085327,-1.6036377,97.0
838,-0.15366006,-0.6608658,5.7022324,-0.4619751,-0.45560303,-1.4570801,97.0
839,-0.5190706,-0.33714294,4.1896057,-0.4619751,-0.45560303,-1.4570801,97.0
840,-0.5190706,-0.33714294,4.1896057,-0.75296634,-0.26444092,-1.351941,97.0
841,-0.97452164,-0.28462982,2.8451805,-0.75296634,-0.26444092,-1.351941,97.0
842,-0.97452164,-0.28462982,2.8451805,-1.1002442,-0.13275146,-1.2712281,97.0
843,-1.2550201,-0.4998703,1.8365936,-1.1002442,-0.13275146,-1.2712281,97.0
844,-1.2550201,-0.4998703,1.8365936,-1.2712281,-0.07327881,-1.2298096,97.0
845,-1.1578125,-0.8609543,1.2788429,-1.2712281,-0.07327881,-1.2298096,97.0
846,-1.1578125,-0.8609543,1.2788429,-1.2011353,-0.019116212,-1.2191895,97.0
847,-0.8223803,-1.2552414,1.1047897,-1.2011353,-0.019116212,-1.2191895,97.0
848,-0.8223803,-1.2552414,1.1047897,-1.0036011,0.0180542,-1.2021973,97.0
849,-0.452106,-1.5846863,1.1381989,-1.0036011,0.0180542,-1.2021973,97.0
850,-0.452106,-1.5846863,1.1381989,-0.6956177,0.038232423,-1.178833,97.0
851,-0.12153578,-1.7329712,1.2497177,-0.6956177,0.038232423,-1.178833,97.0
852,-0.12153578,-1.7329712,1.2497177,-0.3164795,0.04248047,-1.1533448,97.0
853,0.13431442,-1.6377716,1.3710976,-0.3164795,0.04248047,-1.1533448,97.0
854,0.13431442,-1.6377716,1.3710976,0.043542482,0.047790527,-1.1066163,97.0
855,0.13431442,-1.6377716,1.3710976,0.043542482,0.047790527,-1.1066163,97.0
856,0.32849646,-1.3943558,1.422451,0.043542482,0.047790527,-1.1066163,97.0
857,0.32849646,-1.3943558,1.422451,0.35046387,0.04141846,-1.0120972,97.0
858,0.32849646,-1.3943558,1.422451,0.5957886,0.010620117,-0.83898926,97.0
859,0.5827923,-1.0900345,1.3502502,0.5957886,0.010620117,-0.83898926,97.0
860,0.9955306,-0.76555634,1.1447983,0.5957886,0.010620117,-0.83898926,97.0
861,0.9955306,-0.76555634,1.1447983,0.71791995,0.004248047,-0.5671143,97.0
862,1.4973767,-0.45397186,0.8651085,0.71791995,0.004248047,-0.5671143,97.0
863,1.4973767,-0.45397186,0.8651085,0.76358646,0.03079834,-0.2814331,97.0
864,1.7768197,-0.15241241,0.60643005,0.76358646,0.03079834,-0.2814331,97.0
865,1.7768197,-0.15241241,0.60643005,0.7678345,0.1274414,-0.039294433,97.0
866,1.5234578,0.12569427,0.37937927,0.7678345,0.1274414,-0.039294433,97.0
867,1.5234578,0.12569427,0.37937927,0.78376466,0.17523193,0.16673584,97.0
868,0.88188887,0.33460236,0.21110916,0.78376466,0.17523193,0.16673584,97.0
869,0.88188887,0.33460236,0.21110916,0.77314454,0.15930176,0.39294434,97.0
870,0.7208185,0.38651276,0.13801575,0.77314454,0.15930176,0.39294434,97.0
871,0.7208185,0.38651276,0.13801575,0.67331547,0.060534667,0.6202149,97.0
872,1.6941843,0.21807098,0.13156891,0.67331547,0.060534667,0.6202149,97.0
873,1.6941843,0.21807098,0.13156891,0.6786255,0.13062744,0.8687256,97.0
874,2.3063974,0.11161804,0.18578339,0.6786255,0.13062744,0.8687256,97.0
875,2.3063974,0.11161804,0.18578339,0.81031495,0.4163086,1.177771,97.0
876,1.0777354,0.4522934,0.19453812,0.81031495,0.4163086,1.177771,97.0
877,1.0777354,0.4522934,0.19453812,0.93138427,0.5713623,1.5632813,97.0
878,-0.71956205,1.0318375,-0.13116455,0.93138427,0.5713623,1.5632813,97.0
879,-0.71956205,1.0318375,-0.13116455,1.0779419,0.5766724,1.9827759,97.0
880,-1.2310815,1.3443298,-0.7574234,1.0779419,0.5766724,1.9827759,97.0
881,-1.2310815,1.3443298,-0.7574234,1.3678712,0.5703003,2.3300538,97.0
882,-0.6963644,1.4120865,-1.2646065,1.3678712,0.5703003,2.3300538,97.0
883,-0.6963644,1.4120865,-1.2646065,1.8383423,0.6595093,2.5775025,97.0
884,-0.50208664,1.6480637,-1.3903732,1.8383423,0.6595093,2.5775025,97.0
885,-0.50208664,1.6480637,-1.3903732,2.066675,0.7412842,2.7665405,97.0
886,-0.92151785,2.1015701,-1.229229,2.066675,0.7412842,2.7665405,97.0
887,-0.92151785,2.1015701,-1.229229,2.0156982,0.75721437,2.8823,97.0
888,-1.3743725,2.450386,-0.93213654,2.0156982,0.75721437,2.8823,97.0
889,-1.3743725,2.450386,-0.93213654,1.7820557,0.77951664,2.9067261,97.0
890,-1.6722887,2.480217,-0.6472359,1.7820557,0.77951664,2.9067261,97.0
891,-1.6722887,2.480217,-0.6472359,1.5537232,0.8028809,2.8610597,97.0
892,-1.8659439,2.2680588,-0.5257225,1.5537232,0.8028809,2.8610597,97.0
893,-1.8659439,2.2680588,-0.5257225,1.4369019,0.7306641,2.709192,97.0
894,-1.9315245,1.9547043,-0.50784683,1.4369019,0.7306641,2.709192,97.0
895,-1.9315245,1.9547043,-0.50784683,1.4793824,0.60216063,2.5137818,97.0
896,-1.861809,1.6647415,-0.3194008,1.4793824,0.60216063,2.5137818,97.0
897,-1.861809,1.6647415,-0.3194008,1.2850342,0.4959595,2.2769532,97.0
898,-1.6867129,1.3927307,-0.08221817,1.2850342,0.4959595,2.2769532,97.0
899,-1.6867129,1.3927307,-0.08221817,1.1193603,0.5012695,2.0677369,97.0
900,-1.4305471,1.2381439,-0.12232971,1.1193603,0.5012695,2.0677369,97.0
901,-1.4305471,1.2381439,-0.12232971,1.1522827,0.3971924,1.7756836,97.0
902,-1.1411296,1.302536,-0.27729416,1.1522827,0.3971924,1.7756836,97.0
903,-1.1411296,1.302536,-0.27729416,1.0598878,0.30373535,1.454956,97.0
904,-0.7687875,1.3630829,-0.19642258,1.0598878,0.30373535,1.454956,97.0
905,-0.7687875,1.3630829,-0.19642258,0.77314454,0.20072022,1.170337,97.0
906,-0.7687875,1.3630829,-0.19642258,0.48533937,0.31223145,0.8294312,97.0
907,-0.17276928,1.2176285,0.0017738342,0.48533937,0.31223145,0.8294312,97.0
908,1.8123584,1.0656891,0.12174225,0.48533937,0.31223145,0.8294312,97.0
909,1.8123584,1.0656891,0.12174225,0.2262085,0.3334717,0.4725952,97.0
910,1.8123584,1.0656891,0.12174225,-0.14761963,0.37489015,0.18266602,97.0
911,1.8123584,1.0656891,0.12174225,-0.56180423,0.4619751,-0.11469727,97.0
912,1.6845303,0.8713379,0.08568573,-0.56180423,0.4619751,-0.11469727,97.0
913,1.6845303,0.8713379,0.08568573,-1.0184692,0.5256958,-0.41206056,97.0
914,0.9413986,0.6398697,0.2223053,-1.0184692,0.5256958,-0.41206056,97.0
915,0.9413986,0.6398697,0.2223053,-1.4135376,0.45878908,-0.73809814,97.0
916,0.34275508,0.13739777,0.47502136,-1.4135376,0.45878908,-0.73809814,97.0
917,0.34275508,0.13739777,0.47502136,-1.5728394,0.22408448,-1.2319336,97.0
918,0.7272315,-0.69654083,0.49416733,-1.5728394,0.22408448,-1.2319336,97.0
919,0.7272315,-0.69654083,0.49416733,-1.627002,-0.053100586,-1.8266602,97.0
920,1.3033917,-1.5580292,0.32086182,-1.627002,-0.053100586,-1.8266602,97.0
921,1.3033917,-1.5580292,0.32086182,-1.7013428,-0.17735596,-2.3321779,97.0
922,0.9292612,-2.054039,0.31694412,-1.7013428,-0.17735596,-2.3321779,97.0
923,0.9292612,-2.054039,0.31694412,-1.81604,-0.42799073,-2.5647583,97.0
924,0.15346766,-2.0403748,0.55147934,-1.81604,-0.42799073,-2.5647583,97.0
925,0.15346766,-2.0403748,0.55147934,-1.7597535,-0.83049315,-2.7198122,97.0
926,0.039583206,-1.7766876,0.94327164,-1.7597535,-0.83049315,-2.7198122,97.0
927,0.039583206,-1.7766876,0.94327164,-1.450708,-1.1862671,-2.9269044,97.0
928,0.39969635,-1.5848999,1.427063,-1.450708,-1.1862671,-2.9269044,97.0
929,0.39969635,-1.5848999,1.427063,-0.9897949,-1.359375,-3.0511596,97.0
930,0.49570918,-1.4573975,1.802597,-0.9897949,-1.359375,-3.0511596,97.0
931,0.49570918,-1.4573975,1.802597,-0.54693604,-1.3476928,-2.986377,97.0
932,0.19413805,-1.2130737,1.7225952,-0.54693604,-1.3476928,-2.986377,97.0
933,0.19413805,-1.2130737,1.7225952,-0.39188233,-1.1650269,-2.7824707,97.0
934,-0.27336383,-0.8617325,1.0067139,-0.39188233,-1.1650269,-2.7824707,97.0
935,-0.27336383,-0.8617325,1.0067139,-0.634021,-0.9143921,-2.5127199,97.0
936,-0.77429414,-0.5893173,-0.053199768,-0.634021,-0.9143921,-2.5127199,97.0
937,-0.77429414,-0.5893173,-0.053199768,-1.0545777,-0.6903076,-2.2334106,97.0
938,-1.1544816,-0.4961624,-0.85834503,-1.0545777,-0.6903076,-2.2334106,97.0
939,-1.1544816,-0.4961624,-0.85834503,-1.3976074,-0.5012695,-2.0380006,97.0
940,-1.2886,-0.6211395,-1.115303,-1.3976074,-0.5012695,-2.0380006,97.0
941,-1.2886,-0.6211395,-1.115303,-1.6036377,-0.36851808,-1.8691406,97.0
942,-1.1203575,-0.9559784,-0.9177933,-1.6036377,-0.36851808,-1.8691406,97.0
943,-1.1203575,-0.9559784,-0.9177933,-1.5877075,-0.29736328,-1.7544434,97.0
944,-0.6612518,-1.4490814,-0.471138,-1.5877075,-0.29736328,-1.7544434,97.0
945,-0.6612518,-1.4490814,-0.471138,-1.4358399,-0.24744873,-1.6705445,97.0
946,0.0077905655,-2.017746,0.04364395,-1.4358399,-0.24744873,-1.6705445,97.0
947,0.0077905655,-2.017746,0.04364395,-1.1469727,-0.20496826,-1.5696534,97.0
948,0.76671827,-2.44812,0.45983887,-1.1469727,-0.20496826,-1.5696534,97.0
949,0.76671827,-2.44812,0.45983887,-0.7848267,-0.17629395,-1.4305298,97.0
950,1.4294512,-2.541809,0.7240715,-0.7848267,-0.17629395,-1.4305298,97.0
951,1.4294512,-2.541809,0.7240715,-0.36320803,-0.12956543,-1.2457398,97.0
952,1.6253359,-2.2282257,0.9530487,-0.36320803,-0.12956543,-1.2457398,97.0
953,1.6253359,-2.2282257,0.9530487,0.04460449,-0.06159668,-1.0290893,97.0
954,1.2477663,-1.5705719,1.1410255,0.04460449,-0.06159668,-1.0290893,97.0
955,1.2477663,-1.5705719,1.1410255,0.36427003,-0.038232423,-0.76358646,97.0
956,0.7982373,-0.8004608,1.1440353,0.36427003,-0.038232423,-0.76358646,97.0
957,0.7982373,-0.8004608,1.1440353,0.541626,-0.027612304,-0.4694092,97.0
958,0.67988634,-0.20461273,0.89809036,0.541626,-0.027612304,-0.4694092,97.0
959,0.67988634,-0.20461273,0.89809036,0.61702883,0.035046387,-0.15505372,97.0
960,0.68006635,0.16421509,0.48355865,0.61702883,0.035046387,-0.15505372,97.0
961,0.68006635,0.16421509,0.48355865,0.62127686,0.16036378,0.19647217,97.0
962,0.5755105,0.43113708,0.036727905,0.62127686,0.16036378,0.19647217,97.0
963,0.5755105,0.43113708,0.036727905,0.5235718,0.2262085,0.5883545,97.0
964,1.1286092,0.526474,-0.4033699,0.5235718,0.2262085,0.5883545,97.0
965,1.1286092,0.526474,-0.4033699,0.42905274,0.14549561,0.9876709,97.0
966,2.3820987,0.37434387,-0.7001877,0.42905274,0.14549561,0.9876709,97.0
967,2.3820987,0.37434387,-0.7001877,0.5055176,0.42692873,1.3222046,97.0
968,2.3585477,0.36423492,-0.5906677,0.5055176,0.42692873,1.3222046,97.0
969,2.3585477,0.36423492,-0.5906677,0.6775635,0.69136965,1.7013428,97.0
970,0.6547704,0.72467804,-0.30177307,0.6775635,0.69136965,1.7013428,97.0
971,0.6547704,0.72467804,-0.30177307,0.8230591,0.7604004,2.1346436,97.0
972,0.6547704,0.72467804,-0.30177307,0.8230591,0.7604004,2.1346436,98.0
973,-0.61584425,1.132309,-0.3700943,0.8230591,0.7604004,2.1346436,98.0
974,-0.61584425,1.132309,-0.3700943,1.0333375,0.6988037,2.532898,98.0
975,-0.40176964,1.2960052,-0.78772736,1.0333375,0.6988037,2.532898,98.0
976,-0.40176964,1.2960052,-0.78772736,1.3774292,0.7189819,2.8387573,98.0
977,0.05835724,1.3697739,-1.0866127,1.3774292,0.7189819,2.8387573,98.0
978,0.05835724,1.3697739,-1.0866127,1.7278931,0.83686525,3.068152,98.0
979,-0.35145855,1.6057892,-1.0908127,1.7278931,0.83686525,3.068152,98.0
980,-0.35145855,1.6057892,-1.0908127,1.897815,0.8687256,3.2348878,98.0
981,-1.195498,1.9776001,-0.9614563,1.897815,0.8687256,3.2348878,98.0
982,-1.195498,1.9776001,-0.9614563,1.8733886,0.85385746,3.2869263,98.0
983,-1.8733051,2.293724,-0.8062973,1.8733886,0.85385746,3.2869263,98.0
984,-1.8733051,2.293724,-0.8062973,1.7693115,0.8750977,3.2221437,98.0
985,-2.2984731,2.3805466,-0.6451988,1.7693115,0.8750977,3.2221437,98.0
986,-2.2984731,2.3805466,-0.6451988,1.6153198,0.8092529,3.1010742,98.0
987,-2.488156,2.1839294,-0.56954956,1.6153198,0.8092529,3.1010742,98.0
988,-2.488156,2.1839294,-0.56954956,1.4836304,0.7104859,2.904602,98.0
989,-2.3953102,1.8012085,-0.6108551,1.4836304,0.7104859,2.904602,98.0
990,-2.3953102,1.8012085,-0.6108551,1.3869873,0.5703003,2.6868896,98.0
991,-2.0398564,1.4299316,-0.71237946,1.3869873,0.5703003,2.6868896,98.0
992,-2.0398564,1.4299316,-0.71237946,1.3965454,0.5055176,2.4670532,98.0
993,-1.6595464,1.3243027,-0.7892761,1.3965454,0.5055176,2.4670532,98.0
994,-1.6595464,1.3243027,-0.7892761,1.4900025,0.41099855,2.179248,98.0
995,-1.3796879,1.4661407,-0.7601471,1.4900025,0.41099855,2.179248,98.0
996,-1.3796879,1.4661407,-0.7601471,1.4379638,0.34090576,1.8882569,98.0
997,-1.0938504,1.6531754,-0.655056,1.4379638,0.34090576,1.8882569,98.0
998,-1.0938504,1.6531754,-0.655056,1.2160034,0.32709962,1.5632813,98.0
999,-0.7637156,1.6913376,-0.5461273,1.2160034,0.32709962,1.5632813,98.0
1000,-0.7637156,1.6913376,-0.5461273,0.85598147,0.31010744,1.2287476,98.0
1001,-0.43829185,1.4978943,-0.44725418,0.85598147,0.31010744,1.2287476,98.0
1002,-0.43829185,1.4978943,-0.44725418,0.47684327,0.27612305,0.8846558,98.0
1003,-0.07951532,1.1599808,-0.32445526,0.47684327,0.27612305,0.8846558,98.0
1004,-0.07951532,1.1599808,-0.32445526,0.17523193,0.21027832,0.5533081,98.0
1005,-0.07951532,1.1599808,-0.32445526,-0.09133301,0.1529297,0.20709229,98.0
1006,0.41163188,0.80558777,-0.13516235,-0.09133301,0.1529297,0.20709229,98.0
1007,1.2360072,0.41955566,0.5890007,-0.09133301,0.1529297,0.20709229,98.0
1008,1.2360072,0.41955566,0.5890007,-0.3525879,0.14974366,-0.1263794,98.0
1009,1.2360072,0.41955566,0.5890007,-0.77526855,0.19541016,-0.4258667,98.0
1010,1.2360072,0.41955566,0.5890007,-1.1809571,0.11682129,-0.75615233,98.0
1011,0.9969967,0.05454254,0.6618881,-1.1809571,0.11682129,-0.75615233,98.0
1012,0.9969967,0.05454254,0.6618881,-1.4857544,-0.22833252,-1.2765381,98.0
1013,1.8592918,-0.67723846,0.49692917,-1.4857544,-0.22833252,-1.2765381,98.0
1014,1.8592918,-0.67723846,0.49692917,-1.6875366,-0.5076416,-1.99552,98.0
1015,2.7488227,-1.5734558,0.23525238,-1.6875366,-0.5076416,-1.99552,98.0
1016,2.7488227,-1.5734558,0.23525238,-1.99552,-0.632959,-2.5690064,98.0
1017,2.4713483,-2.145523,0.24258423,-1.99552,-0.632959,-2.5690064,98.0
1018,2.4713483,-2.145523,0.24258423,-2.3735962,-0.9632446,-2.7453003,98.0
1019,1.6136143,-2.178627,0.73316574,-2.3735962,-0.9632446,-2.7453003,98.0
1020,1.6136143,-2.178627,0.73316574,-2.2249146,-1.3083985,-2.8695557,98.0
1021,1.1104958,-1.859848,1.5993271,-2.2249146,-1.3083985,-2.8695557,98.0
1022,1.1104958,-1.859848,1.5993271,-1.6652344,-1.5675293,-2.9959352,98.0
1023,0.90159225,-1.4591675,2.3666077,-1.6652344,-1.5675293,-2.9959352,98.0
1024,0.90159225,-1.4591675,2.3666077,-1.075818,-1.6057618,-3.0182374,98.0
1025,0.57380056,-1.1435928,2.4777946,-1.075818,-1.6057618,-3.0182374,98.0
1026,0.57380056,-1.1435928,2.4777946,-0.7763306,-1.4230957,-2.8695557,98.0
1027,0.0022900105,-0.95877075,1.6702843,-0.7763306,-1.4230957,-2.8695557,98.0
1028,0.0022900105,-0.95877075,1.6702843,-0.817749,-1.1554688,-2.6698976,98.0
1029,-0.6944084,-0.8738785,0.34855652,-0.817749,-1.1554688,-2.6698976,98.0
1030,-0.6944084,-0.8738785,0.34855652,-1.0195312,-0.91014403,-2.3958986,98.0
1031,-1.2826874,-0.75627136,-0.7172127,-1.0195312,-0.91014403,-2.3958986,98.0
1032,-1.2826874,-0.75627136,-0.7172127,-1.2903442,-0.70092773,-2.1888063,98.0
1033,-1.5020533,-0.6554184,-1.1009064,-1.2903442,-0.70092773,-2.1888063,98.0
1034,-1.5020533,-0.6554184,-1.1009064,-1.5494751,-0.5140137,-2.0486207,98.0
1035,-1.3258858,-0.80272675,-0.9703865,-1.5494751,-0.5140137,-2.0486207,98.0
1036,-1.3258858,-0.80272675,-0.9703865,-1.6376221,-0.38763428,-1.9190552,98.0
1037,-0.88808894,-1.2424774,-0.59204483,-1.6376221,-0.38763428,-1.9190552,98.0
1038,-0.88808894,-1.2424774,-0.59204483,-1.538855,-0.2984253,-1.7958618,98.0
1039,-0.3236792,-1.8035278,-0.08318329,-1.538855,-0.2984253,-1.7958618,98.0
1040,-0.3236792,-1.8035278,-0.08318329,-1.3338867,-0.20072022,-1.6524903,98.0
1041,0.25716996,-2.2546997,0.35999298,-1.3338867,-0.20072022,-1.6524903,98.0
1042,0.25716996,-2.2546997,0.35999298,-1.1044922,-0.118945315,-1.5048707,98.0
1043,0.8339343,-2.4532242,0.5688782,-1.1044922,-0.118945315,-1.5048707,98.0
1044,0.8339343,-2.4532242,0.5688782,-0.68074954,-0.095581055,-1.357251,98.0
1045,1.291647,-2.328331,0.5511589,-0.68074954,-0.095581055,-1.357251,98.0
1046,1.291647,-2.328331,0.5511589,-0.19541016,-0.06159668,-1.2053833,98.0
1047,1.3377731,-1.8802795,0.5138893,-0.19541016,-0.06159668,-1.2053833,98.0
1048,1.3377731,-1.8802795,0.5138893,0.16248779,-0.0010620117,-0.991919,98.0
1049,0.89534044,-1.2229462,0.5557747,0.16248779,-0.0010620117,-0.991919,98.0
1050,0.89534044,-1.2229462,0.5557747,0.42268068,0.052038576,-0.6839356,98.0
1051,0.40946078,-0.5526352,0.5098419,0.42268068,0.052038576,-0.6839356,98.0
1052,0.40946078,-0.5526352,0.5098419,0.5894165,0.093457036,-0.35895997,98.0
1053,0.31388474,-0.05242157,0.25434875,0.5894165,0.093457036,-0.35895997,98.0
1054,0.31388474,-0.05242157,0.25434875,0.67331547,0.12531738,-0.03186035,98.0
1055,0.31388474,-0.05242157,0.25434875,0.69136965,0.25063476,0.2984253,98.0
1056,0.38143015,0.27749634,-0.064208984,0.69136965,0.25063476,0.2984253,98.0
1057,0.9499438,0.72821045,-0.5801239,0.69136965,0.25063476,0.2984253,98.0
1058,0.9499438,0.72821045,-0.5801239,0.5713623,0.28355715,0.6595093,98.0
1059,0.9499438,0.72821045,-0.5801239,0.42055663,0.17947999,1.0014771,98.0
1060,0.9499438,0.72821045,-0.5801239,0.4619751,0.46834716,1.2839721,98.0
1061,2.3960023,0.48512268,-0.46409607,0.4619751,0.46834716,1.2839721,98.0
1062,0.73102283,1.1293869,-0.3918457,0.4619751,0.46834716,1.2839721,98.0
1063,0.73102283,1.1293869,-0.3918457,0.4619751,0.46834716,1.2839721,97.0
1064,0.73102283,1.1293869,-0.3918457,0.6403931,0.70092773,1.6333741,97.0
1065,0.73102283,1.1293869,-0.3918457,0.92501223,0.7497803,2.0178223,97.0
1066,0.73102283,1.1293869,-0.3918457,1.2574219,0.73703617,2.2875733,97.0
1067,0.4907751,1.3009949,-0.9011612,1.2574219,0.73703617,2.2875733,97.0
1068,0.4907751,1.3009949,-0.9011612,1.628064,0.7497803,2.4596193,97.0
1069,0.37344265,1.4150009,-1.2585258,1.628064,0.7497803,2.4596193,97.0
1070,0.37344265,1.4150009,-1.2585258,1.9657837,0.78164065,2.6295412,97.0
1071,-0.19035721,1.7432785,-1.2129364,1.9657837,0.78164065,2.6295412,97.0
1072,-0.19035721,1.7432785,-1.2129364,2.1388917,0.8092529,2.8302612,97.0
1073,-0.89897776,2.311432,-0.89476395,2.1388917,0.8092529,2.8302612,97.0
1074,-0.89897776,2.311432,-0.89476395,2.080481,0.8793457,2.975757,97.0
1075,-1.5318651,2.8184814,-0.55617905,2.080481,0.8793457,2.975757,97.0
1076,-1.5318651,2.8184814,-0.55617905,1.7958618,0.9324463,3.0224855,97.0
1077,-2.0240028,2.8964615,-0.37182236,1.7958618,0.9324463,3.0224855,97.0
1078,-2.0240028,2.8964615,-0.37182236,1.4252198,0.92501223,2.9672608,97.0
1079,-2.2758918,2.4526138,-0.41586685,1.4252198,0.92501223,2.9672608,97.0
1080,-2.2758918,2.4526138,-0.41586685,1.1278565,0.88359374,2.8461914,97.0
1081,-2.255479,1.7663422,-0.52700424,1.1278565,0.88359374,2.8461914,97.0
1082,-2.255479,1.7663422,-0.52700424,0.9866089,0.725354,2.6900756,97.0
1083,-1.8942516,1.210495,-0.54261017,0.9866089,0.725354,2.6900756,97.0
1084,-1.8942516,1.210495,-0.54261017,0.9897949,0.6945557,2.5052857,97.0
1085,-1.3837363,1.0674973,-0.45069122,0.9897949,0.6945557,2.5052857,97.0
1086,-1.3837363,1.0674973,-0.45069122,1.1246704,0.6966797,2.2057984,97.0
1087,-1.0891546,1.259964,-0.33894348,1.1246704,0.6966797,2.2057984,97.0
1088,-1.0891546,1.259964,-0.33894348,1.0248413,0.6881836,1.898877,97.0
1089,-0.9775615,1.4276276,-0.34767914,1.0248413,0.6881836,1.898877,97.0
1090,-0.9775615,1.4276276,-0.34767914,0.7869507,0.6616333,1.5834595,97.0
1091,-0.85743976,1.3954315,-0.39123917,0.7869507,0.6616333,1.5834595,97.0
1092,-0.85743976,1.3954315,-0.39123917,0.44923097,0.60109866,1.2744141,97.0
1093,-0.6200094,1.1992874,-0.33446503,0.44923097,0.60109866,1.2744141,97.0
1094,-0.6200094,1.1992874,-0.33446503,0.13912354,0.5522461,0.93138427,97.0
1095,-0.2812004,0.9155731,-0.13008118,0.13912354,0.5522461,0.93138427,97.0
1096,-0.2812004,0.9155731,-0.13008118,-0.12956543,0.5129517,0.57242435,97.0
1097,0.091934204,0.6091995,0.09394455,-0.12956543,0.5129517,0.57242435,97.0
1098,0.091934204,0.6091995,0.09394455,-0.38551027,0.46516114,0.19753419,97.0
1099,0.4023559,0.3151703,0.18473816,-0.38551027,0.46516114,0.19753419,97.0
1100,0.4023559,0.3151703,0.18473816,-0.65419924,0.40356445,-0.18479005,97.0
1101,0.44710445,0.041625977,0.19946289,-0.65419924,0.40356445,-0.18479005,97.0
1102,0.44710445,0.041625977,0.19946289,-0.9600586,0.3164795,-0.5894165,97.0
1103,0.16123581,-0.2773056,0.3149681,-0.9600586,0.3164795,-0.5894165,97.0
1104,0.16123581,-0.2773056,0.3149681,-1.1172364,0.13062744,-1.0471436,97.0
1105,0.21358335,-0.68592834,0.45147324,-1.1172364,0.13062744,-1.0471436,97.0
1106,0.21358335,-0.68592834,0.45147324,-1.2308716,-0.2357666,-1.6482422,97.0
1107,1.1547778,-1.203392,0.32616806,-1.2308716,-0.2357666,-1.6482422,97.0
1108,1.1547778,-1.203392,0.32616806,-1.3944215,-0.52038574,-2.3990846,97.0
1109,1.9420962,-1.7432556,0.09321213,-1.3944215,-0.52038574,-2.3990846,97.0
1110,1.9420962,-1.7432556,0.09321213,-1.6875366,-0.6202149,-2.981067,97.0
1111,1.601785,-2.0484009,0.1294632,-1.6875366,-0.6202149,-2.981067,97.0
1112,1.601785,-2.0484009,0.1294632,-1.9774659,-0.9218262,-3.25188,97.0
1113,1.0338571,-2.0386124,0.46888733,-1.9774659,-0.9218262,-3.25188,97.0
1114,1.0338571,-2.0386124,0.46888733,-1.8914429,-1.3423828,-3.4855225,97.0
1115,1.2363508,-1.9140472,1.0112305,-1.8914429,-1.3423828,-3.4855225,97.0
1116,1.2363508,-1.9140472,1.0112305,-1.4188477,-1.6450561,-3.6989868,97.0
1117,1.7896056,-1.7946548,1.6420555,-1.4188477,-1.6450561,-3.6989868,97.0
1118,1.7896056,-1.7946548,1.6420555,-0.79969484,-1.7321411,-3.6798706,97.0
1119,1.915205,-1.5542831,2.0556107,-0.79969484,-1.7321411,-3.6798706,97.0
1120,1.915205,-1.5542831,2.0556107,-0.3164795,-1.5462891,-3.3623292,97.0
1121,1.3413563,-1.0104065,1.7774239,-0.3164795,-1.5462891,-3.3623292,97.0
1122,1.3413563,-1.0104065,1.7774239,-0.36639404,-1.2053833,-2.8674316,97.0
1123,0.22625875,-0.36024475,0.755291,-0.36639404,-1.2053833,-2.8674316,97.0
1124,0.22625875,-0.36024475,0.755291,-0.7943848,-0.88996583,-2.3735962,97.0
1125,-0.35314846,-0.15335846,0.13197708,-0.7943848,-0.88996583,-2.3735962,97.0
1126,-0.35314846,-0.15335846,0.13197708,-1.0365235,-0.7582764,-2.1580079,97.0
1127,-1.9013786,0.15162659,-0.87929535,-1.0365235,-0.7582764,-2.1580079,97.0
1128,-1.9013786,0.15162659,-0.87929535,-1.63125,-0.3971924,-1.7363892,97.0
1129,-1.8540373,-0.10025787,-0.8095398,-1.63125,-0.3971924,-1.7363892,97.0
1130,-1.8540373,-0.10025787,-0.8095398,-1.7894897,-0.3079834,-1.6567383,97.0
1131,-1.8985131,-0.79376984,-0.6902008,-1.7894897,-0.3079834,-1.6567383,97.0
1132,-1.8985131,-0.79376984,-0.6902008,-2.0656128,-0.10938721,-1.5261109,97.0
1133,-1.4476435,-1.2411041,-0.52854156,-2.0656128,-0.10938721,-1.5261109,97.0
1134,-1.4476435,-1.2411041,-0.52854156,-2.077295,-0.05522461,-1.4868164,97.0
1135,-0.5141206,-2.4055786,-0.19328308,-2.077295,-0.05522461,-1.4868164,97.0
1136,-0.5141206,-2.4055786,-0.19328308,-1.7884277,0.039294433,-1.3806152,97.0
1137,-0.049821854,-2.5149765,-0.041992188,-1.7884277,0.039294433,-1.3806152,97.0
1138,-0.049821854,-2.5149765,-0.041992188,-1.5993897,0.038232423,-1.3391968,97.0
1139,1.2783554,-2.9966736,0.41666412,-1.5993897,0.038232423,-1.3391968,97.0
1140,1.2783554,-2.9966736,0.41666412,-0.8294312,0.07965088,-1.176709,97.0
1141,1.367423,-2.6340866,0.49868774,-0.8294312,0.07965088,-1.176709,97.0
1142,1.367423,-2.6340866,0.49868774,-0.5586182,0.1178833,-1.1076783,97.0
1143,1.2506523,-2.131256,0.8454323,-0.5586182,0.1178833,-1.1076783,97.0
1144,1.2506523,-2.131256,0.8454323,0.07540283,0.11044922,-0.815625,97.0
1145,0.89566326,-1.5292358,0.75888824,0.07540283,0.11044922,-0.815625,97.0
1146,0.89566326,-1.5292358,0.75888824,0.24851075,0.081774905,-0.70198977,97.0
1147,0.6753931,-0.65649414,0.61304474,0.24851075,0.081774905,-0.70198977,97.0
1148,0.6753931,-0.65649414,0.61304474,0.60322267,0.05522461,-0.32816163,97.0
1149,0.6753931,-0.65649414,0.61304474,0.65632325,0.07115479,-0.17735596,97.0
1150,0.56941605,-0.26900482,0.47001266,0.65632325,0.07115479,-0.17735596,97.0
1151,0.58166814,0.42417908,0.1403923,0.65632325,0.07115479,-0.17735596,97.0
1152,0.58166814,0.42417908,0.1403923,0.72216797,0.095581055,0.33771974,97.0
1153,0.58166814,0.42417908,0.1403923,0.75615233,0.012744141,0.52038574,97.0
1154,0.58166814,0.42417908,0.1403923,0.87615967,0.16567384,0.8400513,97.0
1155,1.6976342,0.35908508,-0.3461914,0.87615967,0.16567384,0.8400513,97.0
1156,1.5283465,1.508995,-1.046669,0.87615967,0.16567384,0.8400513,97.0
1157,1.5283465,1.508995,-1.046669,0.87615967,0.16567384,0.8400513,98.0
1158,1.5283465,1.508995,-1.046669,1.0110352,0.48321533,1.2244996,98.0
1159,1.5283465,1.508995,-1.046669,1.0970582,0.55968016,1.6811646,98.0
1160,1.5283465,1.508995,-1.046669,1.2457398,0.59472656,2.1240234,98.0
1161,0.37121248,1.2071915,-0.8373337,1.2457398,0.59472656,2.1240234,98.0
1162,0.35230446,1.8967819,-1.3693924,1.2457398,0.59472656,2.1240234,98.0
1163,0.35230446,1.8967819,-1.3693924,1.6747925,0.727478,2.6752076,98.0
1164,0.35230446,1.8967819,-1.3693924,1.7990478,0.77951664,2.8281372,98.0
1165,0.35230446,1.8967819,-1.3693924,1.992334,0.8506714,3.2019653,98.0
1166,-0.38014364,2.2909012,-1.297615,1.992334,0.8506714,3.2019653,98.0
1167,-2.2997694,3.5647888,-0.8484192,1.992334,0.8506714,3.2019653,98.0
1168,-2.2997694,3.5647888,-0.8484192,1.9317993,0.8963379,3.270996,98.0
1169,-2.2997694,3.5647888,-0.8484192,1.5303589,0.991919,3.349585,98.0
1170,-2.2997694,3.5647888,-0.8484192,1.4050416,0.9834229,3.3145387,98.0
1171,-2.6415246,3.0346909,-0.7864113,1.4050416,0.9834229,3.3145387,98.0
1172,-2.6415246,3.0346909,-0.7864113,1.3816773,0.91120607,3.1902833,98.0
1173,-2.681396,2.5099792,-0.7598305,1.3816773,0.91120607,3.1902833,98.0
1174,-2.681396,2.5099792,-0.7598305,1.3147706,0.7625244,2.89823,98.0
1175,-2.4350338,2.0456772,-0.6466446,1.3147706,0.7625244,2.89823,98.0
1176,-2.4350338,2.0456772,-0.6466446,1.1905152,0.7805786,2.721936,98.0
1177,-2.1082566,1.7496185,-0.64334106,1.1905152,0.7805786,2.721936,98.0
1178,-2.1082566,1.7496185,-0.64334106,1.2510499,0.6754395,2.4182007,98.0
1179,-1.9284511,1.658989,-0.6574707,1.2510499,0.6754395,2.4182007,98.0
1180,-1.9284511,1.658989,-0.6574707,1.1140503,0.51826173,2.1229615,98.0
1181,-1.6099118,1.5614929,-0.67121506,1.1140503,0.51826173,2.1229615,98.0
1182,-1.6099118,1.5614929,-0.67121506,0.9515625,0.49064943,1.8861328,98.0
1183,-1.0283713,1.4946289,-0.56944275,0.9515625,0.49064943,1.8861328,98.0
1184,-1.0283713,1.4946289,-0.56944275,0.8230591,0.40462646,1.5208008,98.0
1185,-0.40012628,1.4002075,-0.25502014,0.8230591,0.40462646,1.5208008,98.0
1186,-0.40012628,1.4002075,-0.25502014,0.59047854,0.3451538,1.1459106,98.0
1187,0.84675694,1.0389862,0.10306549,0.59047854,0.3451538,1.1459106,98.0
1188,0.84675694,1.0389862,0.10306549,0.26337892,0.21346436,0.48640138,98.0
1189,1.1865975,0.74253845,0.12893677,0.26337892,0.21346436,0.48640138,98.0
1190,1.1865975,0.74253845,0.12893677,0.12850343,0.22408448,0.27612305,98.0
1191,1.8130352,0.433815,0.19571686,0.12850343,0.22408448,0.27612305,98.0
1192,1.8130352,0.433815,0.19571686,-0.31435546,0.3525879,-0.04460449,98.0
1193,1.5835824,0.44896698,0.28618622,-0.31435546,0.3525879,-0.04460449,98.0
1194,1.5835824,0.44896698,0.28618622,-0.9281983,0.43754885,-0.26125488,98.0
1195,0.69793284,0.5348587,0.38845825,-0.9281983,0.43754885,-0.26125488,98.0
1196,0.69793284,0.5348587,0.38845825,-1.5622193,0.36002198,-0.6180908,98.0
1197,0.34342933,0.122528076,0.3607788,-1.5622193,0.36002198,-0.6180908,98.0
1198,0.34342933,0.122528076,0.3607788,-1.8925049,0.012744141,-1.2085694,98.0
1199,0.9081907,-0.8868942,0.22518158,-1.8925049,0.012744141,-1.2085694,98.0
1200,0.9081907,-0.8868942,0.22518158,-2.0358765,-0.16036378,-1.8808228,98.0
1201,1.1428125,-1.8788147,0.20730591,-2.0358765,-0.16036378,-1.8808228,98.0
1202,1.1428125,-1.8788147,0.20730591,-2.252527,-0.32709962,-2.266333,98.0
1203,0.586833,-2.2773666,0.40511322,-2.252527,-0.32709962,-2.266333,98.0
1204,0.586833,-2.2773666,0.40511322,-2.3343017,-0.721106,-2.51803,98.0
1205,0.2520957,-2.174797,0.7943268,-2.3343017,-0.721106,-2.51803,98.0
1206,0.2520957,-2.174797,0.7943268,-1.99552,-1.2021973,-2.8780518,98.0
1207,0.5871134,-2.0008774,1.3753052,-1.99552,-1.2021973,-2.8780518,98.0
1208,0.5871134,-2.0008774,1.3753052,-1.454956,-1.5346069,-3.1892211,98.0
1209,1.0259407,-1.8225555,1.9625473,-1.454956,-1.5346069,-3.1892211,98.0
1210,1.0259407,-1.8225555,1.9625473,-0.8496094,-1.6153198,-3.2338257,98.0
1211,1.0785284,-1.4744415,2.0958328,-0.8496094,-1.6153198,-3.2338257,98.0
1212,1.0785284,-1.4744415,2.0958328,-0.47471926,-1.447522,-3.1382446,98.0
1213,0.6293266,-0.9648895,1.4013214,-0.47471926,-1.447522,-3.1382446,98.0
1214,0.6293266,-0.9648895,1.4013214,-0.4428589,-1.2181275,-2.9577026,98.0
1215,-0.12570143,-0.54608154,0.1582756,-0.4428589,-1.2181275,-2.9577026,98.0
1216,-0.12570143,-0.54608154,0.1582756,-0.7051758,-0.98236084,-2.6943238,98.0
1217,-0.81986046,-0.30012512,-0.8894348,-0.7051758,-0.98236084,-2.6943238,98.0
1218,-0.81986046,-0.30012512,-0.8894348,-1.0641358,-0.7540283,-2.4914796,98.0
1219,-1.239006,-0.24645996,-1.2921371,-1.0641358,-0.7540283,-2.4914796,98.0
1220,-1.239006,-0.24645996,-1.2921371,-1.3445069,-0.56392825,-2.352356,98.0
1221,-1.3091004,-0.4488678,-1.1142044,-1.3445069,-0.56392825,-2.352356,98.0
1222,-1.3091004,-0.4488678,-1.1142044,-1.4910644,-0.45878908,-2.2259767,98.0
1223,-1.0410547,-0.8595352,-0.59981155,-1.4910644,-0.45878908,-2.2259767,98.0
1224,-1.0410547,-0.8595352,-0.59981155,-1.5186768,-0.33878174,-2.1250856,98.0
1225,-0.50487757,-1.4502869,0.03488159,-1.5186768,-0.33878174,-2.1250856,98.0
1226,-0.50487757,-1.4502869,0.03488159,-1.5792115,-0.18372802,-1.9817139,98.0
1227,0.18249941,-2.0895462,0.490345,-1.5792115,-0.18372802,-1.9817139,98.0
1228,0.18249941,-2.0895462,0.490345,-1.447522,-0.06903076,-1.8202881,98.0
1229,0.927042,-2.5356598,0.55594635,-1.447522,-0.06903076,-1.8202881,98.0
1230,0.927042,-2.5356598,0.55594635,-1.0365235,-0.027612304,-1.6790406,98.0
1231,1.4517531,-2.63414,0.37973022,-1.0365235,-0.027612304,-1.6790406,98.0
1232,1.4517531,-2.63414,0.37973022,-0.5235718,0.02442627,-1.4921265,98.0
1233,1.510426,-2.3342896,0.290905,-0.5235718,0.02442627,-1.4921265,98.0
1234,1.510426,-2.3342896,0.290905,-0.07540283,0.021240234,-1.2191895,98.0
1235,1.3547153,-1.7570038,0.39255142,-0.07540283,0.021240234,-1.2191895,98.0
1236,1.3547153,-1.7570038,0.39255142,0.25700685,0.021240234,-0.8772217,98.0
1237,1.2544389,-1.1278152,0.48120117,0.25700685,0.021240234,-0.8772217,98.0
1238,1.2544389,-1.1278152,0.48120117,0.50870365,0.06584473,-0.5246338,98.0
1239,1.0221791,-0.5384979,0.38980865,0.50870365,0.06584473,-0.5246338,98.0
1240,1.0221791,-0.5384979,0.38980865,0.6754395,0.13062744,-0.13168946,98.0
1241,0.54302406,0.04408264,0.15249634,0.6754395,0.13062744,-0.13168946,98.0
1242,0.54302406,0.04408264,0.15249634,0.68712157,0.19116211,0.3069214,98.0
1243,0.46546173,0.48101807,-0.18514252,0.68712157,0.19116211,0.3069214,98.0
1244,0.46546173,0.48101807,-0.18514252,0.6966797,0.121069334,0.7083618,98.0
1245,1.4987488,0.5101547,-0.5679512,0.6966797,0.121069334,0.7083618,98.0
1246,1.4987488,0.5101547,-0.5679512,0.8867798,0.1709839,1.0959961,98.0
1247,2.34729,0.39840698,-0.74752426,0.8867798,0.1709839,1.0959961,98.0
1248,2.34729,0.39840698,-0.74752426,1.0906861,0.45772704,1.5080566,98.0
1249,1.6472654,0.63517,-0.6390343,1.0906861,0.45772704,1.5080566,98.0
1250,1.6472654,0.63517,-0.6390343,1.273352,0.56605226,1.9625977,98.0
1251,0.47159672,1.1158752,-0.5848465,1.273352,0.56605226,1.9625977,98.0
1252,0.47159672,1.1158752,-0.5848465,1.5855836,0.6053467,2.3767822,98.0
1253,0.05488968,1.4782867,-0.798542,1.5855836,0.6053467,2.3767822,98.0
1254,0.05488968,1.4782867,-0.798542,2.077295,0.62340087,2.7006958,98.0
1255,0.122170925,1.7456055,-1.0976372,2.077295,0.62340087,2.7006958,98.0
1256,0.122170925,1.7456055,-1.0976372,2.6412232,0.6924316,3.0288575,98.0
1257,0.016889572,2.2822647,-1.2249146,2.6412232,0.6924316,3.0288575,98.0
1258,0.016889572,2.2822647,-1.2249146,3.0808961,0.7593384,3.2869263,98.0
1259,-0.39151764,3.0017853,-1.1529427,3.0808961,0.7593384,3.2869263,98.0
1260,-0.39151764,3.0017853,-1.1529427,2.897168,0.9133301,3.5088868,98.0
1261,-0.9954653,3.4003525,-0.97911453,2.897168,0.9133301,3.5088868,98.0
1262,-0.9954653,3.4003525,-0.97911453,2.2801392,1.0365235,3.5694215,98.0
1263,-0.9954653,3.4003525,-0.97911453,2.2801392,1.0365235,3.5694215,97.0
1264,-1.7162576,3.2674637,-0.83161926,2.2801392,1.0365235,3.5694215,97.0
1265,-1.7162576,3.2674637,-0.83161926,1.8298463,1.0991821,3.536499,97.0
1266,-2.3335042,2.798355,-0.7414322,1.8298463,1.0991821,3.536499,97.0
1267,-2.3335042,2.798355,-0.7414322,1.6068238,1.0110352,3.3633912,97.0
1268,-2.6389103,2.482689,-0.7409973,1.6068238,1.0110352,3.3633912,97.0
1269,-2.6389103,2.482689,-0.7409973,1.7109009,0.82730716,3.0235474,97.0
1270,-2.5733962,2.2266312,-0.7504654,1.7109009,0.82730716,3.0235474,97.0
1271,-2.5733962,2.2266312,-0.7504654,1.6875366,0.72641605,2.7580445,97.0
1272,-2.1295667,1.6977615,-0.54590607,1.6875366,0.72641605,2.7580445,97.0
1273,-2.1295667,1.6977615,-0.54590607,1.3466309,0.6796875,2.5552003,97.0
1274,-1.5676427,1.2474136,-0.3627739,1.3466309,0.6796875,2.5552003,97.0
1275,-1.5676427,1.2474136,-0.3627739,1.2319336,0.6265869,2.3077514,97.0
1276,-1.2081182,1.1964645,-0.2847023,1.2319336,0.6265869,2.3077514,97.0
1277,-1.2081182,1.1964645,-0.2847023,1.0620117,0.4991455,1.9286133,97.0
1278,-0.8748808,1.1278381,-0.21238327,1.0620117,0.4991455,1.9286133,97.0
1279,-0.8748808,1.1278381,-0.21238327,0.540564,0.46516114,1.5123047,97.0
1280,-0.3495872,0.85743713,-0.22130966,0.540564,0.46516114,1.5123047,97.0
1281,-0.3495872,0.85743713,-0.22130966,0.4800293,0.4248047,1.0715698,97.0
1282,0.061236024,0.6313858,-0.08724213,0.4800293,0.4248047,1.0715698,97.0
1283,0.061236024,0.6313858,-0.08724213,0.18372802,0.43011475,0.64570314,97.0
1284,0.32685745,0.518219,0.185318,0.18372802,0.43011475,0.64570314,97.0
1285,0.32685745,0.518219,0.185318,-0.16567384,0.42161867,0.27399904,97.0
1286,0.64040446,0.42912292,0.37750244,-0.16567384,0.42161867,0.27399904,97.0
1287,0.64040446,0.42912292,0.37750244,-0.5299439,0.4322388,-0.13912354,97.0
1288,0.79199886,0.27415466,0.41566467,-0.5299439,0.4322388,-0.13912354,97.0
1289,0.79199886,0.27415466,0.41566467,-1.0046631,0.49383545,-0.5171997,97.0
1290,0.45236135,0.046081543,0.46035385,-1.0046631,0.49383545,-0.5171997,97.0
1291,0.45236135,0.046081543,0.46035385,-1.5091187,0.4970215,-0.84111327,97.0
1292,-0.102197886,-0.26904297,0.597641,-1.5091187,0.4970215,-0.84111327,97.0
1293,-0.102197886,-0.26904297,0.597641,-1.8234742,0.36745605,-1.2436157,97.0
1294,0.040507317,-0.756279,0.70108795,-1.8234742,0.36745605,-1.2436157,97.0
1295,0.040507317,-0.756279,0.70108795,-1.987024,0.043542482,-1.8638306,97.0
1296,0.97253036,-1.4752502,0.6297188,-1.987024,0.043542482,-1.8638306,97.0
1297,0.97253036,-1.4752502,0.6297188,-2.175,-0.098767094,-2.5424562,97.0
1298,1.6301606,-2.1750336,0.4919815,-2.175,-0.098767094,-2.5424562,97.0
1299,1.6301606,-2.1750336,0.4919815,-2.5626342,-0.2814331,-2.998059,97.0
1300,1.5348291,-2.5750732,0.5205002,-2.5626342,-0.2814331,-2.998059,97.0
1301,1.5348291,-2.5750732,0.5205002,-2.7357423,-0.6573853,-3.3325927,97.0
1302,1.3569407,-2.7293243,0.89735794,-2.7357423,-0.6573853,-3.3325927,97.0
1303,1.3569407,-2.7293243,0.89735794,-2.433069,-1.084314,-3.714917,97.0
1304,1.4331355,-2.7056274,1.6282387,-2.433069,-1.084314,-3.714917,97.0
1305,1.4331355,-2.7056274,1.6282387,-1.6970948,-1.3753052,-3.911389,97.0
1306,1.4316401,-2.3657074,2.4100723,-1.6970948,-1.3753052,-3.911389,97.0
1307,1.4316401,-2.3657074,2.4100723,-0.7688965,-1.5133667,-3.983606,97.0
1308,1.1681881,-1.7221832,2.6595917,-0.7688965,-1.5133667,-3.983606,97.0
1309,1.1681881,-1.7221832,2.6595917,-0.21877442,-1.3296387,-3.8370483,97.0
1310,0.42508984,-0.9732895,1.9682846,-0.21877442,-1.3296387,-3.8370483,97.0
1311,0.42508984,-0.9732895,1.9682846,-0.33134767,-0.9685547,-3.4589722,97.0
1312,-0.7744303,-0.36941528,0.67235565,-0.33134767,-0.9685547,-3.4589722,97.0
1313,-0.7744303,-0.36941528,0.67235565,-0.8591675,-0.6605713,-3.0224855,97.0
1314,-1.8569221,-0.041641235,-0.48640823,-0.8591675,-0.6605713,-3.0224855,97.0
1315,-1.8569221,-0.041641235,-0.48640823,-1.3827393,-0.36533204,-2.6401613,97.0
1316,-2.3140044,-0.027259827,-1.1328163,-1.3827393,-0.36533204,-2.6401613,97.0
1317,-2.3140044,-0.027259827,-1.1328163,-1.7406372,-0.1444336,-2.3364258,97.0
1318,-2.150288,-0.36825562,-1.2883949,-1.7406372,-0.1444336,-2.3364258,97.0
1319,-2.150288,-0.36825562,-1.2883949,-1.9615357,0.015930176,-2.083667,97.0
1320,-1.6228185,-1.0226212,-1.1103935,-1.9615357,0.015930176,-2.083667,97.0
1321,-1.6228185,-1.0226212,-1.1103935,-2.0188844,0.1178833,-1.8436524,97.0
1322,-0.95572567,-1.8410187,-0.7428436,-2.0188844,0.1178833,-1.8436524,97.0
1323,-0.95572567,-1.8410187,-0.7428436,-1.8818848,0.22833252,-1.5622193,97.0
1324,-0.25714636,-2.557457,-0.31649017,-1.8818848,0.22833252,-1.5622193,97.0
1325,-0.25714636,-2.557457,-0.31649017,-1.5526612,0.29948732,-1.2457398,97.0
1326,0.4156208,-2.916275,-0.055892944,-1.5526612,0.29948732,-1.2457398,97.0
1327,0.4156208,-2.916275,-0.055892944,-1.0524536,0.32709962,-0.9515625,97.0
1328,0.8995743,-2.8086777,0.039527893,-1.0524536,0.32709962,-0.9515625,97.0
1329,0.8995743,-2.8086777,0.039527893,-0.4694092,0.3154175,-0.70305175,97.0
1330,0.9111755,-2.2378464,0.1912651,-0.4694092,0.3154175,-0.70305175,97.0
1331,0.9111755,-2.2378464,0.1912651,-0.0722168,0.29205322,-0.47471926,97.0
1332,0.5756812,-1.4218826,0.4688797,-0.0722168,0.29205322,-0.47471926,97.0
1333,0.5756812,-1.4218826,0.4688797,0.13275146,0.2357666,-0.22833252,97.0
1334,0.32317924,-0.69325256,0.6695633,0.13275146,0.2357666,-0.22833252,97.0
1335,0.32317924,-0.69325256,0.6695633,0.26975098,0.21558838,0.0031860352,97.0
1336,0.20016932,-0.15927887,0.6440735,0.26975098,0.21558838,0.0031860352,97.0
1337,0.20016932,-0.15927887,0.6440735,0.44498292,0.1709839,0.22939454,97.0
1338,0.20016932,-0.15927887,0.6440735,0.5012695,0.13062744,0.4970215,97.0
1339,0.036160946,0.26004028,0.47812653,0.5012695,0.13062744,0.4970215,97.0
1340,3.064207,0.52789307,-0.58509064,0.5012695,0.13062744,0.4970215,97.0
1341,3.064207,0.52789307,-0.58509064,0.5012695,0.13062744,0.4970215,97.0
1342,3.064207,0.52789307,-0.58509064,0.45560303,-0.022302246,0.81987303,97.0
1343,3.064207,0.52789307,-0.58509064,0.5214478,0.06478272,1.1915772,97.0
1344,3.064207,0.52789307,-0.58509064,0.6117188,0.31010744,1.6450561,97.0
1345,2.4513655,0.4223175,-0.46807098,0.6117188,0.31010744,1.6450561,97.0
1346,0.057344913,1.8275146,-0.41846466,0.6117188,0.31010744,1.6450561,97.0
1347,0.057344913,1.8275146,-0.41846466,0.6149048,0.40356445,2.1526978,97.0
1348,0.057344913,1.8275146,-0.41846466,0.71579593,0.41737062,2.6008668,97.0
1349,0.057344913,1.8275146,-0.41846466,1.0736939,0.4258667,2.9470825,97.0
1350,0.21395445,1.6584854,-0.6447296,1.0736939,0.4258667,2.9470825,97.0
1351,0.21395445,1.6584854,-0.6447296,1.454956,0.48746338,3.2178955,97.0
1352,-0.0846591,1.6813889,-0.60337067,1.454956,0.48746338,3.2178955,97.0
1353,-0.0846591,1.6813889,-0.60337067,1.6939087,0.544812,3.4196777,97.0
1354,-0.7276392,1.9376678,-0.41187286,1.6939087,0.544812,3.4196777,97.0
1355,-0.7276392,1.9376678,-0.41187286,1.7852417,0.57242435,3.5099487,97.0
1356,-1.3001046,2.2561798,-0.20741653,1.7852417,0.57242435,3.5099487,97.0
1357,-1.3001046,2.2561798,-0.20741653,1.7459472,0.59472656,3.4536622,97.0
1358,-1.7097738,2.4716187,-0.0485878,1.7459472,0.59472656,3.4536622,97.0
1359,-1.7097738,2.4716187,-0.0485878,1.6578003,0.5883545,3.3272827,97.0
1360,-2.0351408,2.3616714,-0.037281036,1.6578003,0.5883545,3.3272827,97.0
1361,-2.0351408,2.3616714,-0.037281036,1.5016845,0.51932377,3.1085083,97.0
1362,-2.2960203,1.8986282,-0.23584366,1.5016845,0.51932377,3.1085083,97.0
1363,-2.2960203,1.8986282,-0.23584366,1.2287476,0.41524658,2.9279664,97.0
1364,-2.2108765,1.418869,-0.46936035,1.2287476,0.41524658,2.9279664,97.0
1365,-2.2108765,1.418869,-0.46936035,1.2776002,0.2803711,2.6964478,97.0
1366,-1.8987182,1.3668594,-0.5460968,1.2776002,0.2803711,2.6964478,97.0
1367,-1.8987182,1.3668594,-0.5460968,1.4517701,0.21346436,2.357666,97.0
1368,-1.604436,1.5596695,-0.49228668,1.4517701,0.21346436,2.357666,97.0
1369,-1.604436,1.5596695,-0.49228668,1.4284058,0.098767094,2.0093262,97.0
1370,-1.205375,1.6151962,-0.4024353,1.4284058,0.098767094,2.0093262,97.0
1371,-1.205375,1.6151962,-0.4024353,1.2499878,0.058410645,1.7055908,97.0
1372,-0.72708076,1.5485687,-0.28474045,1.2499878,0.058410645,1.7055908,97.0
1373,-0.72708076,1.5485687,-0.28474045,0.98236084,0.070092775,1.3742431,97.0
1374,-0.30020714,1.4002914,-0.17482758,0.98236084,0.070092775,1.3742431,97.0
1375,-0.30020714,1.4002914,-0.17482758,0.7083618,0.12319336,1.0163453,97.0
1376,0.0075149536,1.1910706,-0.13019562,0.7083618,0.12319336,1.0163453,97.0
1377,0.0075149536,1.1910706,-0.13019562,0.4088745,0.1539917,0.67225343,97.0
1378,0.31332397,0.9503555,-0.1384201,0.4088745,0.1539917,0.67225343,97.0
1379,0.31332397,0.9503555,-0.1384201,0.06584473,0.12531738,0.29311523,97.0
1380,0.31332397,0.9503555,-0.1384201,-0.28355715,0.13168946,-0.13912354,97.0
1381,0.75213623,0.67604065,-0.11526489,-0.28355715,0.13168946,-0.13912354,97.0
1382,0.70054936,-0.22434235,0.6993027,-0.28355715,0.13168946,-0.13912354,97.0
1383,0.70054936,-0.22434235,0.6993027,-0.7805786,0.21877442,-0.5564942,97.0
1384,0.70054936,-0.22434235,0.6993027,-1.2244996,0.2888672,-0.96430665,97.0
1385,0.70054936,-0.22434235,0.6993027,-1.5208008,0.26762697,-1.4315919,97.0
1386,0.65183353,-0.7088165,0.60510635,-1.5208008,0.26762697,-1.4315919,97.0
1387,0.65183353,-0.7088165,0.60510635,-1.8404664,0.023364259,-2.080481,97.0
1388,1.4800972,-1.3392715,0.090286255,-1.8404664,0.023364259,-2.080481,97.0
1389,1.4800972,-1.3392715,0.090286255,-2.175,-0.08602295,-2.6837037,97.0
1390,2.0479693,-2.006668,-0.29037094,-2.175,-0.08602295,-2.6837037,97.0
1391,2.0479693,-2.006668,-0.29037094,-2.5806885,-0.33134767,-2.9683228,97.0
1392,2.0516934,-2.4833755,-0.16314697,-2.5806885,-0.33134767,-2.9683228,97.0
1393,2.0516934,-2.4833755,-0.16314697,-2.5998046,-0.72854006,-3.175415,97.0
1394,2.0910618,-2.6973114,0.49800873,-2.5998046,-0.72854006,-3.175415,97.0
1395,2.0910618,-2.6973114,0.49800873,-2.0167603,-1.0662597,-3.4186158,97.0
1396,2.0933328,-2.5922241,1.465313,-2.0167603,-1.0662597,-3.4186158,97.0
1397,2.0933328,-2.5922241,1.465313,-1.2351197,-1.2393677,-3.5131347,97.0
1398,1.6401205,-2.163414,2.132225,-1.2351197,-1.2393677,-3.5131347,97.0
1399,1.6401205,-2.163414,2.132225,-0.68712157,-1.1883911,-3.3325927,97.0
1400,0.72117853,-1.4548187,1.8913269,-0.68712157,-1.1883911,-3.3325927,97.0
1401,0.72117853,-1.4548187,1.8913269,-0.40993652,-1.0067872,-3.0373535,97.0
1402,-0.43793774,-0.7195816,0.86683273,-0.40993652,-1.0067872,-3.0373535,97.0
1403,-0.43793774,-0.7195816,0.86683273,-0.5649902,-0.7965088,-2.7856567,97.0
1404,-1.5366297,-0.29167938,-0.2278862,-0.5649902,-0.7965088,-2.7856567,97.0
1405,-1.5366297,-0.29167938,-0.2278862,-0.85491943,-0.62127686,-2.4989135,97.0
1406,-2.2114937,-0.18215942,-0.8434448,-0.85491943,-0.62127686,-2.4989135,97.0
1407,-2.2114937,-0.18215942,-0.8434448,-1.2287476,-0.44179687,-2.2302246,97.0
1408,-2.2613459,-0.30529785,-0.98176575,-1.2287476,-0.44179687,-2.2302246,97.0
1409,-2.2613459,-0.30529785,-0.98176575,-1.5165528,-0.25913087,-2.0220704,97.0
1410,-1.7597482,-0.62537384,-0.92917633,-1.5165528,-0.25913087,-2.0220704,97.0
1411,-1.7597482,-0.62537384,-0.92917633,-1.6248779,-0.17629395,-1.8670167,97.0
1412,-0.91349936,-1.1134567,-0.79998016,-1.6248779,-0.17629395,-1.8670167,97.0
1413,-0.91349936,-1.1134567,-0.79998016,-1.5176147,-0.11151123,-1.7618774,97.0
1414,-0.0062510967,-1.7067184,-0.5481758,-1.5176147,-0.11151123,-1.7618774,97.0
1415,-0.0062510967,-1.7067184,-0.5481758,-1.2839721,-0.035046387,-1.630188,97.0
1416,0.75692534,-2.1927032,-0.24752426,-1.2839721,-0.035046387,-1.630188,97.0
1417,0.75692534,-2.1927032,-0.24752426,-0.9218262,-0.004248047,-1.4761963,97.0
1418,1.3032575,-2.374855,0.042339325,-0.9218262,-0.004248047,-1.4761963,97.0
1419,1.3032575,-2.374855,0.042339325,-0.5012695,0.019116212,-1.3391968,97.0
1420,1.4824986,-2.2009964,0.39849472,-0.5012695,0.019116212,-1.3391968,97.0
1421,1.4824986,-2.2009964,0.39849472,-0.11363526,0.059472658,-1.1682129,97.0
1422,1.2947514,-1.759697,0.7562866,-0.11363526,0.059472658,-1.1682129,97.0
1423,1.2947514,-1.759697,0.7562866,0.19328614,0.07965088,-0.94731444,97.0
1424,0.99623823,-1.1964874,0.8943939,0.19328614,0.07965088,-0.94731444,97.0
1425,0.99623823,-1.1964874,0.8943939,0.4322388,0.07752686,-0.6711914,97.0
1426,0.7958553,-0.60726166,0.73895264,0.4322388,0.07752686,-0.6711914,97.0
1427,0.7958553,-0.60726166,0.73895264,0.5522461,0.07965088,-0.32072756,97.0
1428,0.6493428,-0.015090942,0.3811531,0.5522461,0.07965088,-0.32072756,97.0
1429,0.6493428,-0.015090942,0.3811531,0.5501221,0.1263794,0.11469727,97.0
1430,0.45972085,0.5393295,0.024806976,0.5501221,0.1263794,0.11469727,97.0
1431,0.45972085,0.5393295,0.024806976,0.48427734,0.13381349,0.54587406,97.0
1432,0.9505038,0.7690735,-0.28673553,0.48427734,0.13381349,0.54587406,97.0
1433,0.9505038,0.7690735,-0.28673553,0.46728516,0.016992187,0.9281983,97.0
1434,2.090457,0.5655136,-0.55895233,0.46728516,0.016992187,0.9281983,97.0
1435,2.090457,0.5655136,-0.55895233,0.59260255,0.27612305,1.3073364,97.0
1436,2.1460714,0.42185974,-0.55646515,0.59260255,0.27612305,1.3073364,97.0
1437,2.1460714,0.42185974,-0.55646515,0.77314454,0.4598511,1.7416992,97.0
1438,0.94257736,0.63108826,-0.42238235,0.77314454,0.4598511,1.7416992,97.0
1439,0.94257736,0.63108826,-0.42238235,1.0726318,0.5278198,2.1548219,97.0
1440,0.045187473,0.9607773,-0.5928612,1.0726318,0.5278198,2.1548219,97.0
1441,0.045187473,0.9607773,-0.5928612,1.4825684,0.4694092,2.4797974,97.0
1442,-0.04334259,1.2244339,-0.9115219,1.4825684,0.4694092,2.4797974,97.0
1443,-0.04334259,1.2244339,-0.9115219,1.9519776,0.47684327,2.7378662,97.0
1444,-0.13727379,1.5617371,-0.96347046,1.9519776,0.47684327,2.7378662,97.0
1445,-0.13727379,1.5617371,-0.96347046,2.3279297,0.5713623,2.974695,97.0
1446,-0.6610398,2.1033783,-0.7584114,2.3279297,0.5713623,2.974695,97.0
1447,-0.6610398,2.1033783,-0.7584114,2.5105958,0.59897465,3.2051513,97.0
1448,-1.2496452,2.6979218,-0.5536194,2.5105958,0.59897465,3.2051513,97.0
1449,-1.2496452,2.6979218,-0.5536194,2.5105958,0.59897465,3.2051513,98.0
1450,-1.2496452,2.6979218,-0.5536194,2.3916504,0.65207523,3.3209107,98.0
1451,-1.7088714,2.9720917,-0.44769287,2.3916504,0.65207523,3.3209107,98.0
1452,-1.7088714,2.9720917,-0.44769287,2.0231323,0.721106,3.2901123,98.0
1453,-2.0231028,2.766861,-0.42752838,2.0231323,0.721106,3.2901123,98.0
1454,-2.0231028,2.766861,-0.42752838,1.7746216,0.7189819,3.270996,98.0
1455,-2.0935068,2.4219818,-0.52760315,1.7746216,0.7189819,3.270996,98.0
1456,-2.0935068,2.4219818,-0.52760315,1.6705445,0.63614506,3.0607178,98.0
1457,-1.9886727,2.2485962,-0.6515999,1.6705445,0.63614506,3.0607178,98.0
1458,-1.9886727,2.2485962,-0.6515999,1.4857544,0.6000366,2.716626,98.0
1459,-1.8017781,1.9481201,-0.6413994,1.4857544,0.6000366,2.716626,98.0
1460,-1.8017781,1.9481201,-0.6413994,1.4677002,0.51826173,2.5074098,98.0
1461,-1.6598551,1.5476685,-0.48145294,1.4677002,0.51826173,2.5074098,98.0
1462,-1.6598551,1.5476685,-0.48145294,1.260608,0.41524658,2.2812011,98.0
1463,-1.3968295,1.1568604,-0.38914108,1.260608,0.41524658,2.2812011,98.0
1464,-1.3968295,1.1568604,-0.38914108,0.9611206,0.31966552,2.1038454,98.0
1465,-0.85851586,0.91459656,-0.45132828,0.9611206,0.31966552,2.1038454,98.0
1466,-0.85851586,0.91459656,-0.45132828,0.89102787,0.22727051,1.7894897,98.0
1467,-0.4130578,0.9263077,-0.3877945,0.89102787,0.22727051,1.7894897,98.0
1468,-0.4130578,0.9263077,-0.3877945,0.70942384,0.20072022,1.4337158,98.0
1469,-0.22839546,0.9126129,-0.122283936,0.70942384,0.20072022,1.4337158,98.0
1470,-0.22839546,0.9126129,-0.122283936,0.4619751,0.22089843,1.1416626,98.0
1471,-0.16899574,0.78959656,0.11010742,0.4619751,0.22089843,1.1416626,98.0
1472,-0.16899574,0.78959656,0.11010742,0.14655761,0.16885987,0.7678345,98.0
1473,-0.0074501038,0.5631943,0.18151855,0.14655761,0.16885987,0.7678345,98.0
1474,-0.0074501038,0.5631943,0.18151855,-0.15717773,0.035046387,0.3812622,98.0
1475,-0.0074501038,0.5631943,0.18151855,-0.43754885,-0.107263185,-0.04460449,98.0
1476,0.38067317,0.32048798,0.2518158,-0.43754885,-0.107263185,-0.04460449,98.0
1477,0.9553199,0.05391693,1.281189,-0.43754885,-0.107263185,-0.04460449,98.0
1478,0.9553199,0.05391693,1.281189,-0.7434082,-0.15717773,-0.4619751,98.0
1479,0.9553199,0.05391693,1.281189,-1.0662597,-0.23045655,-0.9154541,98.0
1480,0.9553199,0.05391693,1.281189,-1.3944215,-0.5872925,-1.6524903,98.0
1481,1.5984845,-0.2465744,1.4329224,-1.3944215,-0.5872925,-1.6524903,98.0
1482,3.6941564,-2.5173187,0.8796768,-1.3944215,-0.5872925,-1.6524903,98.0
1483,3.6941564,-2.5173187,0.8796768,-1.6832886,-0.6531372,-2.442627,98.0
1484,3.6941564,-2.5173187,0.8796768,-1.9233032,-0.7072998,-2.7835329,98.0
1485,3.6941564,-2.5173187,0.8796768,-1.8500245,-0.9568726,-2.8610597,98.0
1486,2.4344635,-2.1116943,1.6034508,-1.8500245,-0.9568726,-2.8610597,98.0
1487,2.4344635,-2.1116943,1.6034508,-1.4379638,-1.0535157,-2.8801758,98.0
1488,1.7058353,-1.5104141,2.018879,-1.4379638,-1.0535157,-2.8801758,98.0
1489,1.7058353,-1.5104141,2.018879,-1.0630738,-1.0301514,-2.8207033,98.0
1490,1.0618119,-1.0520172,1.8234253,-1.0630738,-1.0301514,-2.8207033,98.0
1491,1.0618119,-1.0520172,1.8234253,-0.8814697,-0.8421753,-2.5690064,98.0
1492,0.19654417,-0.744545,1.0519638,-0.8814697,-0.8421753,-2.5690064,98.0
1493,0.19654417,-0.744545,1.0519638,-0.8442993,-0.57561034,-2.264209,98.0
1494,-0.7555456,-0.4875183,-0.043354034,-0.8442993,-0.57561034,-2.264209,98.0
1495,-0.7555456,-0.4875183,-0.043354034,-0.9866089,-0.38232422,-2.0624268,98.0
1496,-1.488311,-0.36392975,-0.93426514,-0.9866089,-0.38232422,-2.0624268,98.0
1497,-1.488311,-0.36392975,-0.93426514,-1.3328247,-0.20178223,-1.9371094,98.0
1498,-1.8850336,-0.46554565,-1.2925186,-1.3328247,-0.20178223,-1.9371094,98.0
1499,-1.8850336,-0.46554565,-1.2925186,-1.724707,-0.039294433,-1.8755127,98.0
1500,-2.0079415,-0.81612396,-1.2013855,-1.724707,-0.039294433,-1.8755127,98.0
1501,-2.0079415,-0.81612396,-1.2013855,-1.9562256,0.059472658,-1.8192261,98.0
1502,-1.8937433,-1.3316956,-0.8496704,-1.9562256,0.059472658,-1.8192261,98.0
1503,-1.8937433,-1.3316956,-0.8496704,-1.9679078,0.093457036,-1.7884277,98.0
1504,-1.4549727,-1.8718338,-0.44105148,-1.9679078,0.093457036,-1.7884277,98.0
1505,-1.4549727,-1.8718338,-0.44105148,-1.8011719,0.07965088,-1.7671875,98.0
1506,-0.64220095,-2.3022766,-0.15715027,-1.8011719,0.07965088,-1.7671875,98.0
1507,-0.64220095,-2.3022766,-0.15715027,-1.5101807,0.0361084,-1.725769,98.0
1508,0.39358795,-2.525406,0.027389526,-1.5101807,0.0361084,-1.725769,98.0
1509,0.39358795,-2.525406,0.027389526,-1.081128,-0.008496094,-1.6514282,98.0
1510,1.218508,-2.4735107,0.22260666,-1.081128,-0.008496094,-1.6514282,98.0
1511,1.218508,-2.4735107,0.22260666,-0.5671143,-0.013806152,-1.5675293,98.0
1512,1.4868426,-2.1050186,0.41622925,-0.5671143,-0.013806152,-1.5675293,98.0
1513,1.4868426,-2.1050186,0.41622925,-0.13275146,-0.06584473,-1.4390259,98.0
1514,1.2693934,-1.5006638,0.5733032,-0.13275146,-0.06584473,-1.4390259,98.0
1515,1.2693934,-1.5006638,0.5733032,0.16885987,-0.10301514,-1.2574219,98.0
1516,0.9980097,-0.8788986,0.65729904,0.16885987,-0.10301514,-1.2574219,98.0
1517,0.9980097,-0.8788986,0.65729904,0.30267334,-0.13487549,-1.0131592,98.0
1518,0.92914486,-0.42043304,0.6250458,0.30267334,-0.13487549,-1.0131592,98.0
1519,0.92914486,-0.42043304,0.6250458,0.3440918,-0.1083252,-0.70942384,98.0
1520,0.86045456,-0.13280487,0.49308777,0.3440918,-0.1083252,-0.70942384,98.0
1521,0.86045456,-0.13280487,0.49308777,0.3462158,-0.03079834,-0.3525879,98.0
1522,0.5712371,0.13170624,0.30799866,0.3462158,-0.03079834,-0.3525879,98.0
1523,0.5712371,0.13170624,0.30799866,0.29311523,0.028674318,0.052038576,98.0
1524,0.6418896,0.36205292,0.07783127,0.29311523,0.028674318,0.052038576,98.0
1525,0.6418896,0.36205292,0.07783127,0.2548828,-0.07752686,0.38444826,98.0
1526,1.6466417,0.33776093,-0.259449,0.2548828,-0.07752686,0.38444826,98.0
1527,1.6466417,0.33776093,-0.259449,0.31860352,0.032922365,0.6818115,98.0
1528,2.2145305,0.18376923,-0.40402985,0.31860352,0.032922365,0.6818115,98.0
1529,2.2145305,0.18376923,-0.40402985,0.4067505,0.3069214,1.0609497,98.0
1530,1.3764582,0.25535583,-0.22229767,0.4067505,0.3069214,1.0609497,98.0
1531,1.3764582,0.25535583,-0.22229767,0.56605226,0.40250245,1.5016845,98.0
1532,0.38759232,0.5113983,-0.23072052,0.56605226,0.40250245,1.5016845,98.0
1533,0.38759232,0.5113983,-0.23072052,0.9260742,0.4343628,1.8925049,98.0
1534,0.028482437,0.77941895,-0.53175735,0.9260742,0.4343628,1.8925049,98.0
1535,0.028482437,0.77941895,-0.53175735,1.3625611,0.48427734,2.2217286,98.0
1536,-0.17759228,1.0813446,-0.77962875,1.3625611,0.48427734,2.2217286,98.0
1537,-0.17759228,1.0813446,-0.77962875,1.7480713,0.54375,2.5445802,98.0
1538,-0.51243496,1.5186005,-0.87088394,1.7480713,0.54375,2.5445802,98.0
1539,-0.51243496,1.5186005,-0.87088394,2.0263183,0.56817627,2.8568115,98.0
1540,-0.84880304,2.0428238,-0.8823395,2.0263183,0.56817627,2.8568115,98.0
1541,-0.84880304,2.0428238,-0.8823395,1.9902099,0.62764895,3.0479736,98.0
1542,-1.2177019,2.445282,-0.7620735,1.9902099,0.62764895,3.0479736,98.0
1543,-1.2177019,2.445282,-0.7620735,1.7013428,0.6860596,3.0978882,98.0
1544,-1.6909094,2.4295425,-0.4638214,1.7013428,0.6860596,3.0978882,98.0
1545,-1.6909094,2.4295425,-0.4638214,1.3264526,0.727478,3.0490358,98.0
1546,-2.066607,2.0269852,-0.21435547,1.3264526,0.727478,3.0490358,98.0
1547,-2.066607,2.0269852,-0.21435547,1.2468017,0.6924316,3.0065553,98.0
1548,-2.066607,2.0269852,-0.21435547,1.2468017,0.6924316,3.0065553,98.0
1549,-2.177126,1.5491867,-0.17898178,1.2468017,0.6924316,3.0065553,98.0
1550,-2.177126,1.5491867,-0.17898178,1.1958252,0.60959476,2.8589356,98.0
1551,-2.0833511,1.4693298,-0.37163925,1.1958252,0.60959476,2.8589356,98.0
1552,-2.0833511,1.4693298,-0.37163925,1.540979,0.44710693,2.5488281,98.0
1553,-1.8459167,1.6013336,-0.41109467,1.540979,0.44710693,2.5488281,98.0
1554,-1.8459167,1.6013336,-0.41109467,1.2999023,0.40250245,2.2344728,98.0
1555,-1.4490113,1.520935,-0.21878052,1.2999023,0.40250245,2.2344728,98.0
1556,-1.4490113,1.520935,-0.21878052,1.2595459,0.32497558,1.9530395,98.0
1557,-0.989275,1.4932632,-0.13560486,1.2595459,0.32497558,1.9530395,98.0
1558,-0.989275,1.4932632,-0.13560486,0.99510497,0.24213867,1.545227,98.0
1559,-0.5961685,1.5125046,-0.099681854,0.99510497,0.24213867,1.545227,98.0
1560,-0.5961685,1.5125046,-0.099681854,0.6669434,0.16673584,1.1862671,98.0
1561,-0.27767944,1.1810455,0.11333084,0.6669434,0.16673584,1.1862671,98.0
1562,-0.27767944,1.1810455,0.11333084,0.3079834,0.1539917,0.95793456,98.0
1563,0.103137255,0.57255554,0.3377838,0.3079834,0.1539917,0.95793456,98.0
1564,0.103137255,0.57255554,0.3377838,-0.060534667,0.25806886,0.6988037,98.0
1565,0.103137255,0.57255554,0.3377838,-0.20072022,0.29099122,0.33878174,98.0
1566,0.53556156,0.16587067,0.3254013,-0.20072022,0.29099122,0.33878174,98.0
1567,1.0487494,0.010002136,0.36371613,-0.20072022,0.29099122,0.33878174,98.0
1568,1.0487494,0.010002136,0.36371613,-0.5055176,0.271875,-0.087084964,98.0
1569,1.0487494,0.010002136,0.36371613,-0.9547486,0.3069214,-0.45454103,98.0
1570,1.0487494,0.010002136,0.36371613,-1.3476928,0.33984375,-0.8708496,98.0
1571,0.99452925,-0.42591095,0.50972366,-1.3476928,0.33984375,-0.8708496,98.0
1572,0.99452925,-0.42591095,0.50972366,-1.6822265,0.083898924,-1.4740723,98.0
1573,1.9793637,-1.1569672,0.3089981,-1.6822265,0.083898924,-1.4740723,98.0
1574,1.9793637,-1.1569672,0.3089981,-1.8818848,-0.14337158,-2.2737672,98.0
1575,2.871357,-2.0314407,0.022270203,-1.8818848,-0.14337158,-2.2737672,98.0
1576,2.871357,-2.0314407,0.022270203,-2.1272094,-0.1709839,-2.788843,98.0
1577,2.5548248,-2.6464157,0.091926575,-2.1272094,-0.1709839,-2.788843,98.0
1578,2.5548248,-2.6464157,0.091926575,-2.2153566,-0.51826173,-3.0065553,98.0
1579,1.8422852,-2.744072,0.6341858,-2.2153566,-0.51826173,-3.0065553,98.0
1580,1.8422852,-2.744072,0.6341858,-1.6949707,-0.8750977,-3.1170044,98.0
1581,1.3403444,-2.2853622,1.4708481,-1.6949707,-0.8750977,-3.1170044,98.0
1582,1.3403444,-2.2853622,1.4708481,-0.86766356,-1.0683838,-3.1382446,98.0
1583,0.70649195,-1.3922272,2.1124687,-0.86766356,-1.0683838,-3.1382446,98.0
1584,0.70649195,-1.3922272,2.1124687,-0.3154175,-1.0556396,-2.885486,98.0
1585,-0.16028261,-0.42664337,1.923069,-0.3154175,-1.0556396,-2.885486,98.0
1586,-0.16028261,-0.42664337,1.923069,-0.26550293,-0.79969484,-2.543518,98.0
