,accx,accy,accz,gyrox,gyroy,gyroz,heart rate
0,walk,walk,walk,walk,walk,walk,walk
1,-6.462146,17.026087,127.66149,0.0,0.0,0.0,0.0
2,-6.462146,17.026087,127.66149,0.10407715,0.16673584,-0.3525879,0.0
3,-5.074038,13.61158,102.07988,0.10407715,0.16673584,-0.3525879,0.0
4,-5.074038,13.61158,102.07988,0.14337158,0.19434814,-0.38551027,0.0
5,-4.0401263,10.906122,81.65831,0.14337158,0.19434814,-0.38551027,0.0
6,-4.0401263,10.906122,81.65831,0.16461182,0.19753419,-0.39400634,0.0
7,-3.2771816,8.772567,65.24756,0.16461182,0.19753419,-0.39400634,0.0
8,-3.2771816,8.772567,65.24756,0.038232423,0.20178223,-0.39294434,0.0
9,-2.6932545,6.969775,52.035156,0.038232423,0.20178223,-0.39294434,0.0
10,-2.6932545,6.969775,52.035156,0.052038576,0.1709839,-0.36745605,0.0
11,-2.6932545,6.969775,52.035156,0.15611573,0.1178833,-0.33134767,0.0
12,-2.2262344,5.4027615,41.48069,0.15611573,0.1178833,-0.33134767,0.0
13,-1.8453794,4.166399,33.14933,0.15611573,0.1178833,-0.33134767,0.0
14,-1.8453794,4.166399,33.14933,0.23151855,0.06796875,-0.29736328,0.0
15,-1.495481,3.3127213,26.574005,0.23151855,0.06796875,-0.29736328,0.0
16,-1.495481,3.3127213,26.574005,0.2548828,0.025488282,-0.2793091,0.0
17,-1.1199932,2.721552,21.299622,0.2548828,0.025488282,-0.2793091,0.0
18,-1.1199932,2.721552,21.299622,0.18266602,0.010620117,-0.26868898,0.0
19,-0.7773056,2.2041588,17.01973,0.18266602,0.010620117,-0.26868898,0.0
20,-0.7773056,2.2041588,17.01973,0.16779785,-0.013806152,-0.2347046,0.0
21,-0.5680847,1.713768,13.59137,0.16779785,-0.013806152,-0.2347046,0.0
22,-0.5680847,1.713768,13.59137,0.2442627,-0.050976563,-0.19434814,0.0
23,-0.4697628,1.3756161,10.926758,0.2442627,-0.050976563,-0.19434814,0.0
24,-0.4697628,1.3756161,10.926758,0.2824951,-0.06265869,-0.18160401,0.0
25,-0.4021411,1.210722,8.834,0.2824951,-0.06265869,-0.18160401,0.0
26,-0.4021411,1.210722,8.834,0.24320069,-0.058410645,-0.1731079,0.0
27,-0.3632412,1.0844231,7.122925,0.24320069,-0.058410645,-0.1731079,0.0
28,-0.3632412,1.0844231,7.122925,0.2177124,-0.06159668,-0.1731079,0.0
29,-0.3632412,1.0844231,7.122925,0.1996582,-0.05628662,-0.17841797,0.0
30,-0.32439423,0.91065216,5.693161,0.1996582,-0.05628662,-0.17841797,0.0
31,-0.26223755,0.67902374,4.5172424,0.1996582,-0.05628662,-0.17841797,0.0
32,-0.26223755,0.67902374,4.5172424,0.20709229,-0.04460449,-0.18054199,0.0
33,-0.2194457,0.43732452,3.5674133,0.20709229,-0.04460449,-0.18054199,0.0
34,-0.2194457,0.43732452,3.5674133,0.23151855,-0.04141846,-0.16461182,0.0
35,-0.23056126,0.29169464,2.8108063,0.23151855,-0.04141846,-0.16461182,0.0
36,-0.23056126,0.29169464,2.8108063,0.2347046,-0.03717041,-0.14868164,0.0
37,-0.2616825,0.2508602,2.2433472,0.2347046,-0.03717041,-0.14868164,0.0
38,-0.2616825,0.2508602,2.2433472,0.19434814,-0.02442627,-0.14124756,0.0
39,-0.2659254,0.20954895,1.80896,0.19434814,-0.02442627,-0.14124756,0.0
40,-0.2659254,0.20954895,1.80896,0.18691407,0.0021240234,-0.12319336,0.0
41,-0.25257206,0.13442421,1.4320221,0.18691407,0.0021240234,-0.12319336,0.0
42,-0.25257206,0.13442421,1.4320221,0.22939454,0.011682129,-0.083898924,0.0
43,-0.26386166,0.13574982,1.1216888,0.22939454,0.011682129,-0.083898924,0.0
44,-0.26386166,0.13574982,1.1216888,0.2516968,0.014868164,-0.052038576,0.0
45,-0.27217293,0.24214554,0.92951965,0.2516968,0.014868164,-0.052038576,0.0
46,-0.27217293,0.24214554,0.92951965,0.2081543,0.032922365,-0.0541626,0.0
47,-0.23558521,0.29809952,0.8264923,0.2081543,0.032922365,-0.0541626,0.0
48,-0.23558521,0.29809952,0.8264923,0.16885987,0.06478272,-0.05628662,0.0
49,-0.16691113,0.25847435,0.68659973,0.16885987,0.06478272,-0.05628662,0.0
50,-0.16691113,0.25847435,0.68659973,0.1901001,0.078588866,-0.0541626,0.0
51,-0.12354374,0.25411797,0.4682312,0.1901001,0.078588866,-0.0541626,0.0
52,-0.12354374,0.25411797,0.4682312,0.16354981,0.07434082,-0.050976563,0.0
53,-0.09411144,0.32513237,0.24790955,0.16354981,0.07434082,-0.050976563,0.0
54,-0.09411144,0.32513237,0.24790955,0.11151123,0.04885254,-0.090270996,0.0
55,-0.09411144,0.32513237,0.24790955,0.050976563,0.011682129,-0.118945315,0.0
56,-0.041952133,0.36834717,0.112335205,0.050976563,0.011682129,-0.118945315,0.0
57,0.034480095,0.31087494,0.083740234,0.050976563,0.011682129,-0.118945315,0.0
58,0.034480095,0.31087494,0.083740234,0.06265869,-0.06478272,-0.14655761,0.0
59,0.034480095,0.31087494,0.083740234,0.06265869,-0.06478272,-0.14655761,95.0
60,0.09665108,0.1804142,0.14189148,0.06265869,-0.06478272,-0.14655761,95.0
61,0.09665108,0.1804142,0.14189148,0.0998291,-0.121069334,-0.15823975,95.0
62,0.0991106,0.05646515,0.26609802,0.0998291,-0.121069334,-0.15823975,95.0
63,0.0991106,0.05646515,0.26609802,0.08920898,-0.14124756,-0.15717773,95.0
64,0.0991106,0.05646515,0.26609802,0.078588866,-0.1263794,-0.124255374,95.0
65,0.052225113,-0.0041675568,0.34536743,0.078588866,-0.1263794,-0.124255374,95.0
66,-0.02582264,-0.015077591,0.2841339,0.078588866,-0.1263794,-0.124255374,95.0
67,-0.02582264,-0.015077591,0.2841339,0.093457036,-0.115759276,-0.07540283,95.0
68,-0.10210323,0.035764694,0.09870911,0.093457036,-0.115759276,-0.07540283,95.0
69,-0.10210323,0.035764694,0.09870911,0.070092775,-0.09451904,-0.043542482,95.0
70,-0.1655693,0.06188965,-0.09840393,0.070092775,-0.09451904,-0.043542482,95.0
71,-0.1655693,0.06188965,-0.09840393,0.045666505,-0.07434082,-0.025488282,95.0
72,-0.22749901,-0.034778595,-0.22227478,0.045666505,-0.07434082,-0.025488282,95.0
73,-0.22749901,-0.034778595,-0.22227478,0.10407715,-0.08071289,-0.010620117,95.0
74,-0.26580048,-0.14531708,-0.2257843,0.10407715,-0.08071289,-0.010620117,95.0
75,-0.26580048,-0.14531708,-0.2257843,0.16142578,-0.087084964,-0.012744141,95.0
76,-0.25024986,-0.108306885,-0.1187439,0.16142578,-0.087084964,-0.012744141,95.0
77,-0.25024986,-0.108306885,-0.1187439,0.12213135,-0.070092775,-0.028674318,95.0
78,-0.18751717,0.027978897,-7.324219E-4,0.12213135,-0.070092775,-0.028674318,95.0
79,-0.18751717,0.027978897,-7.324219E-4,-0.0063720704,-0.040356446,-0.0637207,95.0
80,-0.10649586,0.112068176,0.04611206,-0.0063720704,-0.040356446,-0.0637207,95.0
81,-0.10649586,0.112068176,0.04611206,-0.10089111,-0.019116212,-0.10620117,95.0
82,-0.10649586,0.112068176,0.04611206,-0.1263794,-0.008496094,-0.14974366,95.0
83,-0.026517868,0.078790665,-0.0060577393,-0.1263794,-0.008496094,-0.14974366,95.0
84,0.036402702,0.0018501282,-0.10479736,-0.1263794,-0.008496094,-0.14974366,95.0
85,0.036402702,0.0018501282,-0.10479736,-0.10301514,-0.023364259,-0.20178223,95.0
86,0.06547451,-0.0066127777,-0.1829834,-0.10301514,-0.023364259,-0.20178223,95.0
87,0.06547451,-0.0066127777,-0.1829834,-0.11151123,-0.050976563,-0.2527588,95.0
88,0.03333664,0.074020386,-0.21707153,-0.11151123,-0.050976563,-0.2527588,95.0
89,0.03333664,0.074020386,-0.21707153,-0.16673584,-0.08496094,-0.29205322,95.0
90,-0.04009056,0.1118412,-0.21534729,-0.16673584,-0.08496094,-0.29205322,95.0
91,-0.04009056,0.1118412,-0.21534729,-0.21240234,-0.12000733,-0.32603762,95.0
92,-0.12019539,0.02864647,-0.1973877,-0.21240234,-0.12000733,-0.32603762,95.0
93,-0.12019539,0.02864647,-0.1973877,-0.2081543,-0.18691407,-0.3419678,95.0
94,-0.18719673,-0.11576843,-0.19090271,-0.2081543,-0.18691407,-0.3419678,95.0
95,-0.18719673,-0.11576843,-0.19090271,-0.20496826,-0.26656494,-0.37489015,95.0
96,-0.16362476,-0.2347908,-0.161026,-0.20496826,-0.26656494,-0.37489015,95.0
97,-0.16362476,-0.2347908,-0.161026,-0.2177124,-0.35152587,-0.43011475,95.0
98,-0.024466515,-0.3339634,-0.09573364,-0.2177124,-0.35152587,-0.43011475,95.0
99,-0.024466515,-0.3339634,-0.09573364,-0.3175415,-0.40993652,-0.4980835,95.0
100,0.21585178,-0.45624542,-0.004928589,-0.3175415,-0.40993652,-0.4980835,95.0
101,0.21585178,-0.45624542,-0.004928589,-0.39400634,-0.45135498,-0.5703003,95.0
102,0.48078728,-0.56134796,0.08041382,-0.39400634,-0.45135498,-0.5703003,95.0
103,0.48078728,-0.56134796,0.08041382,-0.4800293,-0.47896728,-0.62764895,95.0
104,0.6892805,-0.5912533,0.106292725,-0.4800293,-0.47896728,-0.62764895,95.0
105,0.6892805,-0.5912533,0.106292725,-0.62977296,-0.50020754,-0.7327881,95.0
106,0.74850655,-0.6641884,0.105651855,-0.62977296,-0.50020754,-0.7327881,95.0
107,0.74850655,-0.6641884,0.105651855,-0.6435791,-0.5777344,-0.8219971,95.0
108,0.6354389,-0.75753593,0.1267395,-0.6435791,-0.5777344,-0.8219971,95.0
109,0.6354389,-0.75753593,0.1267395,-0.6839356,-0.64782715,-0.9197022,95.0
110,0.4576187,-0.7429066,0.093688965,-0.6839356,-0.64782715,-0.9197022,95.0
111,0.4576187,-0.7429066,0.093688965,-0.81668705,-0.7699585,-1.0259033,95.0
112,0.339386,-0.63061714,-0.042678833,-0.81668705,-0.7699585,-1.0259033,95.0
113,0.339386,-0.63061714,-0.042678833,-1.0205933,-0.9526245,-1.1905152,95.0
114,0.37441444,-0.5414448,-0.18847656,-1.0205933,-0.9526245,-1.1905152,95.0
115,0.37441444,-0.5414448,-0.18847656,-1.2085694,-1.1692749,-1.3402588,95.0
116,0.55074024,-0.5745506,-0.25726318,-1.2085694,-1.1692749,-1.3402588,95.0
117,0.55074024,-0.5745506,-0.25726318,-1.3041505,-1.4145997,-1.5080566,95.0
118,0.7841716,-0.6733246,-0.23478699,-1.3041505,-1.4145997,-1.5080566,95.0
119,0.7841716,-0.6733246,-0.23478699,-1.4145997,-1.6588624,-1.7087768,95.0
120,1.0709043,-0.8625126,-0.15089417,-1.4145997,-1.6588624,-1.7087768,95.0
121,1.0709043,-0.8625126,-0.15089417,-1.4953126,-1.8946289,-1.9764038,95.0
122,1.4377656,-1.3902302,0.16897583,-1.4953126,-1.8946289,-1.9764038,95.0
123,1.4377656,-1.3902302,0.16897583,-1.3413209,-2.086853,-2.1410158,95.0
124,1.8524098,-2.0163956,0.7470093,-1.3413209,-2.086853,-2.1410158,95.0
125,1.8524098,-2.0163956,0.7470093,-1.3211426,-2.2896974,-2.2100465,95.0
126,2.1568666,-2.1941109,1.1731567,-1.3211426,-2.2896974,-2.2100465,95.0
127,2.1568666,-2.1941109,1.1731567,-1.7937378,-2.4160767,-2.3013794,95.0
128,2.3041916,-1.9940453,1.1275177,-1.7937378,-2.4160767,-2.3013794,95.0
129,2.3041916,-1.9940453,1.1275177,-2.5477662,-2.4797974,-2.4489992,95.0
130,2.50318,-2.1770725,0.92607117,-2.5477662,-2.4797974,-2.4489992,95.0
131,2.50318,-2.1770725,0.92607117,-3.0554078,-2.35979,-2.6040528,95.0
132,2.7581959,-3.174837,1.0170746,-3.0554078,-2.35979,-2.6040528,95.0
133,2.7581959,-3.174837,1.0170746,-2.811145,-2.352356,-2.5913086,95.0
134,2.6641495,-3.6005993,1.1028748,-2.811145,-2.352356,-2.5913086,95.0
135,2.6641495,-3.6005993,1.1028748,-2.538208,-2.3958986,-2.6072388,95.0
136,2.785116,-3.8586903,1.0930481,-2.538208,-2.3958986,-2.6072388,95.0
137,2.785116,-3.8586903,1.0930481,-2.4128907,-2.5488281,-2.8207033,95.0
138,2.7437055,-3.1882343,0.75860596,-2.4128907,-2.5488281,-2.8207033,95.0
139,2.7437055,-3.1882343,0.75860596,-2.704944,-2.5541382,-2.9364624,95.0
140,3.362689,-2.3750505,-0.26921082,-2.704944,-2.5541382,-2.9364624,95.0
141,3.362689,-2.3750505,-0.26921082,-3.0978882,-2.628479,-3.2221437,95.0
142,3.402627,-2.5616865,-0.40483093,-3.0978882,-2.628479,-3.2221437,95.0
143,3.402627,-2.5616865,-0.40483093,-2.9821289,-2.703882,-3.2720582,95.0
144,4.028034,-3.1189299,-0.25680542,-2.9821289,-2.703882,-3.2720582,95.0
145,4.028034,-3.1189299,-0.25680542,-3.1223145,-2.9141603,-3.4536622,95.0
146,4.068118,-2.8060932,-0.28520203,-3.1223145,-2.9141603,-3.4536622,95.0
147,4.068118,-2.8060932,-0.28520203,-3.43667,-2.9141603,-3.530127,95.0
148,4.98273,-2.0183487,-0.72088623,-3.43667,-2.9141603,-3.530127,95.0
149,4.98273,-2.0183487,-0.72088623,-4.505054,-2.7867188,-3.7637696,95.0
150,4.9455223,-1.8678408,-1.2596588,-4.505054,-2.7867188,-3.7637696,95.0
151,4.9455223,-1.8678408,-1.2596588,-4.902246,-2.72406,-3.8731568,95.0
152,5.4737153,-1.9512911,-2.3996277,-4.902246,-2.72406,-3.8731568,95.0
153,5.4737153,-1.9512911,-2.3996277,-5.967444,-2.3714721,-4.1312256,95.0
154,5.232403,-1.8519993,-2.9126282,-5.967444,-2.3714721,-4.1312256,95.0
155,5.232403,-1.8519993,-2.9126282,-6.066211,-2.2047365,-4.1758304,95.0
156,5.40969,-2.1471634,-3.4300842,-6.066211,-2.2047365,-4.1758304,95.0
157,5.40969,-2.1471634,-3.4300842,-5.604236,-1.5739014,-4.173706,95.0
158,5.045513,-1.7999325,-3.6088562,-5.604236,-1.5739014,-4.173706,95.0
159,5.045513,-1.7999325,-3.6088562,-5.28457,-1.363623,-4.1131716,95.0
160,4.6237154,-1.7102585,-4.1766663,-5.28457,-1.363623,-4.1131716,95.0
161,4.6237154,-1.7102585,-4.1766663,-4.241675,-0.8793457,-3.6342041,95.0
162,3.954771,-1.1369572,-4.2253876,-4.241675,-0.8793457,-3.6342041,95.0
163,3.954771,-1.1369572,-4.2253876,-3.9804199,-0.7805786,-3.4143677,95.0
164,3.954771,-1.1369572,-4.2253876,-3.9804199,-0.7805786,-3.4143677,96.0
165,2.5218735,-0.490242,-4.6036377,-3.9804199,-0.7805786,-3.4143677,96.0
166,2.5218735,-0.490242,-4.6036377,-3.2348878,-0.5883545,-2.6295412,96.0
167,1.9332943,-0.04004526,-4.139633,-3.2348878,-0.5883545,-2.6295412,96.0
168,1.9332943,-0.04004526,-4.139633,-2.986377,-0.5607422,-2.353418,96.0
169,1.2483082,0.31146955,-3.5073395,-2.986377,-0.5607422,-2.353418,96.0
170,1.2483082,0.31146955,-3.5073395,-2.5806885,-0.50870365,-1.8372803,96.0
171,0.9255638,0.4570856,-2.7577667,-2.5806885,-0.50870365,-1.8372803,96.0
172,0.9255638,0.4570856,-2.7577667,-2.1898682,-0.43011475,-1.3838013,96.0
173,0.7679415,0.46343422,-2.1517792,-2.1898682,-0.43011475,-1.3838013,96.0
174,0.7679415,0.46343422,-2.1517792,-1.7905518,-0.36002198,-1.0290893,96.0
175,0.597373,0.46621847,-1.8392181,-1.7905518,-0.36002198,-1.0290893,96.0
176,0.597373,0.46621847,-1.8392181,-1.5197388,-0.26656494,-0.71791995,96.0
177,-0.22778988,0.5421276,-1.8572388,-1.5197388,-0.26656494,-0.71791995,96.0
178,-0.22778988,0.5421276,-1.8572388,-1.2000732,-0.15611573,-0.24638672,96.0
179,-0.584527,0.57544994,-1.6888275,-1.2000732,-0.15611573,-0.24638672,96.0
180,-0.584527,0.57544994,-1.6888275,-1.0163453,-0.13381349,-0.083898924,96.0
181,-1.1253605,0.5285969,-1.4846344,-1.0163453,-0.13381349,-0.083898924,96.0
182,-1.1253605,0.5285969,-1.4846344,-0.4704712,-0.11257324,0.22089843,96.0
183,-0.9520464,0.38634205,-1.081955,-0.4704712,-0.11257324,0.22089843,96.0
184,-0.9520464,0.38634205,-1.081955,0.10938721,-0.09133301,0.4725952,96.0
185,-0.22753048,0.25121212,-0.6850128,0.10938721,-0.09133301,0.4725952,96.0
186,-0.22753048,0.25121212,-0.6850128,0.5703003,-0.05628662,0.7126099,96.0
187,0.3352003,0.08142567,-0.3728943,0.5703003,-0.05628662,0.7126099,96.0
188,0.3352003,0.08142567,-0.3728943,1.0152832,-0.03079834,0.9866089,96.0
189,0.30863953,-0.025984764,-0.13369751,1.0152832,-0.03079834,0.9866089,96.0
190,0.30863953,-0.025984764,-0.13369751,1.4570801,0.007434082,1.2903442,96.0
191,-0.15219688,-0.03723049,0.12339783,1.4570801,0.007434082,1.2903442,96.0
192,-0.15219688,-0.03723049,0.12339783,1.8797607,0.0541626,1.5993897,96.0
193,-0.7061577,0.052173615,0.38960266,1.8797607,0.0541626,1.5993897,96.0
194,-0.7061577,0.052173615,0.38960266,2.2334106,0.13699952,1.903125,96.0
195,-1.1801844,0.21582317,0.581192,2.2334106,0.13699952,1.903125,96.0
196,-1.1801844,0.21582317,0.581192,2.3289917,0.25806886,2.1845582,96.0
197,-1.4681463,0.42323208,0.6064606,2.3289917,0.25806886,2.1845582,96.0
198,-1.4681463,0.42323208,0.6064606,2.1091554,0.41206056,2.4224489,96.0
199,-1.5938158,0.54227257,0.5179901,2.1091554,0.41206056,2.4224489,96.0
200,-1.5938158,0.54227257,0.5179901,1.7459472,0.542688,2.6029909,96.0
201,-1.604044,0.5033741,0.41766357,1.7459472,0.542688,2.6029909,96.0
202,-1.604044,0.5033741,0.41766357,1.4124756,0.634021,2.7442384,96.0
203,-1.5484581,0.3763199,0.32035828,1.4124756,0.634021,2.7442384,96.0
204,-1.5484581,0.3763199,0.32035828,1.1820191,0.68074954,2.8323853,96.0
205,-1.4529753,0.18518639,0.25657654,1.1820191,0.68074954,2.8323853,96.0
206,-1.4529753,0.18518639,0.25657654,1.0630738,0.69986576,2.8238893,96.0
207,-1.3089991,-0.011091232,0.22294617,1.0630738,0.69986576,2.8238893,96.0
208,-1.3089991,-0.011091232,0.22294617,0.8846558,0.72216797,2.72937,96.0
209,-1.1192331,-0.18362904,0.22938538,0.8846558,0.72216797,2.72937,96.0
210,-1.1192331,-0.18362904,0.22938538,0.6690674,0.72004396,2.5573242,96.0
211,-0.82868767,-0.3505535,0.32426453,0.6690674,0.72004396,2.5573242,96.0
212,-0.82868767,-0.3505535,0.32426453,0.6945557,0.70092773,2.3343017,96.0
213,-0.5599594,-0.40640736,0.49749756,0.6945557,0.70092773,2.3343017,96.0
214,-0.5599594,-0.40640736,0.49749756,0.75296634,0.72960204,2.1176515,96.0
215,-0.5750303,-0.27539444,0.57081604,0.75296634,0.72960204,2.1176515,96.0
216,-0.5750303,-0.27539444,0.57081604,0.70198977,0.7625244,1.9657837,96.0
217,-0.84089565,-0.012369156,0.4164276,0.70198977,0.7625244,1.9657837,96.0
218,-0.84089565,-0.012369156,0.4164276,0.5076416,0.7508423,1.8277222,96.0
219,-0.90765285,0.28332996,0.16537476,0.5076416,0.7508423,1.8277222,96.0
220,-0.90765285,0.28332996,0.16537476,0.29736328,0.6881836,1.6609863,96.0
221,-0.55175686,0.5122471,0.10093689,0.29736328,0.6881836,1.6609863,96.0
222,-0.55175686,0.5122471,0.10093689,0.13699952,0.61065674,1.4910644,96.0
223,-0.12217903,0.7115431,0.19752502,0.13699952,0.61065674,1.4910644,96.0
224,-0.12217903,0.7115431,0.19752502,-0.033984374,0.5161377,1.3158325,96.0
225,-0.06671333,1.1117516,0.19158936,-0.033984374,0.5161377,1.3158325,96.0
226,-0.06671333,1.1117516,0.19158936,-0.3419678,0.45029297,1.0524536,96.0
227,-0.25072193,1.679306,0.0129852295,-0.3419678,0.45029297,1.0524536,96.0
228,-0.25072193,1.679306,0.0129852295,-0.59897465,0.33878174,0.6637573,96.0
229,-0.27356339,2.0680904,-0.2538452,-0.59897465,0.33878174,0.6637573,96.0
230,-0.27356339,2.0680904,-0.2538452,-0.88359374,0.13381349,0.1901001,96.0
231,-0.46699524,2.0145674,-0.52023315,-0.88359374,0.13381349,0.1901001,96.0
232,-0.46699524,2.0145674,-0.52023315,-1.3030884,-0.035046387,-0.16461182,96.0
233,-1.0748653,1.3990316,-0.5539398,-1.3030884,-0.035046387,-0.16461182,96.0
234,-1.0748653,1.3990316,-0.5539398,-1.3997315,-0.15823975,-0.46622315,96.0
235,-1.3612347,0.50258636,-0.27902222,-1.3997315,-0.15823975,-0.46622315,96.0
236,-1.3612347,0.50258636,-0.27902222,-1.1331666,-0.23895264,-0.6945557,96.0
237,-0.7915387,-0.15282536,0.026489258,-1.1331666,-0.23895264,-0.6945557,96.0
238,-0.7915387,-0.15282536,0.026489258,-0.6754395,-0.27718505,-0.89208984,96.0
239,0.255661,-0.37298012,0.13459778,-0.6754395,-0.27718505,-0.89208984,96.0
240,0.255661,-0.37298012,0.13459778,-0.23789063,-0.31329346,-1.09281,96.0
241,0.87746525,-0.25452423,0.031204224,-0.23789063,-0.31329346,-1.09281,96.0
242,0.87746525,-0.25452423,0.031204224,-0.16142578,-0.33771974,-1.2489258,96.0
243,0.6141672,-0.05609703,-0.20805359,-0.16142578,-0.33771974,-1.2489258,96.0
244,0.6141672,-0.05609703,-0.20805359,-0.40993652,-0.3993164,-1.4284058,96.0
245,-0.5794182,-0.09113026,-0.46183777,-0.40993652,-0.3993164,-1.4284058,96.0
246,-0.5794182,-0.09113026,-0.46183777,-0.8496094,-0.52250975,-1.7640015,96.0
247,-0.6941862,-0.22173214,-0.424057,-0.8496094,-0.52250975,-1.7640015,96.0
248,-0.6941862,-0.22173214,-0.424057,-0.9568726,-0.5511841,-1.8818848,96.0
249,-0.9984398,-0.5953064,-0.23271179,-0.9568726,-0.5511841,-1.8818848,96.0
250,-0.9984398,-0.5953064,-0.23271179,-1.1076783,-0.5809204,-2.1080933,96.0
251,-0.9831271,-0.9822273,-0.052520752,-1.1076783,-0.5809204,-2.1080933,96.0
252,-0.9831271,-0.9822273,-0.052520752,-1.0991821,-0.5543701,-2.3151855,96.0
253,-0.74684143,-1.1946802,0.004348755,-1.0991821,-0.5543701,-2.3151855,96.0
254,-0.74684143,-1.1946802,0.004348755,-0.90695804,-0.4694092,-2.4978516,96.0
255,-0.38481474,-1.0735664,-0.1328888,-0.90695804,-0.4694092,-2.4978516,96.0
256,-0.38481474,-1.0735664,-0.1328888,-0.8315552,-0.38763428,-2.6518433,96.0
257,0.08946276,-0.6945095,-0.45759583,-0.8315552,-0.38763428,-2.6518433,96.0
258,0.08946276,-0.6945095,-0.45759583,-0.98873293,-0.37489015,-2.795215,96.0
259,0.6926155,-0.33857918,-0.69169617,-0.98873293,-0.37489015,-2.795215,96.0
260,0.6926155,-0.33857918,-0.69169617,-1.2202514,-0.4067505,-2.9396484,96.0
261,1.3322659,-0.22683239,-0.5286865,-1.2202514,-0.4067505,-2.9396484,96.0
262,1.3322659,-0.22683239,-0.5286865,-1.2202514,-0.4067505,-2.9396484,95.0
263,1.3322659,-0.22683239,-0.5286865,-1.3232666,-0.4439209,-3.0277956,95.0
264,1.8724165,-0.36475468,-0.0036315918,-1.3232666,-0.4439209,-3.0277956,95.0
265,1.8724165,-0.36475468,-0.0036315918,-1.1937011,-0.45878908,-3.073462,95.0
266,2.2734823,-0.5790472,0.5694275,-1.1937011,-0.45878908,-3.073462,95.0
267,2.2734823,-0.5790472,0.5694275,-0.88253176,-0.42268068,-3.0532837,95.0
268,2.5589962,-0.67466354,0.9025421,-0.88253176,-0.42268068,-3.0532837,95.0
269,2.5589962,-0.67466354,0.9025421,-0.56180423,-0.33134767,-2.9640749,95.0
270,2.6170454,-0.5494604,0.8920288,-0.56180423,-0.33134767,-2.9640749,95.0
271,2.6170454,-0.5494604,0.8920288,-0.36639404,-0.24001466,-2.7962768,95.0
272,2.3431606,-0.24100876,0.5316162,-0.36639404,-0.24001466,-2.7962768,95.0
273,2.3431606,-0.24100876,0.5316162,-0.36427003,-0.17735596,-2.546704,95.0
274,1.9742355,0.03142357,0.08543396,-0.36427003,-0.17735596,-2.546704,95.0
275,1.9742355,0.03142357,0.08543396,-0.3154175,-0.11257324,-2.2514648,95.0
276,1.7999935,0.16254139,-0.122680664,-0.3154175,-0.11257324,-2.2514648,95.0
277,1.7999935,0.16254139,-0.122680664,-0.22408448,-0.043542482,-1.8956909,95.0
278,1.8124065,0.26218605,-0.1613617,-0.22408448,-0.043542482,-1.8956909,95.0
279,1.8124065,0.26218605,-0.1613617,-0.21877442,0.038232423,-1.4783204,95.0
280,1.9312611,0.3081131,-0.28160095,-0.21877442,0.038232423,-1.4783204,95.0
281,1.9312611,0.3081131,-0.28160095,-0.25063476,0.1274414,-0.996167,95.0
282,2.300087,0.17255211,-0.29389954,-0.25063476,0.1274414,-0.996167,95.0
283,2.300087,0.17255211,-0.29389954,-0.025488282,0.20709229,-0.4258667,95.0
284,2.4079037,0.08844471,0.012008667,-0.025488282,0.20709229,-0.4258667,95.0
285,2.4079037,0.08844471,0.012008667,0.08283692,0.35046387,0.22408448,95.0
286,1.421587,0.19448662,0.2694397,0.08283692,0.35046387,0.22408448,95.0
287,1.421587,0.19448662,0.2694397,0.2081543,0.6064087,0.88253176,95.0
288,0.16179371,0.3024645,0.045669556,0.2081543,0.6064087,0.88253176,95.0
289,0.16179371,0.3024645,0.045669556,0.35152587,0.7742066,1.449646,95.0
290,-0.017807007,0.34867382,-0.53627014,0.35152587,0.7742066,1.449646,95.0
291,-0.017807007,0.34867382,-0.53627014,0.44816896,0.91864014,2.0475585,95.0
292,0.6224241,0.3711996,-0.9911041,0.44816896,0.91864014,2.0475585,95.0
293,0.6224241,0.3711996,-0.9911041,0.48321533,0.99510497,2.614673,95.0
294,0.9937887,0.37747765,-1.1344299,0.48321533,0.99510497,2.614673,95.0
295,0.9937887,0.37747765,-1.1344299,0.48427734,1.0354614,3.1159425,95.0
296,0.6678457,0.3467331,-1.019989,0.48427734,1.0354614,3.1159425,95.0
297,0.6678457,0.3467331,-1.019989,0.51932377,0.99085695,3.4865844,95.0
298,-0.19918251,0.29064274,-0.7501221,0.51932377,0.99085695,3.4865844,95.0
299,-0.19918251,0.29064274,-0.7501221,0.4630371,0.9324463,3.7701416,95.0
300,-1.2762403,0.18001175,-0.40763855,0.4630371,0.9324463,3.7701416,95.0
301,-1.2762403,0.18001175,-0.40763855,0.34090576,0.8687256,3.9336915,95.0
302,-2.172884,-0.015780449,-0.099609375,0.34090576,0.8687256,3.9336915,95.0
303,-2.172884,-0.015780449,-0.099609375,0.24107666,0.8092529,3.9974122,95.0
304,-2.7149305,-0.23595142,0.056259155,0.24107666,0.8092529,3.9974122,95.0
305,-2.7149305,-0.23595142,0.056259155,0.26550293,0.72216797,3.9889162,95.0
306,-3.036789,-0.38010597,0.004196167,0.26550293,0.72216797,3.9889162,95.0
307,-3.036789,-0.38010597,0.004196167,0.3791382,0.62340087,3.896521,95.0
308,-3.2292118,-0.40838146,-0.19810486,0.3791382,0.62340087,3.896521,95.0
309,-3.2292118,-0.40838146,-0.19810486,0.54693604,0.5140137,3.711731,95.0
310,-3.177681,-0.3887539,-0.3878479,0.54693604,0.5140137,3.711731,95.0
311,-3.177681,-0.3887539,-0.3878479,0.80394286,0.40462646,3.437732,95.0
312,-2.8118105,-0.3769455,-0.40350342,0.80394286,0.40462646,3.437732,95.0
313,-2.8118105,-0.3769455,-0.40350342,1.1852051,0.32497558,3.1074464,95.0
314,-2.3134985,-0.34955406,-0.20448303,1.1852051,0.32497558,3.1074464,95.0
315,-2.3134985,-0.34955406,-0.20448303,1.5569092,0.30267334,2.7389283,95.0
316,-1.8224173,-0.28015614,0.10675049,1.5569092,0.30267334,2.7389283,95.0
317,-1.8224173,-0.28015614,0.10675049,1.8447144,0.33240968,2.3693483,95.0
318,-1.2780628,-0.1567173,0.40577698,1.8447144,0.33240968,2.3693483,95.0
319,-1.2780628,-0.1567173,0.40577698,2.0358765,0.35577393,2.061365,95.0
320,-0.78308296,0.18861485,0.64256287,2.0358765,0.35577393,2.061365,95.0
321,-0.78308296,0.18861485,0.64256287,2.0146363,0.362146,1.7342652,95.0
322,-0.44544792,0.95709324,0.75357056,2.0146363,0.362146,1.7342652,95.0
323,-0.44544792,0.95709324,0.75357056,1.6142578,0.3345337,1.2797241,95.0
324,-0.11580658,2.0303106,0.6683502,1.6142578,0.3345337,1.2797241,95.0
325,-0.11580658,2.0303106,0.6683502,0.77951664,0.34727785,0.73703617,95.0
326,0.1456728,2.817852,0.4624176,0.77951664,0.34727785,0.73703617,95.0
327,0.1456728,2.817852,0.4624176,-0.19222413,0.29311523,0.32497558,95.0
328,-0.19566917,2.8523655,0.24700928,-0.19222413,0.29311523,0.32497558,95.0
329,-0.19566917,2.8523655,0.24700928,-1.1119263,0.20390625,0.016992187,95.0
330,-0.7685957,2.2518387,-3.3569336E-4,-1.1119263,0.20390625,0.016992187,95.0
331,-0.7685957,2.2518387,-3.3569336E-4,-1.808606,0.11257324,-0.40462646,95.0
332,-0.15946865,1.3543396,-0.3655243,-1.808606,0.11257324,-0.40462646,95.0
333,-0.15946865,1.3543396,-0.3655243,-2.2121704,-0.11469727,-0.9674927,95.0
334,1.0143442,0.43791485,-0.6461487,-2.2121704,-0.11469727,-0.9674927,95.0
335,1.0143442,0.43791485,-0.6461487,-2.3045654,-0.37489015,-1.3806152,95.0
336,1.254981,-0.566514,-0.4410553,-2.3045654,-0.37489015,-1.3806152,95.0
337,1.254981,-0.566514,-0.4410553,-1.8617066,-0.5894165,-1.7958618,95.0
338,1.0315847,-1.5116091,0.17593384,-1.8617066,-0.5894165,-1.7958618,95.0
339,1.0315847,-1.5116091,0.17593384,-1.0280274,-0.7678345,-2.0539308,95.0
340,0.828454,-1.8325539,0.7464905,-1.0280274,-0.7678345,-2.0539308,95.0
341,0.828454,-1.8325539,0.7464905,-0.13275146,-0.94731444,-2.079419,95.0
342,0.5531931,-1.5138826,0.90275574,-0.13275146,-0.94731444,-2.079419,95.0
343,0.5531931,-1.5138826,0.90275574,0.57561034,-1.1002442,-2.1229615,95.0
344,0.21987343,-1.0868626,0.69203186,0.57561034,-1.1002442,-2.1229615,95.0
345,0.21987343,-1.0868626,0.69203186,1.0205933,-1.2053833,-2.1346436,95.0
346,-0.2083664,-0.85440254,0.4624939,1.0205933,-1.2053833,-2.1346436,95.0
347,-0.2083664,-0.85440254,0.4624939,1.2574219,-1.2552979,-2.1272094,95.0
348,-0.6852112,-0.7239151,0.3226776,1.2574219,-1.2552979,-2.1272094,95.0
349,-0.6852112,-0.7239151,0.3226776,1.1119263,-1.263794,-2.1558838,95.0
350,-1.0981073,-0.599164,0.18955994,1.1119263,-1.263794,-2.1558838,95.0
351,-1.0981073,-0.599164,0.18955994,0.54906005,-1.2340577,-2.2344728,95.0
352,-1.2922678,-0.50704193,0.048309326,0.54906005,-1.2340577,-2.2344728,95.0
353,-1.2922678,-0.50704193,0.048309326,-0.20072022,-1.173523,-2.3958986,95.0
354,-1.1087532,-0.5114565,0.023666382,-0.20072022,-1.173523,-2.3958986,95.0
355,-1.1087532,-0.5114565,0.023666382,-0.8952759,-1.0779419,-2.6061769,95.0
356,-0.4297638,-0.5442362,0.052871704,-0.8952759,-1.0779419,-2.6061769,95.0
357,-0.4297638,-0.5442362,0.052871704,-1.4793824,-0.9366943,-2.8355713,95.0
358,0.5734005,-0.57190037,-0.008224487,-1.4793824,-0.9366943,-2.8355713,95.0
359,0.5734005,-0.57190037,-0.008224487,-1.9615357,-0.80606693,-3.0554078,95.0
360,1.5374432,-0.57390213,-0.2027893,-1.9615357,-0.80606693,-3.0554078,95.0
361,1.5374432,-0.57390213,-0.2027893,-2.3417358,-0.7391602,-3.2306397,95.0
362,2.3013906,-0.53833294,-0.34550476,-2.3417358,-0.7391602,-3.2306397,95.0
363,2.3013906,-0.53833294,-0.34550476,-2.6412232,-0.67437744,-3.3655152,95.0
364,2.8437614,-0.5691061,-0.21907043,-2.6412232,-0.67437744,-3.3655152,95.0
365,2.8437614,-0.5691061,-0.21907043,-2.6932619,-0.56605226,-3.435608,95.0
366,3.187705,-0.7315302,0.13508606,-2.6932619,-0.56605226,-3.435608,95.0
367,3.187705,-0.7315302,0.13508606,-2.2896974,-0.43861085,-3.3931274,95.0
368,3.187705,-0.7315302,0.13508606,-2.2896974,-0.43861085,-3.3931274,93.0
369,3.1440487,-0.8597851,0.49098206,-2.2896974,-0.43861085,-3.3931274,93.0
370,3.1440487,-0.8597851,0.49098206,-1.4815063,-0.3451538,-3.1924074,93.0
371,2.4241867,-0.6349354,0.5658722,-1.4815063,-0.3451538,-3.1924074,93.0
372,2.4241867,-0.6349354,0.5658722,-0.817749,-0.29311523,-2.8663697,93.0
373,1.2227964,-0.085157394,0.29026794,-0.817749,-0.29311523,-2.8663697,93.0
374,1.2227964,-0.085157394,0.29026794,-0.47365722,-0.23045655,-2.4702394,93.0
375,0.21451569,0.44399548,-0.04421997,-0.47365722,-0.23045655,-2.4702394,93.0
376,0.21451569,0.44399548,-0.04421997,-0.28674316,-0.16461182,-2.0390625,93.0
377,-0.12639809,0.763155,-0.25331116,-0.28674316,-0.16461182,-2.0390625,93.0
378,-0.12639809,0.763155,-0.25331116,-0.2538208,-0.07434082,-1.6004517,93.0
379,0.15553379,0.87382984,-0.46826172,-0.2538208,-0.07434082,-1.6004517,93.0
380,0.15553379,0.87382984,-0.46826172,-0.32178956,0.009558106,-1.1416626,93.0
381,0.8544321,0.8133831,-0.79914856,-0.32178956,0.009558106,-1.1416626,93.0
382,0.8544321,0.8133831,-0.79914856,-0.39506838,0.06159668,-0.5883545,93.0
383,1.6714249,0.69133186,-0.9517517,-0.39506838,0.06159668,-0.5883545,93.0
384,1.6714249,0.69133186,-0.9517517,-0.3419678,0.1083252,0.09451904,93.0
385,1.7226133,0.69157887,-0.66877747,-0.3419678,0.1083252,0.09451904,93.0
386,1.7226133,0.69157887,-0.66877747,-0.38763428,0.2824951,0.8262451,93.0
387,0.73029995,0.7239418,-0.31748962,-0.38763428,0.2824951,0.8262451,93.0
388,0.73029995,0.7239418,-0.31748962,-0.28568116,0.47578126,1.4761963,93.0
389,-0.07266903,0.52355003,-0.34898376,-0.28568116,0.47578126,1.4761963,93.0
390,-0.07266903,0.52355003,-0.34898376,0.09451904,0.5915405,2.066675,93.0
391,0.19345188,0.1834526,-0.67781067,0.09451904,0.5915405,2.066675,93.0
392,0.19345188,0.1834526,-0.67781067,0.58198243,0.61278075,2.633789,93.0
393,1.0585575,-0.08454895,-0.9547882,0.58198243,0.61278075,2.633789,93.0
394,1.0585575,-0.08454895,-0.9547882,1.0821899,0.61915284,3.153113,93.0
395,1.6403027,-0.17607498,-0.966568,1.0821899,0.61915284,3.153113,93.0
396,1.6403027,-0.17607498,-0.966568,1.5208008,0.5957886,3.5492432,93.0
397,1.5042953,-0.07849407,-0.68562317,1.5208008,0.5957886,3.5492432,93.0
398,1.5042953,-0.07849407,-0.68562317,1.6524903,0.65207523,3.804126,93.0
399,0.68123245,0.034677505,-0.19729614,1.6524903,0.65207523,3.804126,93.0
400,0.68123245,0.034677505,-0.19729614,1.5707153,0.7455322,3.9198854,93.0
401,-0.5482025,-0.0051193237,0.26029968,1.5707153,0.7455322,3.9198854,93.0
402,-0.5482025,-0.0051193237,0.26029968,1.3105224,0.81987303,3.9379394,93.0
403,-1.780201,-0.13521099,0.4284668,1.3105224,0.81987303,3.9379394,93.0
404,-1.780201,-0.13521099,0.4284668,0.93138427,0.82730716,3.9230714,93.0
405,-2.7376251,-0.20905972,0.2578888,0.93138427,0.82730716,3.9230714,93.0
406,-2.7376251,-0.20905972,0.2578888,0.5299439,0.77951664,3.8678467,93.0
407,-3.3940315,-0.18920803,-0.090545654,0.5299439,0.77951664,3.8678467,93.0
408,-3.3940315,-0.18920803,-0.090545654,0.36427003,0.65632325,3.7627075,93.0
409,-3.723465,-0.11247444,-0.3650818,0.36427003,0.65632325,3.7627075,93.0
410,-3.723465,-0.11247444,-0.3650818,0.46834716,0.51082766,3.5789795,93.0
411,-3.5943356,8.0394745E-4,-0.42347717,0.46834716,0.51082766,3.5789795,93.0
412,-3.5943356,8.0394745E-4,-0.42347717,0.6966797,0.42799073,3.2826784,93.0
413,-2.9473553,0.04541874,-0.24369812,0.6966797,0.42799073,3.2826784,93.0
414,-2.9473553,0.04541874,-0.24369812,0.8814697,0.44073486,2.8748658,93.0
415,-1.9425163,-0.03792,0.06321716,0.8814697,0.44073486,2.8748658,93.0
416,-1.9425163,-0.03792,0.06321716,1.0609497,0.4895874,2.4978516,93.0
417,-1.0857639,0.0019512177,0.22631836,1.0609497,0.4895874,2.4978516,93.0
418,-1.0857639,0.0019512177,0.22631836,1.0970582,0.5331299,2.2259767,93.0
419,-0.8289385,0.43936634,0.061828613,1.0970582,0.5331299,2.2259767,93.0
420,-0.8289385,0.43936634,0.061828613,0.81031495,0.53525394,1.9615357,93.0
421,-0.87350273,1.1507969,-0.47061157,0.81031495,0.53525394,1.9615357,93.0
422,-0.87350273,1.1507969,-0.47061157,0.23045655,0.40037844,1.6408081,93.0
423,-0.3434925,1.6669264,-0.95410156,0.23045655,0.40037844,1.6408081,93.0
424,-0.3434925,1.6669264,-0.95410156,-0.1083252,0.17416993,1.3328247,93.0
425,0.69892406,1.7699423,-0.665802,-0.1083252,0.17416993,1.3328247,93.0
426,0.69892406,1.7699423,-0.665802,0.3058594,-0.08071289,0.994043,93.0
427,0.83744717,1.9092646,0.16009521,0.3058594,-0.08071289,0.994043,93.0
428,0.83744717,1.9092646,0.16009521,0.67225343,-0.1709839,0.65632325,93.0
429,-0.37219334,2.2050848,0.65708923,0.67225343,-0.1709839,0.65632325,93.0
430,-0.37219334,2.2050848,0.65708923,0.49277344,-0.19328614,0.25594482,93.0
431,-1.0697765,2.0692434,0.4689331,0.49277344,-0.19328614,0.25594482,93.0
432,-1.0697765,2.0692434,0.4689331,-0.24532472,-0.26975098,-0.3451538,93.0
433,-0.6526232,1.154808,0.14840698,-0.24532472,-0.26975098,-0.3451538,93.0
434,-0.6526232,1.154808,0.14840698,-0.58198243,-0.43967286,-0.814563,93.0
435,-0.5760412,-0.029351234,0.28326416,-0.58198243,-0.43967286,-0.814563,93.0
436,-0.5760412,-0.029351234,0.28326416,-0.72641605,-0.5543701,-1.2446778,93.0
437,-0.68633366,-0.87811947,0.6983948,-0.72641605,-0.5543701,-1.2446778,93.0
438,-0.68633366,-0.87811947,0.6983948,-0.8708496,-0.5957886,-1.5951416,93.0
439,-0.22239494,-1.2830133,0.9991455,-0.8708496,-0.5957886,-1.5951416,93.0
440,-0.22239494,-1.2830133,0.9991455,-0.82836914,-0.6265869,-1.8585205,93.0
441,0.30611706,-1.3439522,1.036499,-0.82836914,-0.6265869,-1.8585205,93.0
442,0.30611706,-1.3439522,1.036499,-0.6988037,-0.71367186,-2.1611938,93.0
443,0.4372158,-1.2324867,0.8213806,-0.6988037,-0.71367186,-2.1611938,93.0
444,0.4372158,-1.2324867,0.8213806,-0.62340087,-0.7954468,-2.3937745,93.0
445,0.19407177,-1.091299,0.5229187,-0.62340087,-0.7954468,-2.3937745,93.0
446,0.19407177,-1.091299,0.5229187,-0.6064087,-0.86341554,-2.5934327,93.0
447,-0.22372246,-0.98204803,0.30897522,-0.6064087,-0.86341554,-2.5934327,93.0
448,-0.22372246,-0.98204803,0.30897522,-0.64995116,-0.90908206,-2.797339,93.0
449,-0.5390978,-0.9804878,0.20996094,-0.64995116,-0.90908206,-2.797339,93.0
450,-0.5390978,-0.9804878,0.20996094,-0.73597413,-0.9324463,-3.0267334,93.0
451,-0.49394894,-1.1046658,0.11909485,-0.73597413,-0.9324463,-3.0267334,93.0
452,-0.49394894,-1.1046658,0.11909485,-0.8963379,-0.904834,-3.2752442,93.0
453,-0.06699753,-1.3129568,-0.034698486,-0.8963379,-0.904834,-3.2752442,93.0
454,-0.06699753,-1.3129568,-0.034698486,-0.998291,-0.85704345,-3.521631,93.0
455,0.4782257,-1.5118647,-0.1268158,-0.998291,-0.85704345,-3.521631,93.0
456,0.4782257,-1.5118647,-0.1268158,-0.78164065,-0.81881106,-3.6936767,93.0
457,1.0228882,-1.6072578,0.03199768,-0.78164065,-0.81881106,-3.6936767,93.0
458,1.0228882,-1.6072578,0.03199768,-0.33240968,-0.7497803,-3.7945678,93.0
459,1.7042847,-1.4708042,0.39767456,-0.33240968,-0.7497803,-3.7945678,93.0
460,1.7042847,-1.4708042,0.39767456,-0.0722168,-0.62977296,-3.8200562,93.0
461,2.4474974,-1.1016922,0.692749,-0.0722168,-0.62977296,-3.8200562,93.0
462,2.4474974,-1.1016922,0.692749,-0.090270996,-0.5033936,-3.7478395,93.0
463,2.9245386,-0.6668396,0.75468445,-0.090270996,-0.5033936,-3.7478395,93.0
464,2.9245386,-0.6668396,0.75468445,-0.28355715,-0.42161867,-3.5683594,93.0
465,2.9245386,-0.6668396,0.75468445,-0.28355715,-0.42161867,-3.5683594,93.0
466,2.9536076,-0.20422363,0.6096649,-0.28355715,-0.42161867,-3.5683594,93.0
467,2.9536076,-0.20422363,0.6096649,-0.78164065,-0.3462158,-3.2805543,93.0
468,2.5080643,0.3098631,0.33073425,-0.78164065,-0.3462158,-3.2805543,93.0
469,2.5080643,0.3098631,0.33073425,-1.4230957,-0.27399904,-2.8663697,93.0
470,1.6367855,0.7819967,-0.025619507,-1.4230957,-0.27399904,-2.8663697,93.0
471,1.6367855,0.7819967,-0.025619507,-2.0741088,-0.1985962,-2.4203248,93.0
472,0.58988476,1.0383167,-0.44796753,-2.0741088,-0.1985962,-2.4203248,93.0
473,0.58988476,1.0383167,-0.44796753,-2.5658205,-0.15186767,-1.9572877,93.0
474,-0.084695816,0.9128437,-0.77178955,-2.5658205,-0.15186767,-1.9572877,93.0
475,-0.084695816,0.9128437,-0.77178955,-2.5998046,-0.03717041,-1.4581422,93.0
476,-0.019185066,0.5026989,-0.9409485,-2.5998046,-0.03717041,-1.4581422,93.0
477,-0.019185066,0.5026989,-0.9409485,-2.2174804,0.022302246,-0.92501223,93.0
478,0.5905838,0.18771839,-1.1950226,-2.2174804,0.022302246,-0.92501223,93.0
479,0.5905838,0.18771839,-1.1950226,-1.7555054,0.0541626,-0.32285157,93.0
480,1.3159599,0.10331249,-1.4623566,-1.7555054,0.0541626,-0.32285157,93.0
481,1.3159599,0.10331249,-1.4623566,-1.1416626,0.06903076,0.29417726,93.0
482,1.8069553,0.1835413,-1.4175262,-1.1416626,0.06903076,0.29417726,93.0
483,1.8069553,0.1835413,-1.4175262,-0.4959595,0.07434082,0.8772217,93.0
484,1.5858479,0.30227757,-1.0679474,-0.4959595,0.07434082,0.8772217,93.0
485,1.5858479,0.30227757,-1.0679474,0.02442627,0.17416993,1.3976074,93.0
486,0.8247814,0.20706844,-0.7453308,0.02442627,0.17416993,1.3976074,93.0
487,0.8247814,0.20706844,-0.7453308,0.6669434,0.23682861,1.8277222,93.0
488,0.5360451,-0.12256527,-0.63983154,0.6669434,0.23682861,1.8277222,93.0
489,0.5360451,-0.12256527,-0.63983154,1.44646,0.271875,2.256775,93.0
490,1.0971346,-0.4153862,-0.6402893,1.44646,0.271875,2.256775,93.0
491,1.0971346,-0.4153862,-0.6402893,2.2068603,0.2814331,2.6921997,93.0
492,1.7693214,-0.44273376,-0.5269165,2.2068603,0.2814331,2.6921997,93.0
493,1.7693214,-0.44273376,-0.5269165,2.7930908,0.3355957,3.1212525,93.0
494,1.7630157,-0.2146368,-0.24105835,2.7930908,0.3355957,3.1212525,93.0
495,1.7630157,-0.2146368,-0.24105835,3.1573608,0.4067505,3.519507,93.0
496,0.9150629,0.14946938,0.12760925,3.1573608,0.4067505,3.519507,93.0
497,0.9150629,0.14946938,0.12760925,3.0957642,0.4694092,3.8487306,93.0
498,-0.49741745,0.49925137,0.5055542,3.0957642,0.4694092,3.8487306,93.0
499,-0.49741745,0.49925137,0.5055542,2.7357423,0.54375,4.1354737,93.0
500,-1.987998,0.5870724,0.8534241,2.7357423,0.54375,4.1354737,93.0
501,-1.987998,0.5870724,0.8534241,2.3927124,0.5915405,4.341504,93.0
502,-3.1370296,0.36694813,1.0734863,2.3927124,0.5915405,4.341504,93.0
503,-3.1370296,0.36694813,1.0734863,1.8755127,0.63720703,4.410535,93.0
504,-3.822258,-0.05778408,1.037262,1.8755127,0.63720703,4.410535,93.0
505,-3.822258,-0.05778408,1.037262,1.273352,0.6669434,4.352124,93.0
506,-4.090399,-0.46931076,0.7969513,1.273352,0.6669434,4.352124,93.0
507,-4.090399,-0.46931076,0.7969513,0.8867798,0.6042847,4.2257447,93.0
508,-3.985857,-0.6629238,0.5195465,0.8867798,0.6042847,4.2257447,93.0
509,-3.985857,-0.6629238,0.5195465,0.85491943,0.5150757,3.9485595,93.0
510,-3.5018692,-0.6864424,0.31506348,0.85491943,0.5150757,3.9485595,93.0
511,-3.5018692,-0.6864424,0.31506348,0.9420044,0.47684327,3.519507,93.0
512,-2.715497,-0.71418095,0.2907257,0.9420044,0.47684327,3.519507,93.0
513,-2.715497,-0.71418095,0.2907257,1.2266235,0.4609131,3.0469117,93.0
514,-1.8794899,-0.7112131,0.38424683,1.2266235,0.4609131,3.0469117,93.0
515,-1.8794899,-0.7112131,0.38424683,1.5091187,0.47684327,2.537146,93.0
516,-1.1913233,-0.5420904,0.49916077,1.5091187,0.47684327,2.537146,93.0
517,-1.1913233,-0.5420904,0.49916077,1.7767457,0.50233155,2.0433106,93.0
518,-0.70261955,-0.04203415,0.6292572,1.7767457,0.50233155,2.0433106,93.0
519,-0.70261955,-0.04203415,0.6292572,1.8808228,0.58410645,1.540979,93.0
520,-0.51164436,0.84153175,0.6384125,1.8808228,0.58410645,1.540979,93.0
521,-0.51164436,0.84153175,0.6384125,1.5431031,0.5957886,1.0471436,93.0
522,-0.6995497,1.7472858,0.51867676,1.5431031,0.5957886,1.0471436,93.0
523,-0.6995497,1.7472858,0.51867676,0.9165161,0.5140137,0.6403931,93.0
524,-1.1551237,2.1218767,0.49595642,0.9165161,0.5140137,0.6403931,93.0
525,-1.1551237,2.1218767,0.49595642,0.33984375,0.452417,0.31860352,93.0
526,-1.6886864,1.9384079,0.6573334,0.33984375,0.452417,0.31860352,93.0
527,-1.6886864,1.9384079,0.6573334,-0.093457036,0.42268068,0.1444336,93.0
528,-1.7935028,1.5578432,0.76802063,-0.093457036,0.42268068,0.1444336,93.0
529,-1.7935028,1.5578432,0.76802063,-0.4725952,0.42905274,-0.04248047,93.0
530,-0.864954,1.2268295,0.48028564,-0.4725952,0.42905274,-0.04248047,93.0
531,-0.864954,1.2268295,0.48028564,-1.0195312,0.36533204,-0.3525879,93.0
532,0.23241425,0.97996235,-0.14477539,-1.0195312,0.36533204,-0.3525879,93.0
533,0.23241425,0.97996235,-0.14477539,-1.6694825,0.25063476,-0.5713623,93.0
534,0.47659302,0.48979282,-0.48312378,-1.6694825,0.25063476,-0.5713623,93.0
535,0.47659302,0.48979282,-0.48312378,-1.9158691,0.081774905,-0.8517334,93.0
536,0.38547325,-0.32924747,-0.24996948,-1.9158691,0.081774905,-0.8517334,93.0
537,0.38547325,-0.32924747,-0.24996948,-1.7321411,-0.12319336,-1.1182984,93.0
538,0.29457235,-0.98646927,0.19142151,-1.7321411,-0.12319336,-1.1182984,93.0
539,0.29457235,-0.98646927,0.19142151,-1.2903442,-0.33240968,-1.2797241,93.0
540,0.077589035,-1.1886139,0.38729858,-1.2903442,-0.33240968,-1.2797241,93.0
541,0.077589035,-1.1886139,0.38729858,-0.8591675,-0.5331299,-1.5069946,93.0
542,-0.0515275,-1.1506834,0.30174255,-0.8591675,-0.5331299,-1.5069946,93.0
543,-0.0515275,-1.1506834,0.30174255,-0.4715332,-0.68924564,-1.7448853,93.0
544,-0.13051653,-1.1314478,0.18415833,-0.4715332,-0.68924564,-1.7448853,93.0
545,-0.13051653,-1.1314478,0.18415833,-0.087084964,-0.7954468,-1.989148,93.0
546,-0.31793833,-1.1153021,0.088409424,-0.087084964,-0.7954468,-1.989148,93.0
547,-0.31793833,-1.1153021,0.088409424,0.087084964,-0.8591675,-2.2365968,93.0
548,-0.5942435,-1.0471725,0.035629272,0.087084964,-0.8591675,-2.2365968,93.0
549,-0.5942435,-1.0471725,0.035629272,0.06690674,-0.86553955,-2.430945,93.0
550,-0.86852264,-0.9261656,0.091171265,0.06690674,-0.86553955,-2.430945,93.0
551,-0.86852264,-0.9261656,0.091171265,-0.0541626,-0.8326172,-2.5966187,93.0
552,-0.89905405,-0.74991703,0.14762878,-0.0541626,-0.8326172,-2.5966187,93.0
553,-0.89905405,-0.74991703,0.14762878,-0.31435546,-0.7965088,-2.7707887,93.0
554,-0.42518806,-0.56677914,0.045715332,-0.31435546,-0.7965088,-2.7707887,93.0
555,-0.42518806,-0.56677914,0.045715332,-0.7349121,-0.7720825,-2.9566407,93.0
556,0.56804085,-0.44985867,-0.13362122,-0.7349121,-0.7720825,-2.9566407,93.0
557,0.56804085,-0.44985867,-0.13362122,-1.2266235,-0.7699585,-3.1541748,93.0
558,1.7437639,-0.44598293,-0.22203064,-1.2266235,-0.7699585,-3.1541748,93.0
559,1.7437639,-0.44598293,-0.22203064,-1.6917847,-0.7540283,-3.3156006,93.0
560,2.641447,-0.58436203,-0.104660034,-1.6917847,-0.7540283,-3.3156006,93.0
561,2.641447,-0.58436203,-0.104660034,-1.988086,-0.67650145,-3.42605,93.0
562,2.9783802,-0.8752413,0.19725037,-1.988086,-0.67650145,-3.42605,93.0
563,2.9783802,-0.8752413,0.19725037,-1.9456055,-0.5331299,-3.4727783,93.0
564,2.9556046,-1.2060652,0.49790955,-1.9456055,-0.5331299,-3.4727783,93.0
565,2.9556046,-1.2060652,0.49790955,-1.5717773,-0.36108398,-3.4239259,93.0
566,2.866168,-1.2973957,0.6056366,-1.5717773,-0.36108398,-3.4239259,93.0
567,2.866168,-1.2973957,0.6056366,-1.1554688,-0.19328614,-3.2444458,93.0
568,2.5897732,-1.0210218,0.45895386,-1.1554688,-0.19328614,-3.2444458,93.0
569,2.5897732,-1.0210218,0.45895386,-0.83474123,-0.06584473,-2.9534547,93.0
570,1.9335375,-0.5132284,0.13461304,-0.83474123,-0.06584473,-2.9534547,93.0
571,1.9335375,-0.5132284,0.13461304,-0.65632325,0.014868164,-2.5934327,93.0
572,1.1668739,-0.060131073,-0.21179199,-0.65632325,0.014868164,-2.5934327,93.0
573,1.1668739,-0.060131073,-0.21179199,-0.49171144,0.08283692,-2.1909301,93.0
574,0.87191486,0.18091106,-0.43441772,-0.49171144,0.08283692,-2.1909301,93.0
575,0.87191486,0.18091106,-0.43441772,-0.3058594,0.14230958,-1.7501954,93.0
576,1.226511,0.31532192,-0.59817505,-0.3058594,0.14230958,-1.7501954,93.0
577,1.226511,0.31532192,-0.59817505,-0.3334717,0.19116211,-1.263794,93.0
578,1.580122,0.43787766,-0.7960968,-0.3334717,0.19116211,-1.263794,93.0
579,1.580122,0.43787766,-0.7960968,-0.5777344,0.1901001,-0.6956177,93.0
580,1.580122,0.43787766,-0.7960968,-0.5777344,0.1901001,-0.6956177,92.0
581,1.3737288,0.49048805,-0.89689636,-0.5777344,0.1901001,-0.6956177,92.0
582,1.3737288,0.49048805,-0.89689636,-0.7072998,0.15823975,-0.10407715,92.0
583,0.9264612,0.51632786,-0.70433044,-0.7072998,0.15823975,-0.10407715,92.0
584,0.9264612,0.51632786,-0.70433044,-0.6287109,0.16673584,0.4343628,92.0
585,0.6023388,0.5477915,-0.4106598,-0.6287109,0.16673584,0.4343628,92.0
586,0.6023388,0.5477915,-0.4106598,-0.52675784,0.2814331,0.8889038,92.0
587,0.76280403,0.35498142,-0.45783997,-0.52675784,0.2814331,0.8889038,92.0
588,0.76280403,0.35498142,-0.45783997,-0.21452637,0.3525879,1.2903442,92.0
589,1.7660055,-0.081505775,-0.8856201,-0.21452637,0.3525879,1.2903442,92.0
590,1.7660055,-0.081505775,-0.8856201,0.37807617,0.32285157,1.7045288,92.0
591,3.196435,-0.47879124,-1.3069,0.37807617,0.32285157,1.7045288,92.0
592,3.196435,-0.47879124,-1.3069,1.2021973,0.2803711,2.066675,92.0
593,3.8808422,-0.6111336,-1.3589172,1.2021973,0.2803711,2.066675,92.0
594,3.8808422,-0.6111336,-1.3589172,2.0369384,0.29417726,2.340674,92.0
595,2.9313946,-0.515543,-1.0023956,2.0369384,0.29417726,2.340674,92.0
596,2.9313946,-0.515543,-1.0023956,2.7399902,0.32285157,2.5509522,92.0
597,0.7271595,-0.2610674,-0.45288086,2.7399902,0.32285157,2.5509522,92.0
598,0.7271595,-0.2610674,-0.45288086,3.1817873,0.27506104,2.7314942,92.0
599,-1.7106552,0.15251064,0.13179016,3.1817873,0.27506104,2.7314942,92.0
600,-1.7106552,0.15251064,0.13179016,3.1924074,0.26975098,2.9640749,92.0
601,-3.6422176,0.53026104,0.8398285,3.1924074,0.26975098,2.9640749,92.0
602,-3.6422176,0.53026104,0.8398285,3.000183,0.32497558,3.2359498,92.0
603,-4.7424116,0.71440697,1.4901886,3.000183,0.32497558,3.2359498,92.0
604,-4.7424116,0.71440697,1.4901886,2.5095336,0.4428589,3.4770265,92.0
605,-5.0005207,0.6840744,1.70047,2.5095336,0.4428589,3.4770265,92.0
606,-5.0005207,0.6840744,1.70047,1.8765748,0.5384399,3.6511962,92.0
607,-4.579335,0.42997456,1.3391266,1.8765748,0.5384399,3.6511962,92.0
608,-4.579335,0.42997456,1.3391266,1.3986695,0.5734863,3.705359,92.0
609,-3.750224,0.09418678,0.7165222,1.3986695,0.5734863,3.705359,92.0
610,-3.750224,0.09418678,0.7165222,1.175647,0.5511841,3.61615,92.0
611,-2.8264246,-0.16780281,0.24661255,1.175647,0.5511841,3.61615,92.0
612,-2.8264246,-0.16780281,0.24661255,1.1055542,0.541626,3.4005616,92.0
613,-1.9831371,-0.37386608,0.16648865,1.1055542,0.541626,3.4005616,92.0
614,-1.9831371,-0.37386608,0.16648865,1.2213135,0.57561034,3.1031983,92.0
615,-1.3686752,-0.47036934,0.36035156,1.2213135,0.57561034,3.1031983,92.0
616,-1.3686752,-0.47036934,0.36035156,1.3328247,0.63933104,2.7899048,92.0
617,-1.1768246,-0.34376335,0.52389526,1.3328247,0.63933104,2.7899048,92.0
618,-1.1768246,-0.34376335,0.52389526,1.350879,0.70305175,2.4882934,92.0
619,-1.382268,0.010621071,0.58473206,1.350879,0.70305175,2.4882934,92.0
620,-1.382268,0.010621071,0.58473206,1.26167,0.7582764,2.259961,92.0
621,-1.5408607,0.45119667,0.6268463,1.26167,0.7582764,2.259961,92.0
622,-1.5408607,0.45119667,0.6268463,1.1023682,0.75615233,2.076233,92.0
623,-1.3126445,0.85402393,0.638504,1.1023682,0.75615233,2.076233,92.0
624,-1.3126445,0.85402393,0.638504,0.86553955,0.7051758,1.8425903,92.0
625,-0.90181255,1.216032,0.58444214,0.86553955,0.7051758,1.8425903,92.0
626,-0.90181255,1.216032,0.58444214,0.57561034,0.5968506,1.5664673,92.0
627,-0.82480717,1.5647688,0.47732544,0.57561034,0.5968506,1.5664673,92.0
628,-0.82480717,1.5647688,0.47732544,0.12956543,0.4428589,1.2627319,92.0
629,-1.205317,1.7001057,0.38438416,0.12956543,0.4428589,1.2627319,92.0
630,-1.205317,1.7001057,0.38438416,-0.2814331,0.2623169,0.84323734,92.0
631,-1.1197104,1.4369278,0.33325195,-0.2814331,0.2623169,0.84323734,92.0
632,-1.1197104,1.4369278,0.33325195,-0.544812,0.078588866,0.2824951,92.0
633,-0.18182802,0.9098692,0.20532227,-0.544812,0.078588866,0.2824951,92.0
634,-0.18182802,0.9098692,0.20532227,-0.8623535,-0.10407715,-0.28355715,92.0
635,0.118929386,0.2833147,0.06813049,-0.8623535,-0.10407715,-0.28355715,92.0
636,0.118929386,0.2833147,0.06813049,-1.1522827,-0.29948732,-0.6903076,92.0
637,-0.63774204,-0.47062683,0.18087769,-1.1522827,-0.29948732,-0.6903076,92.0
638,-0.63774204,-0.47062683,0.18087769,-1.0694458,-0.49489745,-1.0259033,92.0
639,-1.0392466,-1.0133181,0.47244263,-1.0694458,-0.49489745,-1.0259033,92.0
640,-1.0392466,-1.0133181,0.47244263,-0.67225343,-0.6945557,-1.2489258,92.0
641,-0.6481695,-0.95322037,0.72164917,-0.67225343,-0.6945557,-1.2489258,92.0
642,-0.6481695,-0.95322037,0.72164917,-0.21558838,-0.86553955,-1.3944215,92.0
643,-0.22158766,-0.7659817,0.7696686,-0.21558838,-0.86553955,-1.3944215,92.0
644,-0.22158766,-0.7659817,0.7696686,0.010620117,-0.9366943,-1.4846925,92.0
645,0.3071289,-0.39124012,0.8227539,0.010620117,-0.9366943,-1.4846925,92.0
646,0.3071289,-0.39124012,0.8227539,0.4991455,-1.0949341,-1.6939087,92.0
647,0.34645987,-0.43562412,0.78512573,0.4991455,-1.0949341,-1.6939087,92.0
648,0.34645987,-0.43562412,0.78512573,0.6159668,-1.1448487,-1.7374512,92.0
649,-0.14464617,-0.50047684,0.7107086,0.6159668,-1.1448487,-1.7374512,92.0
650,-0.14464617,-0.50047684,0.7107086,0.8517334,-1.2361816,-1.8319702,92.0
651,-0.16698647,-0.56214905,0.81843567,0.8517334,-1.2361816,-1.8319702,92.0
652,-0.16698647,-0.56214905,0.81843567,0.85491943,-1.2372437,-1.8680786,92.0
653,-0.69539356,-0.5312748,1.1205597,0.85491943,-1.2372437,-1.8680786,92.0
654,-0.69539356,-0.5312748,1.1205597,0.60959476,-1.2117554,-2.0295045,92.0
655,-0.54083633,-0.5576372,1.1295929,0.60959476,-1.2117554,-2.0295045,92.0
656,-0.54083633,-0.5576372,1.1295929,0.45878908,-1.2032593,-2.1049073,92.0
657,-0.47676086,-0.57612705,1.1426239,0.45878908,-1.2032593,-2.1049073,92.0
658,-0.47676086,-0.57612705,1.1426239,-0.07115479,-1.1565307,-2.356604,92.0
659,0.010302544,-0.6168833,1.0299988,-0.07115479,-1.1565307,-2.356604,92.0
660,0.010302544,-0.6168833,1.0299988,-0.19434814,-1.1342286,-2.4351928,92.0
661,1.1853662,-0.76525974,1.2442627,-0.19434814,-1.1342286,-2.4351928,92.0
662,1.1853662,-0.76525974,1.2442627,-0.41524658,-1.0237793,-2.6783936,92.0
663,1.7626724,-0.7823858,1.1435242,-0.41524658,-1.0237793,-2.6783936,92.0
664,1.7626724,-0.7823858,1.1435242,-0.48427734,-0.9759888,-2.7474244,92.0
665,3.0607967,-0.962029,1.445282,-0.48427734,-0.9759888,-2.7474244,92.0
666,3.0607967,-0.962029,1.445282,-0.6796875,-0.811377,-2.9035401,92.0
667,3.1287155,-0.9542546,1.3269501,-0.6796875,-0.811377,-2.9035401,92.0
668,3.1287155,-0.9542546,1.3269501,-0.70305175,-0.72960204,-2.9332764,92.0
669,2.995758,-1.1840577,1.8220825,-0.70305175,-0.72960204,-2.9332764,92.0
670,2.995758,-1.1840577,1.8220825,-0.5894165,-0.452417,-2.8610597,92.0
671,2.623804,-1.0203786,1.5448151,-0.5894165,-0.452417,-2.8610597,92.0
672,2.623804,-1.0203786,1.5448151,-0.58623046,-0.35683593,-2.794153,92.0
673,2.623804,-1.0203786,1.5448151,-0.58623046,-0.35683593,-2.794153,92.0
674,1.7763996,-0.82368803,1.0418854,-0.58623046,-0.35683593,-2.794153,92.0
675,1.7763996,-0.82368803,1.0418854,-0.38232422,-0.12850343,-2.5605104,92.0
676,1.615736,-0.7104273,0.7200012,-0.38232422,-0.12850343,-2.5605104,92.0
677,1.615736,-0.7104273,0.7200012,-0.12319336,-0.04885254,-2.5031617,92.0
678,1.5784407,-0.9516182,0.7313385,-0.12319336,-0.04885254,-2.5031617,92.0
679,1.5784407,-0.9516182,0.7313385,0.9143921,0.13275146,-2.440503,92.0
680,2.3084679,-1.1138215,1.0345612,0.9143921,0.13275146,-2.440503,92.0
681,2.3084679,-1.1138215,1.0345612,1.8808228,0.26868898,-2.4054565,92.0
682,3.6058807,-0.8438525,1.1057587,1.8808228,0.26868898,-2.4054565,92.0
683,3.6058807,-0.8438525,1.1057587,1.6546143,0.5384399,-1.989148,92.0
684,4.5802975,-0.7280483,1.0241699,1.6546143,0.5384399,-1.989148,92.0
685,4.5802975,-0.7280483,1.0241699,1.2096313,0.89421386,-1.3105224,92.0
686,4.140911,-0.859746,0.82225037,1.2096313,0.89421386,-1.3105224,92.0
687,4.140911,-0.859746,0.82225037,1.0556396,1.1862671,0.1359375,92.0
688,2.7472506,-0.48113203,0.6582947,1.0556396,1.1862671,0.1359375,92.0
689,2.7472506,-0.48113203,0.6582947,0.89846194,1.2935303,0.56817627,92.0
690,0.6363144,0.5290103,0.126297,0.89846194,1.2935303,0.56817627,92.0
691,0.6363144,0.5290103,0.126297,0.541626,1.5972656,1.3211426,92.0
692,-0.5508232,1.197012,-0.44877625,0.541626,1.5972656,1.3211426,92.0
693,-0.5508232,1.197012,-0.44877625,0.31966552,1.8171021,1.905249,92.0
694,-0.27192116,1.1458178,-1.0631256,0.31966552,1.8171021,1.905249,92.0
695,-0.27192116,1.1458178,-1.0631256,-0.04885254,1.901001,2.4628053,92.0
696,0.4740162,0.7213416,-1.7227783,-0.04885254,1.901001,2.4628053,92.0
697,0.4740162,0.7213416,-1.7227783,-0.52250975,1.8956909,3.0076172,92.0
698,0.6063738,0.32815933,-2.1804962,-0.52250975,1.8956909,3.0076172,92.0
699,0.6063738,0.32815933,-2.1804962,-0.84748536,1.7470093,3.440918,92.0
700,-0.23360252,0.13670969,-2.3040924,-0.84748536,1.7470093,3.440918,92.0
701,-0.23360252,0.13670969,-2.3040924,-0.83686525,1.4560181,3.7297852,92.0
702,-1.6297283,0.07909441,-2.01297,-0.83686525,1.4560181,3.7297852,92.0
703,-1.6297283,0.07909441,-2.01297,-0.41737062,1.1926392,3.8487306,92.0
704,-2.9713612,0.12162495,-1.386322,-0.41737062,1.1926392,3.8487306,92.0
705,-2.9713612,0.12162495,-1.386322,0.11469727,1.0174073,3.886963,92.0
706,-3.8984518,0.28543472,-0.8540344,0.11469727,1.0174073,3.886963,92.0
707,-3.8984518,0.28543472,-0.8540344,0.4800293,0.88040775,3.8349245,92.0
708,-4.38031,0.493155,-0.6431122,0.4800293,0.88040775,3.8349245,92.0
709,-4.38031,0.493155,-0.6431122,0.75296634,0.75509036,3.7287233,92.0
710,-4.5402718,0.6655083,-0.70814514,0.75296634,0.75509036,3.7287233,92.0
711,-4.5402718,0.6655083,-0.70814514,0.9388184,0.6425171,3.5800416,92.0
712,-4.38859,0.8217497,-0.85310364,0.9388184,0.6425171,3.5800416,92.0
713,-4.38859,0.8217497,-0.85310364,1.0460815,0.5501221,3.3740113,92.0
714,-3.899971,0.9169946,-0.9195709,1.0460815,0.5501221,3.3740113,92.0
715,-3.899971,0.9169946,-0.9195709,1.2191895,0.4694092,3.1170044,92.0
716,-3.1048522,0.9614644,-0.83847046,1.2191895,0.4694092,3.1170044,92.0
717,-3.1048522,0.9614644,-0.83847046,1.3901733,0.40356445,2.8291993,92.0
718,-2.2315016,1.0275941,-0.6250763,1.3901733,0.40356445,2.8291993,92.0
719,-2.2315016,1.0275941,-0.6250763,1.448584,0.33771974,2.5498903,92.0
720,-1.5371304,1.121294,-0.28303528,1.448584,0.33771974,2.5498903,92.0
721,-1.5371304,1.121294,-0.28303528,1.4804443,0.24957275,2.3204956,92.0
722,-1.2031784,1.2443132,0.17929077,1.4804443,0.24957275,2.3204956,92.0
723,-1.2031784,1.2443132,0.17929077,1.4751343,0.16992188,2.1272094,92.0
724,-1.3002381,1.4401035,0.7177429,1.4751343,0.16992188,2.1272094,92.0
725,-1.3002381,1.4401035,0.7177429,1.4209718,0.08602295,2.0061402,92.0
726,-1.5018725,1.7287798,1.208786,1.4209718,0.08602295,2.0061402,92.0
727,-1.5018725,1.7287798,1.208786,1.3264526,0.032922365,1.8394043,92.0
728,-1.3700895,2.0250158,1.5761108,1.3264526,0.032922365,1.8394043,92.0
729,-1.3700895,2.0250158,1.5761108,1.2977784,-0.057348635,1.6046997,92.0
730,-1.0184226,2.256463,1.798584,1.2977784,-0.057348635,1.6046997,92.0
731,-1.0184226,2.256463,1.798584,1.2351197,-0.17841797,1.4124756,92.0
732,-0.6524582,2.4748354,1.7847595,1.2351197,-0.17841797,1.4124756,92.0
733,-0.6524582,2.4748354,1.7847595,0.9197022,-0.33134767,1.0747559,92.0
734,-0.28340483,2.6231422,1.3643646,0.9197022,-0.33134767,1.0747559,92.0
735,-0.28340483,2.6231422,1.3643646,0.19116211,-0.6159668,0.6775635,92.0
736,-0.48935843,2.3169956,0.8938904,0.19116211,-0.6159668,0.6775635,92.0
737,-0.48935843,2.3169956,0.8938904,-0.41949463,-0.89208984,0.38657227,92.0
738,-1.039607,1.268074,1.1719208,-0.41949463,-0.89208984,0.38657227,92.0
739,-1.039607,1.268074,1.1719208,-0.2177124,-1.1055542,-0.011682129,92.0
740,-0.96676874,0.17714214,2.1137695,-0.2177124,-1.1055542,-0.011682129,92.0
741,-0.96676874,0.17714214,2.1137695,0.271875,-1.2552979,-0.26762697,92.0
742,-0.48689175,-0.18781567,2.7463531,0.271875,-1.2552979,-0.26762697,92.0
743,-0.48689175,-0.18781567,2.7463531,0.6053467,-1.3285767,-0.45029297,92.0
744,-0.26082706,-0.043819427,2.6095886,0.6053467,-1.3285767,-0.45029297,92.0
745,-0.26082706,-0.043819427,2.6095886,0.77314454,-1.4188477,-0.63826907,92.0
746,-0.43089056,0.14719486,1.9940186,0.77314454,-1.4188477,-0.63826907,92.0
747,-0.43089056,0.14719486,1.9940186,0.632959,-1.5537232,-0.81881106,92.0
748,-0.73979306,0.16808605,1.3398132,0.632959,-1.5537232,-0.81881106,92.0
749,-0.73979306,0.16808605,1.3398132,0.35152587,-1.7002808,-1.0333375,92.0
750,-0.8093393,-0.030777931,1.0353546,0.35152587,-1.7002808,-1.0333375,92.0
751,-0.8093393,-0.030777931,1.0353546,0.19222413,-1.7905518,-1.2563599,92.0
752,-0.60201263,-0.3384409,1.1726379,0.19222413,-1.7905518,-1.2563599,92.0
753,-0.60201263,-0.3384409,1.1726379,0.14337158,-1.7990478,-1.4719483,92.0
754,-0.39450073,-0.6283703,1.4051666,0.14337158,-1.7990478,-1.4719483,92.0
755,-0.39450073,-0.6283703,1.4051666,0.095581055,-1.7724975,-1.6737305,92.0
756,-0.27020264,-0.8607044,1.373169,0.095581055,-1.7724975,-1.6737305,92.0
757,-0.27020264,-0.8607044,1.373169,0.009558106,-1.7650635,-1.8691406,92.0
758,-0.04299307,-1.0242691,1.2529755,0.009558106,-1.7650635,-1.8691406,92.0
759,-0.04299307,-1.0242691,1.2529755,0.0063720704,-1.7661256,-2.0454347,92.0
760,0.41316414,-1.0915956,1.420517,0.0063720704,-1.7661256,-2.0454347,92.0
761,0.41316414,-1.0915956,1.420517,0.1178833,-1.7385132,-2.2079225,92.0
762,1.1335588,-1.0747538,1.7021179,0.1178833,-1.7385132,-2.2079225,92.0
763,1.1335588,-1.0747538,1.7021179,0.1901001,-1.6960328,-2.3874023,92.0
764,2.035326,-0.9990854,1.7549133,0.1901001,-1.6960328,-2.3874023,92.0
765,2.035326,-0.9990854,1.7549133,0.053100586,-1.6248779,-2.5456421,92.0
766,2.8185563,-0.9700813,1.6397552,0.053100586,-1.6248779,-2.5456421,92.0
767,2.8185563,-0.9700813,1.6397552,-0.13912354,-1.545227,-2.6900756,92.0
768,3.227306,-1.0537014,1.6644745,-0.13912354,-1.545227,-2.6900756,92.0
769,3.227306,-1.0537014,1.6644745,-0.027612304,-1.4337158,-2.7782228,92.0
770,3.2760954,-1.0471478,1.7858429,-0.027612304,-1.4337158,-2.7782228,92.0
771,3.2760954,-1.0471478,1.7858429,0.046728518,-1.3094605,-2.8164551,92.0
772,2.9344997,-0.84996223,1.715683,0.046728518,-1.3094605,-2.8164551,92.0
773,2.9344997,-0.84996223,1.715683,-0.17416993,-1.1034302,-2.7506104,92.0
774,2.9344997,-0.84996223,1.715683,-0.17416993,-1.1034302,-2.7506104,92.0
775,2.4109058,-0.68274117,1.4581146,-0.17416993,-1.1034302,-2.7506104,92.0
776,2.4109058,-0.68274117,1.4581146,-0.6053467,-0.8772217,-2.6953857,92.0
777,2.271511,-0.70073414,1.0046539,-0.6053467,-0.8772217,-2.6953857,92.0
778,2.271511,-0.70073414,1.0046539,-1.1618408,-0.58304447,-2.5456421,92.0
779,2.670456,-0.8791914,0.34373474,-1.1618408,-0.58304447,-2.5456421,92.0
780,2.670456,-0.8791914,0.34373474,-1.621692,-0.27718505,-2.337488,92.0
781,3.0027714,-1.146102,-0.3983307,-1.621692,-0.27718505,-2.337488,92.0
782,3.0027714,-1.146102,-0.3983307,-2.0337524,0.0180542,-1.99552,92.0
783,2.9234695,-1.4953241,-1.0338287,-2.0337524,0.0180542,-1.99552,92.0
784,2.9234695,-1.4953241,-1.0338287,-2.167566,0.24532472,-1.5537232,92.0
785,2.871088,-1.8359566,-1.3419647,-2.167566,0.24532472,-1.5537232,92.0
786,2.871088,-1.8359566,-1.3419647,-1.8691406,0.44498292,-0.9802368,92.0
787,2.6870804,-1.9538484,-1.3207855,-1.8691406,0.44498292,-0.9802368,92.0
788,2.6870804,-1.9538484,-1.3207855,-1.3838013,0.69136965,-0.3154175,92.0
789,1.7071962,-1.7627125,-1.3099976,-1.3838013,0.69136965,-0.3154175,92.0
790,1.7071962,-1.7627125,-1.3099976,-0.68499756,0.8846558,0.32603762,92.0
791,0.5680275,-1.3265638,-1.6164398,-0.68499756,0.8846558,0.32603762,92.0
792,0.5680275,-1.3265638,-1.6164398,0.12213135,0.9674927,0.92076415,92.0
793,0.39596176,-0.7090664,-1.9915771,0.12213135,0.9674927,0.92076415,92.0
794,0.39596176,-0.7090664,-1.9915771,0.6977417,0.98873293,1.4358399,92.0
795,0.9762783,-0.06719208,-2.0165558,0.6977417,0.98873293,1.4358399,92.0
796,0.9762783,-0.06719208,-2.0165558,0.9632446,1.0322754,1.9264892,92.0
797,1.2387123,0.40049458,-1.6511993,0.9632446,1.0322754,1.9264892,92.0
798,1.2387123,0.40049458,-1.6511993,1.0598878,1.083252,2.3279297,92.0
799,0.40415382,0.70387983,-1.147171,1.0598878,1.083252,2.3279297,92.0
800,0.40415382,0.70387983,-1.147171,1.0163453,1.1172364,2.6507814,92.0
801,-1.417058,0.9191098,-0.7168884,1.0163453,1.1172364,2.6507814,92.0
802,-1.417058,0.9191098,-0.7168884,0.9526245,1.1289185,2.8801758,92.0
803,-3.298771,1.0708103,-0.5123291,0.9526245,1.1289185,2.8801758,92.0
804,-3.298771,1.0708103,-0.5123291,0.75296634,1.0683838,3.0224855,92.0
805,-4.3879795,1.1156206,-0.5251465,0.75296634,1.0683838,3.0224855,92.0
806,-4.3879795,1.1156206,-0.5251465,0.45560303,1.0312134,3.1339967,92.0
807,-4.543563,1.0095129,-0.56640625,0.45560303,1.0312134,3.1339967,92.0
808,-4.543563,1.0095129,-0.56640625,0.3334717,0.9802368,3.1945312,92.0
809,-4.195361,0.870306,-0.6318054,0.3334717,0.9802368,3.1945312,92.0
810,-4.195361,0.870306,-0.6318054,0.34727785,0.9345703,3.1977174,92.0
811,-3.6940818,0.8429127,-0.7420654,0.34727785,0.9345703,3.1977174,92.0
812,-3.6940818,0.8429127,-0.7420654,0.43117675,0.9197022,3.1541748,92.0
813,-3.098503,0.93706226,-0.825943,0.43117675,0.9197022,3.1541748,92.0
814,-3.098503,0.93706226,-0.825943,0.51826173,0.90802,3.0947022,92.0
815,-2.4231386,1.0913248,-0.8365936,0.51826173,0.90802,3.0947022,92.0
816,-2.4231386,1.0913248,-0.8365936,0.58410645,0.8846558,3.0161133,92.0
817,-1.7499852,1.2551765,-0.6754608,0.58410645,0.8846558,3.0161133,92.0
818,-1.7499852,1.2551765,-0.6754608,0.7062378,0.8793457,2.9449584,92.0
819,-1.2456427,1.4807892,-0.3905487,0.7062378,0.8793457,2.9449584,92.0
820,-1.2456427,1.4807892,-0.3905487,0.7720825,0.90908206,2.8684938,92.0
821,-1.0507259,1.7774782,-0.24229431,0.7720825,0.90908206,2.8684938,92.0
822,-1.0507259,1.7774782,-0.24229431,0.57561034,0.8963379,2.715564,92.0
823,-1.0855026,2.043418,-0.30700684,0.57561034,0.8963379,2.715564,92.0
824,-1.0855026,2.043418,-0.30700684,0.1996582,0.8028809,2.4574952,92.0
825,-1.0714903,2.139349,-0.34455872,0.1996582,0.8028809,2.4574952,92.0
826,-1.0714903,2.139349,-0.34455872,-0.124255374,0.61278075,2.1155274,92.0
827,-0.83792925,1.9920816,-0.102005005,-0.124255374,0.61278075,2.1155274,92.0
828,-0.83792925,1.9920816,-0.102005005,-0.17416993,0.41418457,1.7087768,92.0
829,-0.6621766,1.8050547,0.3391266,-0.17416993,0.41418457,1.7087768,92.0
830,-0.6621766,1.8050547,0.3391266,-0.0053100586,0.26762697,1.2967163,92.0
831,-0.7553272,1.8231583,0.59661865,-0.0053100586,0.26762697,1.2967163,92.0
832,-0.7553272,1.8231583,0.59661865,0.087084964,0.14761963,0.91120607,92.0
833,-0.6225481,1.9735909,0.32144165,0.087084964,0.14761963,0.91120607,92.0
834,-0.6225481,1.9735909,0.32144165,-0.17947999,-0.07752686,0.40250245,92.0
835,-0.06947374,1.9474392,-0.40304565,-0.17947999,-0.07752686,0.40250245,92.0
836,-0.06947374,1.9474392,-0.40304565,-0.6637573,-0.36639404,-0.0637207,92.0
837,-0.017407417,1.3346109,-0.62794495,-0.6637573,-0.36639404,-0.0637207,92.0
838,-0.017407417,1.3346109,-0.62794495,-0.22196046,-0.6966797,-0.3440918,92.0
839,-0.35888433,0.40465164,0.22148132,-0.22196046,-0.6966797,-0.3440918,92.0
840,-0.35888433,0.40465164,0.22148132,0.6711914,-0.9281983,-0.68924564,92.0
841,-0.058799267,0.070632935,1.3507385,0.6711914,-0.9281983,-0.68924564,92.0
842,-0.058799267,0.070632935,1.3507385,1.1374146,-1.0322754,-0.8952759,92.0
843,0.53379536,0.38930702,1.92099,1.1374146,-1.0322754,-0.8952759,92.0
844,0.53379536,0.38930702,1.92099,1.2818482,-1.1289185,-1.0248413,92.0
845,0.5993509,0.7317581,1.7761536,1.2818482,-1.1289185,-1.0248413,92.0
846,0.5993509,0.7317581,1.7761536,0.996167,-1.260608,-1.1915772,92.0
847,0.05512762,0.78940964,1.2435303,0.996167,-1.260608,-1.1915772,92.0
848,0.05512762,0.78940964,1.2435303,0.2516968,-1.3869873,-1.3678712,92.0
849,-0.631618,0.48680115,0.7087555,0.2516968,-1.3869873,-1.3678712,92.0
850,-0.631618,0.48680115,0.7087555,-0.5065796,-1.5101807,-1.5845215,92.0
851,-0.9200406,-0.16375732,0.45115662,-0.5065796,-1.5101807,-1.5845215,92.0
852,-0.9200406,-0.16375732,0.45115662,-0.87615967,-1.6142578,-1.8606446,92.0
853,-0.77007794,-0.95930195,0.6608429,-0.87615967,-1.6142578,-1.8606446,92.0
854,-0.77007794,-0.95930195,0.6608429,-0.904834,-1.6153198,-2.167566,92.0
855,-0.42599893,-1.60427,1.1817017,-0.904834,-1.6153198,-2.167566,92.0
856,-0.42599893,-1.60427,1.1817017,-0.7890747,-1.4751343,-2.4914796,92.0
857,-0.015481949,-1.9124079,1.4306183,-0.7890747,-1.4751343,-2.4914796,92.0
858,-0.015481949,-1.9124079,1.4306183,-0.901648,-1.2712281,-2.8706176,92.0
859,0.5125656,-1.9695749,0.9562073,-0.901648,-1.2712281,-2.8706176,92.0
860,0.5125656,-1.9695749,0.9562073,-1.5208008,-1.1554688,-3.2125854,92.0
861,1.1535587,-2.0657234,0.1906128,-1.5208008,-1.1554688,-3.2125854,92.0
862,1.1535587,-2.0657234,0.1906128,-2.1059692,-1.1193603,-3.5014527,92.0
863,1.9024367,-2.304141,-0.04776001,-2.1059692,-1.1193603,-3.5014527,92.0
864,1.9024367,-2.304141,-0.04776001,-2.4585571,-1.0450195,-3.7945678,92.0
865,2.8349867,-2.6110983,0.27723694,-2.4585571,-1.0450195,-3.7945678,92.0
866,2.8349867,-2.6110983,0.27723694,-2.608301,-0.8750977,-4.0515747,92.0
867,3.8670616,-3.012206,0.68977356,-2.608301,-0.8750977,-4.0515747,92.0
868,3.8670616,-3.012206,0.68977356,-2.345984,-0.632959,-4.1885743,92.0
869,4.7037935,-3.467248,0.86927795,-2.345984,-0.632959,-4.1885743,92.0
870,4.7037935,-3.467248,0.86927795,-1.7395753,-0.36639404,-4.2013183,92.0
871,4.924753,-3.570283,0.67692566,-1.7395753,-0.36639404,-4.2013183,92.0
872,4.924753,-3.570283,0.67692566,-1.173523,-0.13168946,-3.9549317,92.0
873,4.320345,-3.081458,0.17840576,-1.173523,-0.13168946,-3.9549317,92.0
874,4.320345,-3.081458,0.17840576,-0.70198977,0.020178223,-3.6023438,92.0
875,3.213564,-2.227508,-0.32557678,-0.70198977,0.020178223,-3.6023438,92.0
876,3.213564,-2.227508,-0.32557678,-0.47471926,0.13806152,-3.1467407,92.0
877,2.174037,-1.3654294,-0.67082214,-0.47471926,0.13806152,-3.1467407,92.0
878,2.174037,-1.3654294,-0.67082214,-0.44498292,0.22408448,-2.5998046,92.0
879,1.562789,-0.7701998,-0.94789124,-0.44498292,0.22408448,-2.5998046,92.0
880,1.562789,-0.7701998,-0.94789124,-0.51082766,0.26550293,-2.0167603,92.0
881,1.2148438,-0.49709272,-1.3473663,-0.51082766,0.26550293,-2.0167603,92.0
882,1.2148438,-0.49709272,-1.3473663,-0.7604004,0.1901001,-1.3222046,92.0
883,1.0548334,-0.5076108,-1.5760651,-0.7604004,0.1901001,-1.3222046,92.0
884,1.0548334,-0.5076108,-1.5760651,-0.6945557,0.21346436,-0.5065796,92.0
885,1.3144112,-0.42762184,-1.3074493,-0.6945557,0.21346436,-0.5065796,92.0
886,1.3144112,-0.42762184,-1.3074493,-0.40993652,0.18479005,0.24320069,92.0
887,1.2491484,0.018229485,-0.9604492,-0.40993652,0.18479005,0.24320069,92.0
888,1.2491484,0.018229485,-0.9604492,-0.44604492,0.29948732,0.96218264,92.0
889,0.2729025,0.3427086,-0.92684937,-0.44604492,0.29948732,0.96218264,92.0
890,0.2729025,0.3427086,-0.92684937,-0.35895997,0.38232422,1.545227,92.0
891,-0.67045975,0.2023282,-1.1258087,-0.35895997,0.38232422,1.545227,92.0
892,-0.67045975,0.2023282,-1.1258087,0.04141846,0.40037844,2.1463258,92.0
893,-0.7025423,-0.03251028,-1.318039,0.04141846,0.40037844,2.1463258,92.0
894,-0.7025423,-0.03251028,-1.318039,0.46728516,0.35789797,2.7484863,92.0
895,-0.0063819885,-0.033601284,-1.3484955,0.46728516,0.35789797,2.7484863,92.0
896,-0.0063819885,-0.033601284,-1.3484955,0.89421386,0.3090454,3.3177247,92.0
897,-0.0063819885,-0.033601284,-1.3484955,0.89421386,0.3090454,3.3177247,92.0
898,0.7209072,0.21035004,-1.151535,0.89421386,0.3090454,3.3177247,92.0
899,0.7209072,0.21035004,-1.151535,1.360437,0.2177124,3.7457154,92.0
900,0.83498955,0.57109976,-0.7511749,1.360437,0.2177124,3.7457154,92.0
901,0.83498955,0.57109976,-0.7511749,1.7990478,0.14124756,4.010156,92.0
902,0.08745003,0.9514475,-0.16783142,1.7990478,0.14124756,4.010156,92.0
903,0.08745003,0.9514475,-0.16783142,2.1176515,0.11682129,4.1312256,92.0
904,-1.2449932,1.2997932,0.4875641,2.1176515,0.11682129,4.1312256,92.0
905,-1.2449932,1.2997932,0.4875641,2.1877441,0.18372802,4.164148,92.0
906,-2.6082268,1.5412264,0.99676514,2.1877441,0.18372802,4.164148,92.0
907,-2.6082268,1.5412264,0.99676514,2.0348146,0.2824951,4.1089234,92.0
908,-3.5642796,1.6427584,1.1856995,2.0348146,0.2824951,4.1089234,92.0
909,-3.5642796,1.6427584,1.1856995,1.8224121,0.36108398,4.0462646,92.0
910,-4.0880938,1.7243748,1.0023956,1.8224121,0.36108398,4.0462646,92.0
911,-4.0880938,1.7243748,1.0023956,1.6131958,0.4088745,3.9294434,92.0
912,-4.3047886,1.8730907,0.5536804,1.6131958,0.4088745,3.9294434,92.0
913,-4.3047886,1.8730907,0.5536804,1.3126465,0.452417,3.7828858,92.0
914,-4.093306,1.9644032,0.12632751,1.3126465,0.452417,3.7828858,92.0
915,-4.093306,1.9644032,0.12632751,1.1055542,0.47684327,3.530127,92.0
916,-3.3633537,1.938014,-0.063064575,1.1055542,0.47684327,3.530127,92.0
917,-3.3633537,1.938014,-0.063064575,1.0726318,0.49277344,3.274182,92.0
918,-2.4397922,1.901022,-0.06814575,1.0726318,0.49277344,3.274182,92.0
919,-2.4397922,1.901022,-0.06814575,1.0662597,0.541626,2.987439,92.0
920,-1.6988792,1.8990278,-0.026062012,1.0662597,0.541626,2.987439,92.0
921,-1.6988792,1.8990278,-0.026062012,1.1257324,0.5522461,2.7399902,92.0
922,-1.2304535,2.0551605,-0.0206604,1.1257324,0.5522461,2.7399902,92.0
923,-1.2304535,2.0551605,-0.0206604,1.2191895,0.52675784,2.521216,92.0
924,-0.8874512,2.530383,-0.0036315918,1.2191895,0.52675784,2.521216,92.0
925,-0.8874512,2.530383,-0.0036315918,1.2839721,0.4800293,2.2164185,92.0
926,-0.5956907,3.2600613,0.0076293945,1.2839721,0.4800293,2.2164185,92.0
927,-0.5956907,3.2600613,0.0076293945,1.1299804,0.41312256,1.6875366,92.0
928,-0.60012436,3.769145,-0.021713257,1.1299804,0.41312256,1.6875366,92.0
929,-0.60012436,3.769145,-0.021713257,0.6818115,0.30161133,1.1013062,92.0
930,-0.8750949,3.4781704,0.055480957,0.6818115,0.30161133,1.1013062,92.0
931,-0.8750949,3.4781704,0.055480957,0.2623169,0.16779785,0.61278075,92.0
932,-0.9689112,2.4913254,0.35435486,0.2623169,0.16779785,0.61278075,92.0
933,-0.9689112,2.4913254,0.35435486,0.19222413,-0.004248047,0.19116211,92.0
934,-0.59198666,1.6291075,0.60487366,0.19222413,-0.004248047,0.19116211,92.0
935,-0.59198666,1.6291075,0.60487366,0.09239502,-0.16248779,-0.29417726,92.0
936,0.03017044,1.209341,0.47763062,0.09239502,-0.16248779,-0.29417726,92.0
937,0.03017044,1.209341,0.47763062,-0.21452637,-0.4078125,-0.7858887,92.0
938,0.2616973,0.72670174,0.2669525,-0.21452637,-0.4078125,-0.7858887,92.0
939,0.2616973,0.72670174,0.2669525,-0.32391357,-0.6945557,-1.1809571,92.0
940,0.2860179,-0.17222786,0.5180359,-0.32391357,-0.6945557,-1.1809571,92.0
941,0.2860179,-0.17222786,0.5180359,0.050976563,-0.9239502,-1.4942505,92.0
942,0.69066715,-0.9248543,1.1554108,0.050976563,-0.9239502,-1.4942505,92.0
943,0.69066715,-0.9248543,1.1554108,0.52675784,-1.0981201,-1.6631104,92.0
944,1.1204901,-0.9939976,1.5691528,0.52675784,-1.0981201,-1.6631104,92.0
945,1.1204901,-0.9939976,1.5691528,0.8251831,-1.1809571,-1.7714356,92.0
946,1.1370049,-0.6668167,1.4400177,0.8251831,-1.1809571,-1.7714356,92.0
947,1.1370049,-0.6668167,1.4400177,0.84536135,-1.26167,-1.8786987,92.0
948,0.7986908,-0.4229555,0.9595947,0.84536135,-1.26167,-1.8786987,92.0
949,0.7986908,-0.4229555,0.9595947,0.56817627,-1.3222046,-1.9689697,92.0
950,0.30687237,-0.4765482,0.5358734,0.56817627,-1.3222046,-1.9689697,92.0
951,0.30687237,-0.4765482,0.5358734,0.20284425,-1.355127,-2.079419,92.0
952,-0.15114498,-0.71872616,0.39385986,0.20284425,-1.355127,-2.079419,92.0
953,-0.15114498,-0.71872616,0.39385986,-0.1274414,-1.3115845,-2.2100465,92.0
954,-0.52081823,-0.98018074,0.4371338,-0.1274414,-1.3115845,-2.2100465,92.0
955,-0.52081823,-0.98018074,0.4371338,-0.55755615,-1.2096313,-2.3735962,92.0
956,-0.76123476,-1.2559462,0.43521118,-0.55755615,-1.2096313,-2.3735962,92.0
957,-0.76123476,-1.2559462,0.43521118,-1.0237793,-1.1013062,-2.536084,92.0
958,-0.7424841,-1.5772791,0.34422302,-1.0237793,-1.1013062,-2.536084,92.0
959,-0.7424841,-1.5772791,0.34422302,-1.4528321,-1.0142212,-2.720874,92.0
960,-0.37257624,-1.9024849,0.2585907,-1.4528321,-1.0142212,-2.720874,92.0
961,-0.37257624,-1.9024849,0.2585907,-1.7937378,-0.94625247,-2.890796,92.0
962,0.29805756,-2.1760406,0.22784424,-1.7937378,-0.94625247,-2.890796,92.0
963,0.29805756,-2.1760406,0.22784424,-2.0146363,-0.8878418,-3.0564697,92.0
964,1.1506166,-2.3857298,0.20454407,-2.0146363,-0.8878418,-3.0564697,92.0
965,1.1506166,-2.3857298,0.20454407,-2.1431396,-0.8336792,-3.2136476,92.0
966,2.031602,-2.5394678,0.22695923,-2.1431396,-0.8336792,-3.2136476,92.0
967,2.031602,-2.5394678,0.22695923,-2.1962402,-0.76358646,-3.3315308,92.0
968,2.702137,-2.6606512,0.44091797,-2.1962402,-0.76358646,-3.3315308,92.0
969,2.702137,-2.6606512,0.44091797,-2.1537597,-0.65207523,-3.3729494,92.0
970,2.958829,-2.7158012,0.7866516,-2.1537597,-0.65207523,-3.3729494,92.0
971,2.958829,-2.7158012,0.7866516,-2.1728761,-0.50445557,-3.3198488,92.0
972,2.8681736,-2.5865326,0.86779785,-2.1728761,-0.50445557,-3.3198488,92.0
973,2.8681736,-2.5865326,0.86779785,-2.4012086,-0.31223145,-3.0957642,92.0
974,2.6454544,-2.3185549,0.4499359,-2.4012086,-0.31223145,-3.0957642,92.0
975,2.6454544,-2.3185549,0.4499359,-2.52334,-0.09770508,-2.811145,92.0
976,2.6454544,-2.3185549,0.4499359,-2.52334,-0.09770508,-2.811145,93.0
977,2.4497013,-2.158042,-0.27061462,-2.52334,-0.09770508,-2.811145,93.0
978,2.4497013,-2.158042,-0.27061462,-2.4776733,0.09239502,-2.4819214,93.0
979,2.3089066,-2.1878471,-0.98483276,-2.4776733,0.09239502,-2.4819214,93.0
980,2.3089066,-2.1878471,-0.98483276,-2.3088136,0.24213867,-2.0932252,93.0
981,2.0813046,-2.3269863,-1.4835358,-2.3088136,0.24213867,-2.0932252,93.0
982,2.0813046,-2.3269863,-1.4835358,-1.9806519,0.3334717,-1.6333741,93.0
983,1.6359415,-2.340178,-1.7558746,-1.9806519,0.3334717,-1.6333741,93.0
984,1.6359415,-2.340178,-1.7558746,-1.5728394,0.32497558,-1.083252,93.0
985,1.3253183,-2.0339708,-1.8989105,-1.5728394,0.32497558,-1.083252,93.0
986,1.3253183,-2.0339708,-1.8989105,-1.1692749,0.21558838,-0.45347902,93.0
987,1.3989029,-1.4935589,-1.7043762,-1.1692749,0.21558838,-0.45347902,93.0
988,1.3989029,-1.4935589,-1.7043762,-0.6435791,0.16885987,0.21134034,93.0
989,1.1099424,-0.87757397,-1.1256104,-0.6435791,0.16885987,0.21134034,93.0
990,1.1099424,-0.87757397,-1.1256104,-0.121069334,0.20178223,0.82836914,93.0
991,0.38662338,-0.3257289,-0.7140808,-0.121069334,0.20178223,0.82836914,93.0
992,0.38662338,-0.3257289,-0.7140808,0.3971924,0.24213867,1.3816773,93.0
993,0.26445007,0.049682617,-0.7560425,0.3971924,0.24213867,1.3816773,93.0
994,0.26445007,0.049682617,-0.7560425,0.9154541,0.21558838,1.9339234,93.0
995,0.8270874,0.3453126,-0.94311523,0.9154541,0.21558838,1.9339234,93.0
996,0.8270874,0.3453126,-0.94311523,1.2468017,0.19116211,2.4989135,93.0
997,1.3443604,0.66458035,-0.92274475,1.2468017,0.19116211,2.4989135,93.0
998,1.3443604,0.66458035,-0.92274475,1.3986695,0.16673584,3.0203614,93.0
999,1.2975101,0.96793175,-0.6011658,1.3986695,0.16673584,3.0203614,93.0
1000,1.2975101,0.96793175,-0.6011658,1.44115,0.15823975,3.4504762,93.0
1001,0.48296642,1.2151661,-0.11735535,1.44115,0.15823975,3.4504762,93.0
1002,0.48296642,1.2151661,-0.11735535,1.4719483,0.16354981,3.7669556,93.0
1003,-0.96898556,1.3709126,0.3097992,1.4719483,0.16354981,3.7669556,93.0
1004,-0.96898556,1.3709126,0.3097992,1.5123047,0.18797608,3.9559937,93.0
1005,-2.584344,1.4356217,0.5175171,1.5123047,0.18797608,3.9559937,93.0
1006,-2.584344,1.4356217,0.5175171,1.6004517,0.21346436,4.037769,93.0
1007,-3.7910833,1.489708,0.50146484,1.6004517,0.21346436,4.037769,93.0
1008,-3.7910833,1.489708,0.50146484,1.6896607,0.2548828,4.0452027,93.0
1009,-4.3499928,1.5977354,0.34780884,1.6896607,0.2548828,4.0452027,93.0
1010,-4.3499928,1.5977354,0.34780884,1.7947998,0.30373535,3.9889162,93.0
1011,-4.41891,1.7592068,0.17004395,1.7947998,0.30373535,3.9889162,93.0
1012,-4.41891,1.7592068,0.17004395,1.9944581,0.33028564,3.8742187,93.0
1013,-4.198263,2.014226,0.03440857,1.9944581,0.33028564,3.8742187,93.0
1014,-4.198263,2.014226,0.03440857,2.1229615,0.3717041,3.7287233,93.0
1015,-3.660039,2.3193645,0.024291992,2.1229615,0.3717041,3.7287233,93.0
1016,-3.660039,2.3193645,0.024291992,2.156946,0.4343628,3.5662353,93.0
1017,-2.8476114,2.5266829,0.23164368,2.156946,0.4343628,3.5662353,93.0
1018,-2.8476114,2.5266829,0.23164368,2.253589,0.50233155,3.3156006,93.0
1019,-1.9969854,2.6093836,0.575943,2.253589,0.50233155,3.3156006,93.0
1020,-1.9969854,2.6093836,0.575943,2.4107666,0.5777344,3.0108032,93.0
1021,-1.3581352,2.7367868,0.87638855,2.4107666,0.5777344,3.0108032,93.0
1022,-1.3581352,2.7367868,0.87638855,2.4659913,0.6775635,2.6921997,93.0
1023,-1.1292696,2.9989262,0.9300537,2.4659913,0.6775635,2.6921997,93.0
1024,-1.1292696,2.9989262,0.9300537,2.3353639,0.7869507,2.258899,93.0
1025,-1.1772194,3.2954054,0.6176605,2.3353639,0.7869507,2.258899,93.0
1026,-1.1772194,3.2954054,0.6176605,1.8903809,0.8028809,1.8043579,93.0
1027,-1.1063018,3.4013386,0.050079346,1.8903809,0.8028809,1.8043579,93.0
1028,-1.1063018,3.4013386,0.050079346,1.1406006,0.75721437,1.355127,93.0
1029,-0.7365551,3.139821,-0.39743042,1.1406006,0.75721437,1.355127,93.0
1030,-0.7365551,3.139821,-0.39743042,0.25700685,0.69986576,0.93563235,93.0
1031,-0.39581156,2.5585737,-0.43797302,0.25700685,0.69986576,0.93563235,93.0
1032,-0.39581156,2.5585737,-0.43797302,-0.47365722,0.5979126,0.5787964,93.0
1033,-0.49360228,1.9337978,-0.21110535,-0.47365722,0.5979126,0.5787964,93.0
1034,-0.49360228,1.9337978,-0.21110535,-0.9197022,0.44073486,0.23151855,93.0
1035,-0.6132655,1.384697,-0.047912598,-0.9197022,0.44073486,0.23151855,93.0
1036,-0.6132655,1.384697,-0.047912598,-1.1066163,0.25700685,-0.18903808,93.0
1037,-0.229321,0.8756161,-0.11868286,-1.1066163,0.25700685,-0.18903808,93.0
1038,-0.229321,0.8756161,-0.11868286,-1.2563599,0.09133301,-0.5968506,93.0
1039,0.24776888,0.3446102,-0.35073853,-1.2563599,0.09133301,-0.5968506,93.0
1040,0.24776888,0.3446102,-0.35073853,-1.4772583,-0.10407715,-0.9611206,93.0
1041,0.30193806,-0.28574944,-0.47514343,-1.4772583,-0.10407715,-0.9611206,93.0
1042,0.30193806,-0.28574944,-0.47514343,-1.5877075,-0.3090454,-1.2521118,93.0
1043,0.28359127,-0.9790878,-0.24337769,-1.5877075,-0.3090454,-1.2521118,93.0
1044,0.28359127,-0.9790878,-0.24337769,-1.3891114,-0.5246338,-1.5303589,93.0
1045,0.6240654,-1.4612484,0.26776123,-1.3891114,-0.5246338,-1.5303589,93.0
1046,0.6240654,-1.4612484,0.26776123,-0.9324463,-0.7072998,-1.718335,93.0
1047,0.94933796,-1.5705986,0.7834778,-0.9324463,-0.7072998,-1.718335,93.0
1048,0.94933796,-1.5705986,0.7834778,-0.44179687,-0.8485474,-1.8563966,93.0
1049,0.8821387,-1.4436741,0.9768982,-0.44179687,-0.8485474,-1.8563966,93.0
1050,0.8821387,-1.4436741,0.9768982,-0.1985962,-0.9632446,-2.0220704,93.0
1051,0.47874546,-1.3071728,0.73335266,-0.1985962,-0.9632446,-2.0220704,93.0
1052,0.47874546,-1.3071728,0.73335266,-0.22514649,-1.0981201,-2.2100465,93.0
1053,-0.029100895,-1.3075914,0.29644775,-0.22514649,-1.0981201,-2.2100465,93.0
1054,-0.029100895,-1.3075914,0.29644775,-0.32072756,-1.265918,-2.4097047,93.0
1055,-0.42055845,-1.4446812,0.093170166,-0.32072756,-1.265918,-2.4097047,93.0
1056,-0.42055845,-1.4446812,0.093170166,-0.3079834,-1.3795532,-2.5902467,93.0
1057,-0.60519695,-1.5858717,0.4133911,-0.3079834,-1.3795532,-2.5902467,93.0
1058,-0.60519695,-1.5858717,0.4133911,-0.14655761,-1.357251,-2.716626,93.0
1059,-0.5946555,-1.6044159,0.9498749,-0.14655761,-1.357251,-2.716626,93.0
1060,-0.5946555,-1.6044159,0.9498749,-0.04248047,-1.2223755,-2.8706176,93.0
1061,-0.32128096,-1.4980221,1.085907,-0.04248047,-1.2223755,-2.8706176,93.0
1062,-0.32128096,-1.4980221,1.085907,-0.19328614,-1.1257324,-3.071338,93.0
1063,0.25722075,-1.3832932,0.6934662,-0.19328614,-1.1257324,-3.071338,93.0
1064,0.25722075,-1.3832932,0.6934662,-0.67331547,-1.1066163,-3.3039186,93.0
1065,1.0759673,-1.355792,0.22987366,-0.67331547,-1.1066163,-3.3039186,93.0
1066,1.0759673,-1.355792,0.22987366,-1.2754761,-1.1108643,-3.5120728,93.0
1067,2.0462475,-1.5087547,0.16661072,-1.2754761,-1.1108643,-3.5120728,93.0
1068,2.0462475,-1.5087547,0.16661072,-1.7236451,-1.1013062,-3.696863,93.0
1069,3.0735703,-1.8865204,0.5801697,-1.7236451,-1.1013062,-3.696863,93.0
1070,3.0735703,-1.8865204,0.5801697,-1.8043579,-1.0184692,-3.8455446,93.0
1071,3.962335,-2.3925295,1.1893921,-1.8043579,-1.0184692,-3.8455446,93.0
1072,3.962335,-2.3925295,1.1893921,-1.5271729,-0.8400513,-3.899707,93.0
1073,4.3285227,-2.735508,1.5856476,-1.5271729,-0.8400513,-3.899707,93.0
1074,4.3285227,-2.735508,1.5856476,-0.9770508,-0.6711914,-3.812622,93.0
1075,3.9135265,-2.568863,1.4871826,-0.9770508,-0.6711914,-3.812622,93.0
1076,3.9135265,-2.568863,1.4871826,-0.54906005,-0.5511841,-3.5598633,93.0
1077,2.9517813,-1.893384,0.9529724,-0.54906005,-0.5511841,-3.5598633,93.0
1078,2.9517813,-1.893384,0.9529724,-0.35152587,-0.45878908,-3.2125854,93.0
1079,2.120287,-1.0799294,0.36312866,-0.35152587,-0.45878908,-3.2125854,93.0
1080,2.120287,-1.0799294,0.36312866,-0.38869628,-0.36320803,-2.803711,93.0
1081,1.79673,-0.44064045,-0.05079651,-0.38869628,-0.36320803,-2.803711,93.0
1082,1.79673,-0.44064045,-0.05079651,-0.75615233,-0.20709229,-2.2886353,93.0
1083,1.79673,-0.44064045,-0.05079651,-0.75615233,-0.20709229,-2.2886353,93.0
1084,1.6898499,-0.16499996,-0.4426117,-0.75615233,-0.20709229,-2.2886353,93.0
1085,1.6898499,-0.16499996,-0.4426117,-1.3253907,-0.035046387,-1.7119629,93.0
1086,1.5304813,-0.30201912,-1.009201,-1.3253907,-0.035046387,-1.7119629,93.0
1087,1.5304813,-0.30201912,-1.009201,-1.7268311,0.05628662,-1.0471436,93.0
1088,1.6239338,-0.6601572,-1.5197296,-1.7268311,0.05628662,-1.0471436,93.0
1089,1.6239338,-0.6601572,-1.5197296,-1.6535523,0.05522461,-0.30267334,93.0
1090,1.6917496,-0.8448734,-1.4792633,-1.6535523,0.05522461,-0.30267334,93.0
1091,1.6917496,-0.8448734,-1.4792633,-1.3349488,0.13062744,0.42799073,93.0
1092,0.7913265,-0.7485552,-1.0836182,-1.3349488,0.13062744,0.42799073,93.0
1093,0.7913265,-0.7485552,-1.0836182,-0.9759888,0.25913087,1.0375855,93.0
1094,-0.64655304,-0.68370724,-0.9310303,-0.9759888,0.25913087,1.0375855,93.0
1095,-0.64655304,-0.68370724,-0.9310303,-0.47896728,0.34727785,1.5834595,93.0
1096,-1.1385431,-0.7656913,-1.0790405,-0.47896728,0.34727785,1.5834595,93.0
1097,-1.1385431,-0.7656913,-1.0790405,0.16036378,0.3717041,2.1484497,93.0
1098,-0.29098606,-0.7146158,-1.2484741,0.16036378,0.3717041,2.1484497,93.0
1099,-0.29098606,-0.7146158,-1.2484741,0.7986328,0.34090576,2.714502,93.0
1100,0.91840744,-0.36688328,-1.1955414,0.7986328,0.34090576,2.714502,93.0
1101,0.91840744,-0.36688328,-1.1955414,1.4209718,0.3355957,3.2497559,93.0
1102,1.4899874,0.22538996,-0.8592224,1.4209718,0.3355957,3.2497559,93.0
1103,1.4899874,0.22538996,-0.8592224,1.9126831,0.33984375,3.6745605,93.0
1104,1.1257172,0.9173355,-0.384552,1.9126831,0.33984375,3.6745605,93.0
1105,1.1257172,0.9173355,-0.384552,2.1197755,0.40462646,3.9570558,93.0
1106,-0.037121773,1.4763002,0.080459595,2.1197755,0.40462646,3.9570558,93.0
1107,-0.037121773,1.4763002,0.080459595,2.0496826,0.4991455,4.1014895,93.0
1108,-1.5416365,1.7523413,0.43736267,2.0496826,0.4991455,4.1014895,93.0
1109,-1.5416365,1.7523413,0.43736267,1.808606,0.60216063,4.1418457,93.0
1110,-2.8531094,1.7507744,0.579895,1.808606,0.60216063,4.1418457,93.0
1111,-2.8531094,1.7507744,0.579895,1.536731,0.6754395,4.1354737,93.0
1112,-3.7691946,1.6517544,0.448349,1.536731,0.6754395,4.1354737,93.0
1113,-3.7691946,1.6517544,0.448349,1.3211426,0.71154785,4.082373,93.0
1114,-4.299865,1.644475,0.08905029,1.3211426,0.71154785,4.082373,93.0
1115,-4.299865,1.644475,0.08905029,1.1544068,0.6637573,3.993164,93.0
1116,-4.4209337,1.7306557,-0.3152771,1.1544068,0.6637573,3.993164,93.0
1117,-4.4209337,1.7306557,-0.3152771,1.088562,0.5713623,3.8476684,93.0
1118,-4.1068153,1.7920074,-0.5505371,1.088562,0.5713623,3.8476684,93.0
1119,-4.1068153,1.7920074,-0.5505371,1.2776002,0.46728516,3.6023438,93.0
1120,-3.4529815,1.8184443,-0.52085876,1.2776002,0.46728516,3.6023438,93.0
1121,-3.4529815,1.8184443,-0.52085876,1.5972656,0.40462646,3.2890503,93.0
1122,-2.6784983,1.8800964,-0.26956177,1.5972656,0.40462646,3.2890503,93.0
1123,-2.6784983,1.8800964,-0.26956177,1.8139161,0.39294434,2.9683228,93.0
1124,-1.9344854,1.9298592,0.048431396,1.8139161,0.39294434,2.9683228,93.0
1125,-1.9344854,1.9298592,0.048431396,1.9668458,0.3982544,2.633789,93.0
1126,-1.2583914,1.979044,0.23095703,1.9668458,0.3982544,2.633789,93.0
1127,-1.2583914,1.979044,0.23095703,2.076233,0.41737062,2.3141236,93.0
1128,-0.62796545,2.1673775,0.19447327,2.076233,0.41737062,2.3141236,93.0
1129,-0.62796545,2.1673775,0.19447327,2.0942872,0.4322388,1.9349854,93.0
1130,-0.058964252,2.548111,0.037612915,2.0942872,0.4322388,1.9349854,93.0
1131,-0.058964252,2.548111,0.037612915,1.9509156,0.4343628,1.4910644,93.0
1132,0.3224206,2.9675903,-0.04273987,1.9509156,0.4343628,1.4910644,93.0
1133,0.3224206,2.9675903,-0.04273987,1.531421,0.42905274,1.0917481,93.0
1134,0.42385483,3.1778688,-3.8146973E-4,1.531421,0.42905274,1.0917481,93.0
1135,0.42385483,3.1778688,-3.8146973E-4,0.815625,0.42268068,0.75721437,93.0
1136,0.24324656,3.0789165,0.026397705,0.815625,0.42268068,0.75721437,93.0
1137,0.24324656,3.0789165,0.026397705,-0.020178223,0.36639404,0.4970215,93.0
1138,0.18269539,2.7012672,-0.096450806,-0.020178223,0.36639404,0.4970215,93.0
1139,0.18269539,2.7012672,-0.096450806,-0.8623535,0.23151855,0.08602295,93.0
1140,0.3848281,2.0939484,-0.37719727,-0.8623535,0.23151855,0.08602295,93.0
1141,0.3848281,2.0939484,-0.37719727,-1.718335,0.043542482,-0.33984375,93.0
1142,0.13040876,1.1463261,-0.48947144,-1.718335,0.043542482,-0.33984375,93.0
1143,0.13040876,1.1463261,-0.48947144,-2.2323487,-0.17735596,-0.64782715,93.0
1144,-0.43743324,-0.18359756,-0.12879944,-2.2323487,-0.17735596,-0.64782715,93.0
1145,-0.43743324,-0.18359756,-0.12879944,-2.1314576,-0.40993652,-0.93563235,93.0
1146,-0.3723588,-1.3843288,0.51950073,-2.1314576,-0.40993652,-0.93563235,93.0
1147,-0.3723588,-1.3843288,0.51950073,-1.536731,-0.57561034,-1.1682129,93.0
1148,0.15594578,-1.8531303,1.0135956,-1.536731,-0.57561034,-1.1682129,93.0
1149,0.15594578,-1.8531303,1.0135956,-0.70305175,-0.6988037,-1.350879,93.0
1150,0.38995457,-1.6769619,1.1114807,-0.70305175,-0.6988037,-1.350879,93.0
1151,0.38995457,-1.6769619,1.1114807,-0.0541626,-0.79226077,-1.535669,93.0
1152,0.32276726,-1.4192429,0.9550476,-0.0541626,-0.79226077,-1.535669,93.0
1153,0.32276726,-1.4192429,0.9550476,0.14230958,-0.83686525,-1.627002,93.0
1154,-0.57020426,-1.0329895,0.45439148,0.14230958,-0.83686525,-1.627002,93.0
1155,-0.57020426,-1.0329895,0.45439148,0.32178956,-1.0110352,-1.9201173,93.0
1156,-0.6541004,-0.9300785,0.29605103,0.32178956,-1.0110352,-1.9201173,93.0
1157,-0.6541004,-0.9300785,0.29605103,0.2527588,-1.0715698,-2.0348146,93.0
1158,-1.2230363,-0.8709917,0.07122803,0.2527588,-1.0715698,-2.0348146,93.0
1159,-1.2230363,-0.8709917,0.07122803,-0.14868164,-1.1883911,-2.3767822,93.0
1160,-0.96166897,-0.9911175,0.23109436,-0.14868164,-1.1883911,-2.3767822,93.0
1161,-0.96166897,-0.9911175,0.23109436,-0.26444092,-1.1926392,-2.4787354,93.0
1162,-0.9664912,-1.3206902,0.8329773,-0.26444092,-1.1926392,-2.4787354,93.0
1163,-0.9664912,-1.3206902,0.8329773,-0.46409914,-1.1363525,-2.7845948,93.0
1164,-0.51668644,-1.4255829,0.8935852,-0.46409914,-1.1363525,-2.7845948,93.0
1165,-0.51668644,-1.4255829,0.8935852,-0.5320679,-1.1002442,-2.8865478,93.0
1166,0.26982975,-1.4835691,0.8615265,-0.5320679,-1.1002442,-2.8865478,93.0
1167,0.26982975,-1.4835691,0.8615265,-0.98129886,-1.0078491,-3.1626709,93.0
1168,0.82044125,-1.5240135,0.6139984,-0.98129886,-1.0078491,-3.1626709,93.0
1169,0.82044125,-1.5240135,0.6139984,-1.2043213,-0.98873293,-3.256128,93.0
1170,2.0714164,-1.6171598,0.38342285,-1.2043213,-0.98873293,-3.256128,93.0
1171,2.0714164,-1.6171598,0.38342285,-1.6960328,-0.9696167,-3.519507,93.0
1172,2.4401164,-1.7773457,0.3612976,-1.6960328,-0.9696167,-3.519507,93.0
1173,2.4401164,-1.7773457,0.3612976,-1.7618774,-0.95581055,-3.5874755,93.0
1174,3.363873,-2.3485365,1.1372223,-1.7618774,-0.95581055,-3.5874755,93.0
1175,3.363873,-2.3485365,1.1372223,-1.6588624,-0.8028809,-3.7287233,93.0
1176,3.4078102,-2.4364824,1.1636963,-1.6588624,-0.8028809,-3.7287233,93.0
1177,3.4078102,-2.4364824,1.1636963,-1.4825684,-0.7317261,-3.7350953,93.0
1178,3.4070463,-2.5406036,1.4932251,-1.4825684,-0.7317261,-3.7350953,93.0
1179,3.4070463,-2.5406036,1.4932251,-0.99298096,-0.5628662,-3.4685304,93.0
1180,3.0617695,-2.123889,1.0840302,-0.99298096,-0.5628662,-3.4685304,93.0
1181,3.0617695,-2.123889,1.0840302,-0.998291,-0.5033936,-3.355957,93.0
1182,2.6738415,-1.3290672,0.2574768,-0.998291,-0.5033936,-3.355957,93.0
1183,2.6738415,-1.3290672,0.2574768,-1.4135376,-0.3069214,-2.88761,93.0
1184,2.523119,-1.0866547,-0.17591858,-1.4135376,-0.3069214,-2.88761,93.0
1185,2.523119,-1.0866547,-0.17591858,-1.5760254,-0.24213867,-2.6773317,93.0
1186,2.325014,-0.85406494,-0.75361633,-1.5760254,-0.24213867,-2.6773317,93.0
1187,2.325014,-0.85406494,-0.75361633,-1.9073731,-0.12956543,-2.1845582,93.0
1188,1.763197,-0.80411434,-1.3077087,-1.9073731,-0.12956543,-2.1845582,93.0
1189,1.763197,-0.80411434,-1.3077087,-2.3045654,-0.07115479,-1.6046997,93.0
1190,1.3446026,-0.9168148,-1.7265778,-2.3045654,-0.07115479,-1.6046997,93.0
1191,1.3446026,-0.9168148,-1.7265778,-2.3958986,-0.07540283,-0.9324463,93.0
1192,1.3840809,-1.1421309,-1.5546265,-2.3958986,-0.07540283,-0.9324463,93.0
1193,1.3840809,-1.1421309,-1.5546265,-2.0369384,0.016992187,-0.21027832,93.0
1194,0.9882698,-1.4128742,-0.7459564,-2.0369384,0.016992187,-0.21027832,93.0
1195,0.9882698,-1.4128742,-0.7459564,-1.2149414,0.23258057,0.6966797,93.0
1196,0.45124817,-1.3369284,-0.7028961,-1.2149414,0.23258057,0.6966797,93.0
1197,0.45124817,-1.3369284,-0.7028961,-0.91014403,0.30267334,0.9791748,93.0
1198,0.45124817,-1.3369284,-0.7028961,-0.91014403,0.30267334,0.9791748,94.0
1199,-0.017163277,-1.3837757,-1.0439758,-0.91014403,0.30267334,0.9791748,94.0
1200,-0.017163277,-1.3837757,-1.0439758,-0.14230958,0.38551027,1.5579712,94.0
1201,0.042995453,-1.2108536,-1.5140991,-0.14230958,0.38551027,1.5579712,94.0
1202,0.042995453,-1.2108536,-1.5140991,0.7083618,0.4056885,2.1548219,94.0
1203,0.38907146,-0.6896424,-1.7112732,0.7083618,0.4056885,2.1548219,94.0
1204,0.38907146,-0.6896424,-1.7112732,1.5144287,0.38975832,2.715564,94.0
1205,0.47108364,0.17611837,-1.4096832,1.5144287,0.38975832,2.715564,94.0
1206,0.47108364,0.17611837,-1.4096832,2.1229615,0.36851808,3.166919,94.0
1207,0.016613007,1.1195078,-0.78219604,2.1229615,0.36851808,3.166919,94.0
1208,0.016613007,1.1195078,-0.78219604,2.3619142,0.3971924,3.529065,94.0
1209,-0.99479103,1.8416271,-0.0206604,2.3619142,0.3971924,3.529065,94.0
1210,-0.99479103,1.8416271,-0.0206604,2.2843874,0.48640138,3.7892578,94.0
1211,-2.1878853,2.194188,0.6384125,2.2843874,0.48640138,3.7892578,94.0
1212,-2.1878853,2.194188,0.6384125,1.8776368,0.5851685,3.9687378,94.0
1213,-3.1263094,2.1799717,0.9125519,1.8776368,0.5851685,3.9687378,94.0
1214,-3.1263094,2.1799717,0.9125519,1.2478638,0.6786255,4.100427,94.0
1215,-3.6151218,1.8909254,0.76457214,1.2478638,0.6786255,4.100427,94.0
1216,-3.6151218,1.8909254,0.76457214,0.7476563,0.71367186,4.1652102,94.0
1217,-3.7293415,1.5249348,0.29751587,0.7476563,0.71367186,4.1652102,94.0
1218,-3.7293415,1.5249348,0.29751587,0.5363159,0.65844727,4.156714,94.0
1219,-3.5543222,1.3291283,-0.20904541,0.5363159,0.65844727,4.156714,94.0
1220,-3.5543222,1.3291283,-0.20904541,0.5299439,0.5851685,4.0526366,94.0
1221,-3.1063118,1.2975798,-0.52056885,0.5299439,0.5851685,4.0526366,94.0
1222,-3.1063118,1.2975798,-0.52056885,0.7051758,0.5543701,3.8189943,94.0
1223,-2.4748688,1.3474388,-0.56365967,0.7051758,0.5543701,3.8189943,94.0
1224,-2.4748688,1.3474388,-0.56365967,0.97386473,0.5628662,3.539685,94.0
1225,-1.8599854,1.475131,-0.42878723,0.97386473,0.5628662,3.539685,94.0
1226,-1.8599854,1.475131,-0.42878723,1.1299804,0.5915405,3.2147095,94.0
1227,-1.546216,1.6872339,-0.30471802,1.1299804,0.5915405,3.2147095,94.0
1228,-1.546216,1.6872339,-0.30471802,1.0938721,0.61278075,2.8716798,94.0
1229,-1.5768533,1.9431343,-0.24382019,1.0938721,0.61278075,2.8716798,94.0
1230,-1.5768533,1.9431343,-0.24382019,0.9759888,0.59047854,2.5148437,94.0
1231,-1.6730428,2.2519312,-0.16616821,0.9759888,0.59047854,2.5148437,94.0
1232,-1.6730428,2.2519312,-0.16616821,0.9228882,0.5299439,2.0592408,94.0
1233,-1.4494209,2.6109085,-0.069229126,0.9228882,0.5299439,2.0592408,94.0
1234,-1.4494209,2.6109085,-0.069229126,0.811377,0.43967286,1.536731,94.0
1235,-0.9248562,2.843792,-0.010940552,0.811377,0.43967286,1.536731,94.0
1236,-0.9248562,2.843792,-0.010940552,0.57454836,0.32603762,0.9791748,94.0
1237,-0.46572733,2.7459078,0.017593384,0.57454836,0.32603762,0.9791748,94.0
1238,-0.46572733,2.7459078,0.017593384,0.23682861,0.2177124,0.47896728,94.0
1239,-0.2500353,2.319212,0.044128418,0.23682861,0.2177124,0.47896728,94.0
1240,-0.2500353,2.319212,0.044128418,-0.14337158,0.09133301,0.038232423,94.0
1241,0.03695917,1.6798439,0.029525757,-0.14337158,0.09133301,0.038232423,94.0
1242,0.03695917,1.6798439,0.029525757,-0.50870365,-0.050976563,-0.46834716,94.0
1243,0.75410366,0.87879944,-0.07817078,-0.50870365,-0.050976563,-0.46834716,94.0
1244,0.75410366,0.87879944,-0.07817078,-0.811377,-0.21452637,-1.0195312,94.0
1245,1.1721306,0.08585167,-0.14149475,-0.811377,-0.21452637,-1.0195312,94.0
1246,1.1721306,0.08585167,-0.14149475,-1.0195312,-0.38869628,-1.4071655,94.0
1247,0.5964937,-0.5642891,0.06918335,-1.0195312,-0.38869628,-1.4071655,94.0
1248,0.5964937,-0.5642891,0.06918335,-0.97492677,-0.540564,-1.6864747,94.0
1249,0.019077301,-1.0439243,0.5228729,-0.97492677,-0.540564,-1.6864747,94.0
1250,0.019077301,-1.0439243,0.5228729,-0.66481936,-0.6223389,-1.9201173,94.0
1251,0.23052073,-1.2545366,0.87449646,-0.66481936,-0.6223389,-1.9201173,94.0
1252,0.23052073,-1.2545366,0.87449646,-0.21134034,-0.6796875,-2.005078,94.0
1253,0.6814871,-1.2013588,0.8583374,-0.21134034,-0.6796875,-2.005078,94.0
1254,0.6814871,-1.2013588,0.8583374,0.08920898,-0.7540283,-2.1006591,94.0
1255,0.86791945,-1.0545197,0.557251,0.08920898,-0.7540283,-2.1006591,94.0
1256,0.86791945,-1.0545197,0.557251,0.021240234,-0.82836914,-2.2334106,94.0
1257,0.7172966,-1.0071173,0.22853088,0.021240234,-0.82836914,-2.2334106,94.0
1258,0.7172966,-1.0071173,0.22853088,-0.27612305,-0.8857178,-2.3682861,94.0
1259,0.3019991,-1.1339159,0.063064575,-0.27612305,-0.8857178,-2.3682861,94.0
1260,0.3019991,-1.1339159,0.063064575,-0.6074707,-0.9197022,-2.5074098,94.0
1261,-0.24479008,-1.3805208,0.177948,-0.6074707,-0.9197022,-2.5074098,94.0
1262,-0.24479008,-1.3805208,0.177948,-0.8772217,-0.8889038,-2.623169,94.0
1263,-0.72604465,-1.6264992,0.46835327,-0.8772217,-0.8889038,-2.623169,94.0
1264,-0.72604465,-1.6264992,0.46835327,-1.1331666,-0.81031495,-2.7229981,94.0
1265,-0.87136316,-1.8068266,0.59243774,-1.1331666,-0.81031495,-2.7229981,94.0
1266,-0.87136316,-1.8068266,0.59243774,-1.3530029,-0.71154785,-2.8398194,94.0
1267,-0.5330162,-1.9351225,0.40797424,-1.3530029,-0.71154785,-2.8398194,94.0
1268,-0.5330162,-1.9351225,0.40797424,-1.5027466,-0.635083,-2.9640749,94.0
1269,0.16317463,-2.0137596,0.12361145,-1.5027466,-0.635083,-2.9640749,94.0
1270,0.16317463,-2.0137596,0.12361145,-1.6408081,-0.5692383,-3.059656,94.0
1271,0.98410416,-2.0727997,-0.05291748,-1.6408081,-0.5692383,-3.059656,94.0
1272,0.98410416,-2.0727997,-0.05291748,-1.7151489,-0.5076416,-3.1371827,94.0
1273,1.8302398,-2.1540403,-0.073654175,-1.7151489,-0.5076416,-3.1371827,94.0
1274,1.8302398,-2.1540403,-0.073654175,-1.6822265,-0.44923097,-3.1892211,94.0
1275,2.6103468,-2.269888,0.02003479,-1.6822265,-0.44923097,-3.1892211,94.0
1276,2.6103468,-2.269888,0.02003479,-1.5739014,-0.35895997,-3.2253296,94.0
1277,3.0865078,-2.3444138,0.17536926,-1.5739014,-0.35895997,-3.2253296,94.0
1278,3.0865078,-2.3444138,0.17536926,-1.2797241,-0.27506104,-3.1371827,94.0
1279,3.071062,-2.2365417,0.31858826,-1.2797241,-0.27506104,-3.1371827,94.0
1280,3.071062,-2.2365417,0.31858826,-0.89102787,-0.2177124,-2.9651368,94.0
1281,2.6301165,-1.8637819,0.30412292,-0.89102787,-0.2177124,-2.9651368,94.0
1282,2.6301165,-1.8637819,0.30412292,-0.6945557,-0.1709839,-2.710254,94.0
1283,2.0642004,-1.3458719,0.08970642,-0.6945557,-0.1709839,-2.710254,94.0
1284,2.0642004,-1.3458719,0.08970642,-0.7540283,-0.1263794,-2.4086425,94.0
1285,2.0642004,-1.3458719,0.08970642,-0.8644776,-0.07646485,-2.0741088,94.0
1286,1.7179499,-0.9259167,-0.18344116,-0.8644776,-0.07646485,-2.0741088,94.0
1287,1.8476257,-0.8351183,-0.54603577,-0.8644776,-0.07646485,-2.0741088,94.0
1288,1.8476257,-0.8351183,-0.54603577,-0.89208984,-0.028674318,-1.7087768,94.0
1289,1.8476257,-0.8351183,-0.54603577,-0.8581055,-0.010620117,-1.3222046,94.0
1290,1.4275389,-0.7749548,-0.7488251,-0.8581055,-0.010620117,-1.3222046,94.0
1291,1.4275389,-0.7749548,-0.7488251,-0.81987303,-0.015930176,-0.85598147,94.0
1292,1.2361841,-0.718853,-0.80752563,-0.81987303,-0.015930176,-0.85598147,94.0
1293,1.2361841,-0.718853,-0.80752563,-0.5915405,0.0010620117,-0.30161133,94.0
1294,1.3428411,-0.62167645,-0.5361481,-0.5915405,0.0010620117,-0.30161133,94.0
1295,1.3428411,-0.62167645,-0.5361481,-0.35152587,0.12319336,0.3090454,94.0
1296,1.3428411,-0.62167645,-0.5361481,-0.35152587,0.12319336,0.3090454,94.0
1297,1.2666683,-0.50736284,-0.22808838,-0.35152587,0.12319336,0.3090454,94.0
1298,1.2666683,-0.50736284,-0.22808838,0.043542482,0.270813,0.8772217,94.0
1299,1.008892,-0.43655396,-0.28431702,0.043542482,0.270813,0.8772217,94.0
1300,1.008892,-0.43655396,-0.28431702,0.5692383,0.40250245,1.4230957,94.0
1301,0.8731899,-0.29071045,-0.6250458,0.5692383,0.40250245,1.4230957,94.0
1302,0.8731899,-0.29071045,-0.6250458,1.1416626,0.4885254,2.0125122,94.0
1303,0.9650316,0.052502632,-0.8609772,1.1416626,0.4885254,2.0125122,94.0
1304,0.9650316,0.052502632,-0.8609772,1.7034668,0.52675784,2.614673,94.0
1305,1.1359291,0.6318455,-0.7706146,1.7034668,0.52675784,2.614673,94.0
1306,1.1359291,0.6318455,-0.7706146,2.1027832,0.5363159,3.1828492,94.0
1307,1.0411291,1.3402662,-0.42366028,2.1027832,0.5363159,3.1828492,94.0
1308,1.0411291,1.3402662,-0.42366028,2.1951783,0.57561034,3.6756227,94.0
1309,0.2824402,1.9872522,0.055755615,2.1951783,0.57561034,3.6756227,94.0
1310,0.2824402,1.9872522,0.055755615,1.9360474,0.6595093,4.0409546,94.0
1311,-1.1200686,2.3191357,0.5567169,1.9360474,0.6595093,4.0409546,94.0
1312,-1.1200686,2.3191357,0.5567169,1.4677002,0.75615233,4.263977,94.0
1313,-2.5939064,2.1948347,0.8435669,1.4677002,0.75615233,4.263977,94.0
1314,-2.5939064,2.1948347,0.8435669,0.8878418,0.8219971,4.354248,94.0
1315,-3.6299353,1.7043171,0.7723236,0.8878418,0.8219971,4.354248,94.0
1316,-3.6299353,1.7043171,0.7723236,0.4619751,0.84748536,4.3574343,94.0
1317,-4.11596,1.1875992,0.45907593,0.4619751,0.84748536,4.3574343,94.0
1318,-4.11596,1.1875992,0.45907593,0.32497558,0.817749,4.3223877,94.0
1319,-4.0743723,0.97157574,0.068374634,0.32497558,0.817749,4.3223877,94.0
1320,-4.0743723,0.97157574,0.068374634,0.4078125,0.8050049,4.229993,94.0
1321,-3.520216,1.1015034,-0.2259674,0.4078125,0.8050049,4.229993,94.0
1322,-3.520216,1.1015034,-0.2259674,0.6435791,0.8400513,4.081311,94.0
1323,-2.6811385,1.4348154,-0.33345032,0.6435791,0.8400513,4.081311,94.0
1324,-2.6811385,1.4348154,-0.33345032,0.9876709,0.92713624,3.9145753,94.0
1325,-2.0610733,1.8678961,-0.3595276,0.9876709,0.92713624,3.9145753,94.0
1326,-2.0610733,1.8678961,-0.3595276,1.1990112,1.0471436,3.7446535,94.0
1327,-1.977045,2.3314753,-0.47042847,1.1990112,1.0471436,3.7446535,94.0
1328,-1.977045,2.3314753,-0.47042847,1.0535157,1.1384766,3.5407472,94.0
1329,-2.1541824,2.6527653,-0.69937134,1.0535157,1.1384766,3.5407472,94.0
1330,-2.1541824,2.6527653,-0.69937134,0.60959476,1.1352905,3.2019653,94.0
1331,-2.1571836,2.6720781,-0.8993683,0.60959476,1.1352905,3.2019653,94.0
1332,-2.1571836,2.6720781,-0.8993683,0.12850343,1.0216553,2.7304323,94.0
1333,-1.8750143,2.3101473,-0.8361969,0.12850343,1.0216553,2.7304323,94.0
1334,-1.8750143,2.3101473,-0.8361969,-0.13806152,0.85704345,2.1399536,94.0
1335,-1.5348992,1.7095318,-0.54008484,-0.13806152,0.85704345,2.1399536,94.0
1336,-1.5348992,1.7095318,-0.54008484,-0.18266602,0.68074954,1.5016845,94.0
1337,-1.5023212,1.1317244,-0.23464966,-0.18266602,0.68074954,1.5016845,94.0
1338,-1.5023212,1.1317244,-0.23464966,-0.18479005,0.5055176,0.9483765,94.0
1339,-1.8027236,0.6892662,0.021636963,-0.18479005,0.5055176,0.9483765,94.0
1340,-1.8027236,0.6892662,0.021636963,-0.1178833,0.33240968,0.4970215,94.0
1341,-1.8179603,0.42554665,0.233078,-0.1178833,0.33240968,0.4970215,94.0
1342,-1.8179603,0.42554665,0.233078,0.047790527,0.18266602,-0.0361084,94.0
1343,-1.2903423,0.43323517,0.2881775,0.047790527,0.18266602,-0.0361084,94.0
1344,-1.2903423,0.43323517,0.2881775,0.11257324,0.0010620117,-0.5076416,94.0
1345,-0.78044295,0.57128334,0.14471436,0.11257324,0.0010620117,-0.5076416,94.0
1346,-0.78044295,0.57128334,0.14471436,-0.04141846,-0.21983643,-0.94625247,94.0
1347,-0.52390265,0.504097,-0.0105896,-0.04141846,-0.21983643,-0.94625247,94.0
1348,-0.52390265,0.504097,-0.0105896,-0.30373535,-0.46409914,-1.3901733,94.0
1349,-0.18839717,0.13384342,0.060394287,-0.30373535,-0.46409914,-1.3901733,94.0
1350,-0.18839717,0.13384342,0.060394287,-0.4322388,-0.70092773,-1.812854,94.0
1351,0.33014178,-0.35593796,0.36392212,-0.4322388,-0.70092773,-1.812854,94.0
1352,0.33014178,-0.35593796,0.36392212,-0.33028564,-0.9398804,-2.1325195,94.0
1353,0.8365743,-0.7607155,0.7365875,-0.33028564,-0.9398804,-2.1325195,94.0
1354,0.8365743,-0.7607155,0.7365875,-0.14549561,-1.1289185,-2.4224489,94.0
1355,1.1090057,-0.97566223,0.9861603,-0.14549561,-1.1289185,-2.4224489,94.0
1356,1.1090057,-0.97566223,0.9861603,-0.023364259,-1.2499878,-2.6720216,94.0
1357,1.1260595,-1.0685673,0.98643494,-0.023364259,-1.2499878,-2.6720216,94.0
1358,1.1260595,-1.0685673,0.98643494,0.032922365,-1.3285767,-2.9449584,94.0
1359,1.0464044,-1.1542683,0.7791748,0.032922365,-1.3285767,-2.9449584,94.0
1360,1.0464044,-1.1542683,0.7791748,0.038232423,-1.364685,-3.1860352,94.0
1361,0.90671587,-1.2381,0.5564575,0.038232423,-1.364685,-3.1860352,94.0
1362,0.90671587,-1.2381,0.5564575,-0.033984374,-1.350879,-3.3251588,94.0
1363,0.72163725,-1.25663,0.47579956,-0.033984374,-1.350879,-3.3251588,94.0
1364,0.72163725,-1.25663,0.47579956,-0.15823975,-1.2892822,-3.3856933,94.0
1365,0.57914066,-1.2027531,0.540802,-0.15823975,-1.2892822,-3.3856933,94.0
1366,0.57914066,-1.2027531,0.540802,-0.34090576,-1.1692749,-3.4101198,94.0
1367,0.6179638,-1.1160717,0.52557373,-0.34090576,-1.1692749,-3.4101198,94.0
1368,0.6179638,-1.1160717,0.52557373,-0.68499756,-1.0598878,-3.448352,94.0
1369,1.0073838,-1.130187,0.32167053,-0.68499756,-1.0598878,-3.448352,94.0
1370,1.0073838,-1.130187,0.32167053,-1.1161743,-0.99510497,-3.4972045,94.0
1371,1.7466421,-1.3459711,0.12963867,-1.1161743,-0.99510497,-3.4972045,94.0
1372,1.7466421,-1.3459711,0.12963867,-1.5462891,-0.94412845,-3.544995,94.0
1373,2.6147332,-1.753828,0.16828918,-1.5462891,-0.94412845,-3.544995,94.0
1374,2.6147332,-1.753828,0.16828918,-1.81604,-0.8591675,-3.5481813,94.0
1375,3.3602924,-2.261364,0.4806366,-1.81604,-0.8591675,-3.5481813,94.0
1376,3.3602924,-2.261364,0.4806366,-1.7321411,-0.7126099,-3.521631,94.0
1377,3.66642,-2.6463594,0.7934418,-1.7321411,-0.7126099,-3.521631,94.0
1378,3.66642,-2.6463594,0.7934418,-1.4252198,-0.5628662,-3.4281738,94.0
1379,3.3571224,-2.646738,0.8013153,-1.4252198,-0.5628662,-3.4281738,94.0
1380,3.3571224,-2.646738,0.8013153,-1.0216553,-0.48321533,-3.2295778,94.0
1381,2.6330004,-2.2173662,0.57933044,-1.0216553,-0.48321533,-3.2295778,94.0
1382,2.6330004,-2.2173662,0.57933044,-0.7763306,-0.43117675,-2.9768188,94.0
1383,1.9935465,-1.5951328,0.3566742,-0.7763306,-0.43117675,-2.9768188,94.0
1384,1.9935465,-1.5951328,0.3566742,-0.84748536,-0.34090576,-2.7474244,94.0
1385,1.9935465,-1.5951328,0.3566742,-0.84748536,-0.34090576,-2.7474244,94.0
1386,1.8201542,-1.0864697,0.18496704,-0.84748536,-0.34090576,-2.7474244,94.0
1387,1.8201542,-1.0864697,0.18496704,-1.1299804,-0.22089843,-2.4776733,94.0
1388,2.0328197,-0.86783314,-0.09725952,-1.1299804,-0.22089843,-2.4776733,94.0
1389,2.0328197,-0.86783314,-0.09725952,-1.5208008,-0.06265869,-2.167566,94.0
1390,2.0956526,-0.92056084,-0.6049347,-1.5208008,-0.06265869,-2.167566,94.0
1391,2.0956526,-0.92056084,-0.6049347,-1.8574585,0.047790527,-1.7799317,94.0
1392,1.7188683,-1.0910263,-1.2375488,-1.8574585,0.047790527,-1.7799317,94.0
1393,1.7188683,-1.0910263,-1.2375488,-1.991272,0.07327881,-1.273352,94.0
1394,1.3905859,-1.2617254,-1.647232,-1.991272,0.07327881,-1.273352,94.0
1395,1.3905859,-1.2617254,-1.647232,-1.7289551,0.053100586,-0.6552612,94.0
1396,1.3837814,-1.3033257,-1.4520874,-1.7289551,0.053100586,-0.6552612,94.0
1397,1.3837814,-1.3033257,-1.4520874,-1.1437867,0.10513916,0.0053100586,94.0
1398,1.0285826,-1.1120086,-0.90774536,-1.1437867,0.10513916,0.0053100586,94.0
1399,1.0285826,-1.1120086,-0.90774536,-0.5384399,0.2081543,0.5979126,94.0
1400,0.19952583,-0.8491893,-0.62997437,-0.5384399,0.2081543,0.5979126,94.0
1401,0.19952583,-0.8491893,-0.62997437,0.081774905,0.29736328,1.1416626,94.0
1402,-0.33813286,-0.6215143,-0.7071228,0.081774905,0.29736328,1.1416626,94.0
1403,-0.33813286,-0.6215143,-0.7071228,0.725354,0.35683593,1.719397,94.0
1404,-0.26927376,-0.27866936,-0.84599304,0.725354,0.35683593,1.719397,94.0
1405,-0.26927376,-0.27866936,-0.84599304,1.2489258,0.42055663,2.3098755,94.0
1406,0.11089897,0.21349049,-0.8383179,1.2489258,0.42055663,2.3098755,94.0
1407,0.11089897,0.21349049,-0.8383179,1.7289551,0.4609131,2.8833618,94.0
1408,0.44099045,0.76554346,-0.6307373,1.7289551,0.4609131,2.8833618,94.0
1409,0.44099045,0.76554346,-0.6307373,2.165442,0.4715332,3.3994997,94.0
1410,0.42112732,1.3573809,-0.29278564,2.165442,0.4715332,3.3994997,94.0
1411,0.42112732,1.3573809,-0.29278564,2.3215578,0.50870365,3.8221803,94.0
1412,-0.21070576,1.9093542,0.116867065,2.3215578,0.50870365,3.8221803,94.0
1413,-0.21070576,1.9093542,0.116867065,2.170752,0.5894165,4.1237917,94.0
1414,-1.3196516,2.2249079,0.5304718,2.170752,0.5894165,4.1237917,94.0
1415,-1.3196516,2.2249079,0.5304718,1.7799317,0.6966797,4.3064575,94.0
1416,-2.4224567,2.195405,0.8058777,1.7799317,0.6966797,4.3064575,94.0
1417,-2.4224567,2.195405,0.8058777,1.2744141,0.80606693,4.3807983,94.0
1418,-3.1990738,1.8876352,0.805954,1.2744141,0.80606693,4.3807983,94.0
1419,-3.1990738,1.8876352,0.805954,0.8644776,0.8687256,4.3871703,94.0
1420,-3.6583195,1.56565,0.5152893,0.8644776,0.8687256,4.3871703,94.0
1421,-3.6583195,1.56565,0.5152893,0.66481936,0.88040775,4.308582,94.0
1422,-3.9144974,1.4293995,0.050308228,0.66481936,0.88040775,4.308582,94.0
1423,-3.9144974,1.4293995,0.050308228,0.56180423,0.8379273,4.13335,94.0
1424,-3.8366394,1.4638567,-0.35980225,0.56180423,0.8379273,4.13335,94.0
1425,-3.8366394,1.4638567,-0.35980225,0.59260255,0.78164065,3.8816528,94.0
1426,-3.3386474,1.5361118,-0.4884796,0.59260255,0.78164065,3.8816528,94.0
1427,-3.3386474,1.5361118,-0.4884796,0.81668705,0.76358646,3.5503051,94.0
1428,-2.6372633,1.6176958,-0.32341003,0.81668705,0.76358646,3.5503051,94.0
1429,-2.6372633,1.6176958,-0.32341003,1.0821899,0.8092529,3.2210815,94.0
1430,-2.0282068,1.8029823,-0.15873718,1.0821899,0.8092529,3.2210815,94.0
1431,-2.0282068,1.8029823,-0.15873718,1.1724609,0.8708496,2.9237182,94.0
1432,-1.611701,2.096036,-0.23225403,1.1724609,0.8708496,2.9237182,94.0
1433,-1.611701,2.096036,-0.23225403,1.0259033,0.8857178,2.6061769,94.0
1434,-1.2618217,2.3918915,-0.42448425,1.0259033,0.8857178,2.6061769,94.0
1435,-1.2618217,2.3918915,-0.42448425,0.7986328,0.8050049,2.179248,94.0
1436,-0.91667175,2.6143684,-0.48168945,0.7986328,0.8050049,2.179248,94.0
1437,-0.91667175,2.6143684,-0.48168945,0.54375,0.68499756,1.6493043,94.0
1438,-0.7695923,2.6629553,-0.35787964,0.54375,0.68499756,1.6493043,94.0
1439,-0.7695923,2.6629553,-0.35787964,0.26125488,0.541626,1.1129884,94.0
1440,-0.9877076,2.4773855,-0.17442322,0.26125488,0.541626,1.1129884,94.0
1441,-0.9877076,2.4773855,-0.17442322,-0.0998291,0.40144044,0.6616333,94.0
1442,-1.3914723,2.1035385,-0.015396118,-0.0998291,0.40144044,0.6616333,94.0
1443,-1.3914723,2.1035385,-0.015396118,-0.5150757,0.25594482,0.22196046,94.0
1444,-1.3931093,1.5460033,0.049057007,-0.5150757,0.25594482,0.22196046,94.0
1445,-1.3931093,1.5460033,0.049057007,-0.7742066,0.07434082,-0.3154175,94.0
1446,-0.852427,0.9066143,-0.021560669,-0.7742066,0.07434082,-0.3154175,94.0
1447,-0.852427,0.9066143,-0.021560669,-0.89846194,-0.1083252,-0.7975708,94.0
1448,-0.44971514,0.26408577,-0.11244202,-0.89846194,-0.1083252,-0.7975708,94.0
1449,-0.44971514,0.26408577,-0.11244202,-0.9770508,-0.29523927,-1.1968873,94.0
1450,-0.37959647,-0.3755722,-0.042678833,-0.9770508,-0.29523927,-1.1968873,94.0
1451,-0.37959647,-0.3755722,-0.042678833,-0.8963379,-0.48640138,-1.5781494,94.0
1452,-0.116396904,-0.8787899,0.19380188,-0.8963379,-0.48640138,-1.5781494,94.0
1453,-0.116396904,-0.8787899,0.19380188,-0.59260255,-0.68287355,-1.9615357,94.0
1454,0.4527321,-1.1666183,0.4524536,-0.59260255,-0.68287355,-1.9615357,94.0
1455,0.4527321,-1.1666183,0.4524536,-0.23682861,-0.8729736,-2.258899,94.0
1456,0.97468567,-1.3328791,0.62789917,-0.23682861,-0.8729736,-2.258899,94.0
1457,0.97468567,-1.3328791,0.62789917,0.0021240234,-1.0513916,-2.5254638,94.0
1458,1.2779665,-1.4522285,0.7367554,0.0021240234,-1.0513916,-2.5254638,94.0
1459,1.2779665,-1.4522285,0.7367554,0.08920898,-1.1883911,-2.7474244,94.0
1460,1.3698707,-1.5279083,0.82855225,0.08920898,-1.1883911,-2.7474244,94.0
1461,1.3698707,-1.5279083,0.82855225,0.13168946,-1.273352,-2.9417725,94.0
1462,1.2713118,-1.5302248,0.90634155,0.13168946,-1.273352,-2.9417725,94.0
1463,1.2713118,-1.5302248,0.90634155,0.115759276,-1.2871583,-3.0989501,94.0
1464,0.98149014,-1.4583473,0.8848419,0.115759276,-1.2871583,-3.0989501,94.0
1465,0.98149014,-1.4583473,0.8848419,-0.06796875,-1.265918,-3.2274537,94.0
1466,0.6121454,-1.3697414,0.7242584,-0.06796875,-1.265918,-3.2274537,94.0
1467,0.6121454,-1.3697414,0.7242584,-0.4088745,-1.2149414,-3.3325927,94.0
1468,0.33715296,-1.347929,0.5623627,-0.4088745,-1.2149414,-3.3325927,94.0
1469,0.33715296,-1.347929,0.5623627,-0.7869507,-1.1331666,-3.42074,94.0
1470,0.35823536,-1.4270363,0.5684204,-0.7869507,-1.1331666,-3.42074,94.0
1471,0.35823536,-1.4270363,0.5684204,-1.1459106,-0.99722904,-3.4918945,94.0
1472,0.809721,-1.5548363,0.67910767,-1.1459106,-0.99722904,-3.4918945,94.0
1473,0.809721,-1.5548363,0.67910767,-1.5505371,-0.79969484,-3.5619874,94.0
1474,1.6165876,-1.6405983,0.61198425,-1.5505371,-0.79969484,-3.5619874,94.0
1475,1.6165876,-1.6405983,0.61198425,-2.1314576,-0.57454836,-3.6108398,94.0
1476,2.4810019,-1.7597075,0.1564331,-2.1314576,-0.57454836,-3.6108398,94.0
1477,2.4810019,-1.7597075,0.1564331,-2.8716798,-0.37701416,-3.6437624,94.0
1478,3.0891714,-2.0867338,-0.43778992,-2.8716798,-0.37701416,-3.6437624,94.0
1479,3.0891714,-2.0867338,-0.43778992,-3.3888795,-0.2081543,-3.622522,94.0
1480,3.3098145,-2.6137104,-0.7235565,-3.3888795,-0.2081543,-3.622522,94.0
1481,3.3098145,-2.6137104,-0.7235565,-3.3835695,-0.09133301,-3.5035768,94.0
1482,3.1849976,-3.0700207,-0.6600647,-3.3835695,-0.09133301,-3.5035768,94.0
1483,3.1849976,-3.0700207,-0.6600647,-2.8780518,0.02442627,-3.3113525,94.0
1484,2.8176155,-3.2059555,-0.5656738,-2.8780518,0.02442627,-3.3113525,94.0
1485,2.8176155,-3.2059555,-0.5656738,-2.1091554,0.11257324,-3.062842,94.0
1486,2.4079866,-2.9537048,-0.63957214,-2.1091554,0.11257324,-3.062842,94.0
1487,2.4079866,-2.9537048,-0.63957214,-1.3105224,0.16673584,-2.7028198,94.0
1488,2.1946392,-2.4127564,-0.85188293,-1.3105224,0.16673584,-2.7028198,94.0
1489,2.1946392,-2.4127564,-0.85188293,-0.6775635,0.18585205,-2.267395,94.0
1490,2.1946392,-2.4127564,-0.85188293,-0.6775635,0.18585205,-2.267395,94.0
1491,2.0388775,-1.746294,-1.1603394,-0.6775635,0.18585205,-2.267395,94.0
1492,2.0388775,-1.746294,-1.1603394,-0.43011475,0.13912354,-1.7236451,94.0
1493,1.4986429,-1.1338396,-1.5110779,-0.43011475,0.13912354,-1.7236451,94.0
1494,1.4986429,-1.1338396,-1.5110779,-0.5097656,0.04991455,-1.075818,94.0
1495,0.7385988,-0.6315222,-1.5774994,-0.5097656,0.04991455,-1.075818,94.0
1496,0.7385988,-0.6315222,-1.5774994,-0.45560303,-0.014868164,-0.41524658,94.0
1497,0.61200905,-0.13862848,-1.1376343,-0.45560303,-0.014868164,-0.41524658,94.0
1498,0.61200905,-0.13862848,-1.1376343,-0.25806886,-0.03717041,0.2166504,94.0
1499,0.9536209,0.30827475,-0.49775696,-0.25806886,-0.03717041,0.2166504,94.0
1500,0.9536209,0.30827475,-0.49775696,-0.23364258,0.07646485,0.7476563,94.0
1501,0.69959164,0.3447399,-0.17111206,-0.23364258,0.07646485,0.7476563,94.0
1502,0.69959164,0.3447399,-0.17111206,-0.16992188,0.19541016,1.2191895,94.0
1503,0.15095711,-0.0989151,-0.34939575,-0.16992188,0.19541016,1.2191895,94.0
1504,0.15095711,-0.0989151,-0.34939575,0.16779785,0.2888672,1.6822265,94.0
1505,0.22940826,-0.5241394,-0.7323303,0.16779785,0.2888672,1.6822265,94.0
1506,0.22940826,-0.5241394,-0.7323303,0.71367186,0.3079834,2.2684572,94.0
1507,0.77505493,-0.5112672,-0.9288788,0.71367186,0.3079834,2.2684572,94.0
1508,0.77505493,-0.5112672,-0.9288788,1.3753052,0.31010744,2.896106,94.0
1509,1.1295414,-0.027190208,-0.7873993,1.3753052,0.31010744,2.896106,94.0
1510,1.1295414,-0.027190208,-0.7873993,2.1452637,0.27718505,3.4940186,94.0
1511,1.0092363,0.786109,-0.3691864,2.1452637,0.27718505,3.4940186,94.0
1512,1.0092363,0.786109,-0.3691864,2.817517,0.23258057,3.9942262,94.0
1513,0.33176613,1.7037892,0.18112183,2.817517,0.23258057,3.9942262,94.0
1514,0.33176613,1.7037892,0.18112183,3.177539,0.2548828,4.3850465,94.0
1515,-0.8579025,2.4606266,0.7901459,3.177539,0.2548828,4.3850465,94.0
1516,-0.8579025,2.4606266,0.7901459,3.1223145,0.36320803,4.635681,94.0
1517,-2.2516298,2.868904,1.3213196,3.1223145,0.36320803,4.635681,94.0
1518,-2.2516298,2.868904,1.3213196,2.6359131,0.51082766,4.7609987,94.0
1519,-3.3994856,2.8010197,1.5534973,2.6359131,0.51082766,4.7609987,94.0
1520,-3.3994856,2.8010197,1.5534973,2.0549927,0.6159668,4.797107,94.0
1521,-4.054123,2.4317093,1.4032593,2.0549927,0.6159668,4.797107,94.0
1522,-4.054123,2.4317093,1.4032593,1.5569092,0.6881836,4.7588744,94.0
1523,-4.295252,2.131549,0.96606445,1.5569092,0.6881836,4.7588744,94.0
1524,-4.295252,2.131549,0.96606445,1.1660889,0.7349121,4.626123,94.0
1525,-4.296504,2.0252953,0.39797974,1.1660889,0.7349121,4.626123,94.0
1526,-4.296504,2.0252953,0.39797974,0.7742066,0.78376466,4.3754883,94.0
1527,-4.033236,1.966464,-0.10243225,0.7742066,0.78376466,4.3754883,94.0
1528,-4.033236,1.966464,-0.10243225,0.5798584,0.7657105,3.9984741,94.0
1529,-3.5271988,1.9157372,-0.4273529,0.5798584,0.7657105,3.9984741,94.0
1530,-3.5271988,1.9157372,-0.4273529,0.57242435,0.725354,3.5864136,94.0
1531,-3.010419,1.8586998,-0.5361786,0.57242435,0.725354,3.5864136,94.0
1532,-3.010419,1.8586998,-0.5361786,0.7041138,0.66481936,3.165857,94.0
1533,-2.5791721,1.8333836,-0.43521118,0.7041138,0.66481936,3.165857,94.0
1534,-2.5791721,1.8333836,-0.43521118,0.8687256,0.61278075,2.7760987,94.0
1535,-2.2069411,1.924593,-0.25942993,0.8687256,0.61278075,2.7760987,94.0
1536,-2.2069411,1.924593,-0.25942993,0.9398804,0.56605226,2.366162,94.0
1537,-1.8688979,2.1782122,-0.16111755,0.9398804,0.56605226,2.366162,94.0
1538,-1.8688979,2.1782122,-0.16111755,0.9218262,0.4630371,1.7979859,94.0
1539,-1.4765148,2.498331,-0.16499329,0.9218262,0.4630371,1.7979859,94.0
1540,-1.4765148,2.498331,-0.16499329,0.66269535,0.3525879,1.085376,94.0
1541,-0.80013275,2.533431,-0.12324524,0.66269535,0.3525879,1.085376,94.0
1542,-0.80013275,2.533431,-0.12324524,0.3175415,0.22196046,0.5012695,94.0
1543,-0.11383653,2.1094475,0.071395874,0.3175415,0.22196046,0.5012695,94.0
1544,-0.11383653,2.1094475,0.071395874,-0.038232423,0.11257324,0.087084964,94.0
1545,0.041450262,1.5438814,0.3085022,-0.038232423,0.11257324,0.087084964,94.0
1546,0.041450262,1.5438814,0.3085022,-0.28780517,-0.010620117,-0.22302246,94.0
1547,0.09378028,1.165329,0.32254028,-0.28780517,-0.010620117,-0.22302246,94.0
1548,0.09378028,1.165329,0.32254028,-0.5129517,-0.14761963,-0.6488892,94.0
1549,0.2670164,0.951355,0.077423096,-0.5129517,-0.14761963,-0.6488892,94.0
1550,0.2670164,0.951355,0.077423096,-0.7858887,-0.3175415,-1.0375855,94.0
1551,-0.0024511814,0.55347824,-0.06777954,-0.7858887,-0.3175415,-1.0375855,94.0
1552,-0.0024511814,0.55347824,-0.06777954,-0.9526245,-0.53525394,-1.3689331,94.0
1553,-0.306612,-0.19258118,0.14866638,-0.9526245,-0.53525394,-1.3689331,94.0
1554,-0.306612,-0.19258118,0.14866638,-0.84323734,-0.74871826,-1.6928467,94.0
1555,0.21500087,-0.97904015,0.60136414,-0.84323734,-0.74871826,-1.6928467,94.0
1556,0.21500087,-0.97904015,0.60136414,-0.45878908,-0.9366943,-1.996582,94.0
1557,1.2827673,-1.4430952,0.960907,-0.45878908,-0.9366943,-1.996582,94.0
1558,1.2827673,-1.4430952,0.960907,-0.029736329,-1.0959961,-2.267395,94.0
1559,2.0137382,-1.5751305,1.1046143,-0.029736329,-1.0959961,-2.267395,94.0
1560,2.0137382,-1.5751305,1.1046143,0.271875,-1.2244996,-2.5010376,94.0
1561,2.035551,-1.4965792,1.1134644,0.271875,-1.2244996,-2.5010376,94.0
1562,2.035551,-1.4965792,1.1134644,0.3695801,-1.3094605,-2.6868896,94.0
1563,1.5252914,-1.3093729,1.0797119,0.3695801,-1.3094605,-2.6868896,94.0
1564,1.5252914,-1.3093729,1.0797119,0.36108398,-1.3487549,-2.8557496,94.0
1565,0.8114562,-1.130702,1.0242462,0.36108398,-1.3487549,-2.8557496,94.0
1566,0.8114562,-1.130702,1.0242462,0.26444092,-1.3391968,-3.0012453,94.0
1567,0.13732433,-1.0111408,0.9568176,0.26444092,-1.3391968,-3.0012453,94.0
1568,0.13732433,-1.0111408,0.9568176,0.010620117,-1.2956543,-3.1170044,94.0
1569,-0.2591958,-0.97997,0.883255,0.010620117,-1.2956543,-3.1170044,94.0
1570,-0.2591958,-0.97997,0.883255,-0.39613038,-1.2138795,-3.2274537,94.0
1571,-0.17677832,-1.036747,0.77900696,-0.39613038,-1.2138795,-3.2274537,94.0
1572,-0.17677832,-1.036747,0.77900696,-0.94731444,-1.0970582,-3.3676393,94.0
1573,0.36260557,-1.1972198,0.5612793,-0.94731444,-1.0970582,-3.3676393,94.0
1574,0.36260557,-1.1972198,0.5612793,-1.5515991,-0.9515625,-3.5120728,94.0
1575,1.106442,-1.5017338,0.26948547,-1.5515991,-0.9515625,-3.5120728,94.0
1576,1.106442,-1.5017338,0.26948547,-2.095349,-0.80819094,-3.6501343,94.0
1577,1.8255587,-1.9402428,0.03555298,-2.095349,-0.80819094,-3.6501343,94.0
1578,1.8255587,-1.9402428,0.03555298,-2.5010376,-0.67225343,-3.7701416,94.0
1579,2.4737039,-2.4352627,-0.05860901,-2.5010376,-0.67225343,-3.7701416,94.0
1580,2.4737039,-2.4352627,-0.05860901,-2.6582153,-0.5140137,-3.8614748,94.0
1581,3.027913,-2.9050827,0.005432129,-2.6582153,-0.5140137,-3.8614748,94.0
1582,3.027913,-2.9050827,0.005432129,-2.4904175,-0.33878174,-3.911389,94.0
1583,3.3031902,-3.1935482,0.120224,-2.4904175,-0.33878174,-3.911389,94.0
1584,3.3031902,-3.1935482,0.120224,-1.9615357,-0.20390625,-3.8540406,94.0
1585,3.2035627,-3.0856247,0.09762573,-1.9615357,-0.20390625,-3.8540406,94.0
1586,3.2035627,-3.0856247,0.09762573,-1.4188477,-0.11257324,-3.6724365,94.0
1587,2.8336391,-2.5538263,-0.11994934,-1.4188477,-0.11257324,-3.6724365,94.0
1588,2.8336391,-2.5538263,-0.11994934,-1.1894531,-0.029736329,-3.3825073,94.0
1589,2.426262,-1.8656445,-0.44244385,-1.1894531,-0.029736329,-3.3825073,94.0
1590,2.426262,-1.8656445,-0.44244385,-1.2160034,0.045666505,-3.0054932,94.0
1591,2.0862732,-1.2880354,-0.7888489,-1.2160034,0.045666505,-3.0054932,94.0
1592,2.0862732,-1.2880354,-0.7888489,-1.4114136,0.10938721,-2.538208,94.0
1593,2.0862732,-1.2880354,-0.7888489,-1.4114136,0.10938721,-2.538208,93.0
1594,1.6547003,-0.91360664,-1.2427521,-1.4114136,0.10938721,-2.538208,93.0
1595,1.6547003,-0.91360664,-1.2427521,-1.7533814,0.07327881,-1.992334,93.0
1596,1.0542898,-0.8170061,-1.7563934,-1.7533814,0.07327881,-1.992334,93.0
