,accx,accy,accz,gyrox,gyroy,gyroz,heart rate
0,walk,walk,walk,walk,walk,walk,walk
1,2.8392577,-48.214893,38.68009,0.0,0.0,0.0,0.0
2,2.8392577,-48.214893,38.68009,-0.2347046,0.010620117,-0.007434082,0.0
3,2.216255,-38.69269,30.937494,-0.2347046,0.010620117,-0.007434082,0.0
4,2.216255,-38.69269,30.937494,-0.30373535,-0.014868164,-0.027612304,0.0
5,2.216255,-38.69269,30.937494,-0.24957275,0.011682129,-0.007434082,0.0
6,1.7500303,-31.107193,24.849384,-0.24957275,0.011682129,-0.007434082,0.0
7,1.3854856,-24.92096,19.97946,-0.24957275,0.011682129,-0.007434082,0.0
8,1.3854856,-24.92096,19.97946,-0.21558838,0.028674318,0.0021240234,0.0
9,1.077163,-19.851856,15.987305,-0.21558838,0.028674318,0.0021240234,0.0
10,1.077163,-19.851856,15.987305,-0.18054199,0.060534667,0.021240234,0.0
11,1.077163,-19.851856,15.987305,-0.18054199,0.060534667,0.021240234,84.0
12,0.83281183,-15.848625,12.6987915,-0.18054199,0.060534667,0.021240234,84.0
13,0.83281183,-15.848625,12.6987915,-0.08920898,0.07327881,0.04248047,84.0
14,0.64575386,-12.711868,10.02903,-0.08920898,0.07327881,0.04248047,84.0
15,0.64575386,-12.711868,10.02903,-0.0361084,0.06478272,0.040356446,84.0
16,0.496974,-10.188084,7.925457,-0.0361084,0.06478272,0.040356446,84.0
17,0.496974,-10.188084,7.925457,0.013806152,0.059472658,0.012744141,84.0
18,0.3755088,-8.116875,6.3217964,0.013806152,0.059472658,0.012744141,84.0
19,0.3755088,-8.116875,6.3217964,0.021240234,0.026550293,-0.0031860352,84.0
20,0.288908,-6.405388,5.1154785,0.021240234,0.026550293,-0.0031860352,84.0
21,0.288908,-6.405388,5.1154785,-0.023364259,-0.012744141,-0.015930176,84.0
22,0.23885345,-5.063118,4.175083,-0.023364259,-0.012744141,-0.015930176,84.0
23,0.23885345,-5.063118,4.175083,-0.087084964,-0.05522461,-0.014868164,84.0
24,0.22949839,-4.0583305,3.4029465,-0.087084964,-0.05522461,-0.014868164,84.0
25,0.22949839,-4.0583305,3.4029465,-0.13275146,-0.07646485,-0.015930176,84.0
26,0.252666,-3.3426514,2.7444267,-0.13275146,-0.07646485,-0.015930176,84.0
27,0.252666,-3.3426514,2.7444267,-0.13275146,-0.07115479,-0.019116212,84.0
28,0.26813602,-2.8091545,2.2144394,-0.13275146,-0.07115479,-0.019116212,84.0
29,0.26813602,-2.8091545,2.2144394,-0.121069334,-0.052038576,0.0021240234,84.0
30,0.2327218,-2.3497772,1.8263016,-0.121069334,-0.052038576,0.0021240234,84.0
31,0.2327218,-2.3497772,1.8263016,-0.06690674,-0.02442627,0.013806152,84.0
32,0.15496397,-1.9060173,1.508194,-0.06690674,-0.02442627,0.013806152,84.0
33,0.15496397,-1.9060173,1.508194,-0.050976563,0.0,0.021240234,84.0
34,0.059103012,-1.5058327,1.1764526,-0.050976563,0.0,0.021240234,84.0
35,0.059103012,-1.5058327,1.1764526,-0.03717041,0.010620117,0.027612304,84.0
36,-0.009431362,-1.1899681,0.89443207,-0.03717041,0.010620117,0.027612304,84.0
37,-0.009431362,-1.1899681,0.89443207,-0.03717041,-0.008496094,0.03186035,84.0
38,-0.033399582,-0.9413147,0.7217941,-0.03717041,-0.008496094,0.03186035,84.0
39,-0.033399582,-0.9413147,0.7217941,-0.047790527,-0.021240234,0.027612304,84.0
40,0.008448839,-0.74212646,0.6019821,-0.047790527,-0.021240234,0.027612304,84.0
41,0.008448839,-0.74212646,0.6019821,-0.05628662,-0.03717041,0.027612304,84.0
42,0.072188616,-0.60536957,0.47449493,-0.05628662,-0.03717041,0.027612304,84.0
43,0.072188616,-0.60536957,0.47449493,-0.02442627,-0.022302246,0.022302246,84.0
44,0.11906695,-0.51097107,0.36560822,-0.02442627,-0.022302246,0.022302246,84.0
45,0.11906695,-0.51097107,0.36560822,0.019116212,-0.010620117,0.023364259,84.0
46,0.16128159,-0.41326904,0.2998848,0.019116212,-0.010620117,0.023364259,84.0
47,0.16128159,-0.41326904,0.2998848,0.035046387,0.008496094,0.032922365,84.0
48,0.1617403,-0.27501297,0.25732422,0.035046387,0.008496094,0.032922365,84.0
49,0.1617403,-0.27501297,0.25732422,0.013806152,0.012744141,0.04141846,84.0
50,0.11330342,-0.14248276,0.20352554,0.013806152,0.012744141,0.04141846,84.0
51,0.11330342,-0.14248276,0.20352554,-0.0063720704,0.019116212,0.04991455,84.0
52,0.047466278,-0.10897064,0.15237045,-0.0063720704,0.019116212,0.04991455,84.0
53,0.047466278,-0.10897064,0.15237045,-0.0053100586,0.0021240234,0.047790527,84.0
54,-0.014590502,-0.12637329,0.11477661,-0.0053100586,0.0021240234,0.047790527,84.0
55,-0.014590502,-0.12637329,0.11477661,0.025488282,-0.0031860352,0.029736329,84.0
56,-0.050100088,-0.08162689,0.08179855,0.025488282,-0.0031860352,0.029736329,84.0
57,-0.050100088,-0.08162689,0.08179855,0.007434082,-0.045666505,0.014868164,84.0
58,-0.050100088,-0.08162689,0.08179855,-0.058410645,-0.058410645,0.019116212,84.0
59,-0.04423046,0.019405365,0.06310654,-0.058410645,-0.058410645,0.019116212,84.0
60,-0.01366806,0.043624878,0.03337097,-0.058410645,-0.058410645,0.019116212,84.0
61,-0.01366806,0.043624878,0.03337097,-0.08814698,-0.060534667,0.0053100586,84.0
62,0.029299974,-0.05512619,0.009056091,-0.08814698,-0.060534667,0.0053100586,84.0
63,0.029299974,-0.05512619,0.009056091,-0.08602295,-0.07327881,0.007434082,84.0
64,0.10924339,-0.21027374,-0.01473999,-0.08602295,-0.07327881,0.007434082,84.0
65,0.10924339,-0.21027374,-0.01473999,-0.013806152,-0.043542482,0.0,84.0
66,0.16091752,-0.2913971,-0.0193367,-0.013806152,-0.043542482,0.0,84.0
67,0.16091752,-0.2913971,-0.0193367,0.0637207,-0.009558106,-0.0063720704,84.0
68,0.12490082,-0.23297119,0.010128021,0.0637207,-0.009558106,-0.0063720704,84.0
69,0.12490082,-0.23297119,0.010128021,0.06690674,0.004248047,-0.016992187,84.0
70,0.06159067,-0.13648605,0.029880524,0.06690674,0.004248047,-0.016992187,84.0
71,0.06159067,-0.13648605,0.029880524,0.04885254,0.016992187,-0.007434082,84.0
72,0.02413845,-0.09163284,0.024169922,0.04885254,0.016992187,-0.007434082,84.0
73,0.02413845,-0.09163284,0.024169922,0.046728518,0.022302246,0.008496094,84.0
74,0.012609243,-0.06268692,0.022045135,0.046728518,0.022302246,0.008496094,84.0
75,0.012609243,-0.06268692,0.022045135,0.009558106,0.019116212,0.038232423,84.0
76,0.012609243,-0.06268692,0.022045135,-0.035046387,0.008496094,0.040356446,84.0
77,6.392002E-4,-0.010009766,0.020648956,-0.035046387,0.008496094,0.040356446,84.0
78,-0.009193182,0.01701355,-0.0019035339,-0.035046387,0.008496094,0.040356446,84.0
79,-0.009193182,0.01701355,-0.0019035339,-0.0361084,0.012744141,0.038232423,84.0
80,-0.01741314,6.713867E-4,-0.046714783,-0.0361084,0.012744141,0.038232423,84.0
81,-0.01741314,6.713867E-4,-0.046714783,-0.035046387,0.010620117,0.0361084,84.0
82,-0.046718597,0.010314941,-0.08672714,-0.035046387,0.010620117,0.0361084,84.0
83,-0.046718597,0.010314941,-0.08672714,-0.053100586,-0.009558106,0.03717041,84.0
84,-0.0756073,0.054138184,-0.08242798,-0.053100586,-0.009558106,0.03717041,84.0
85,-0.0756073,0.054138184,-0.08242798,-0.058410645,-0.039294433,0.015930176,84.0
86,-0.0748291,0.06915283,-0.058311462,-0.058410645,-0.039294433,0.015930176,84.0
87,-0.0748291,0.06915283,-0.058311462,-0.052038576,-0.0541626,-0.012744141,84.0
88,-0.042126417,0.026172638,-0.048454285,-0.052038576,-0.0541626,-0.012744141,84.0
89,-0.042126417,0.026172638,-0.048454285,-0.027612304,-0.087084964,-0.027612304,84.0
90,0.033107996,-0.022735596,-0.030452728,-0.027612304,-0.087084964,-0.027612304,84.0
91,0.033107996,-0.022735596,-0.030452728,-0.0053100586,-0.10089111,-0.03717041,84.0
92,0.1424532,-0.022964478,0.02727127,-0.0053100586,-0.10089111,-0.03717041,84.0
93,0.1424532,-0.022964478,0.02727127,-0.0053100586,-0.087084964,-0.033984374,84.0
94,0.13530064,0.010147095,0.0810585,-0.0053100586,-0.087084964,-0.033984374,84.0
95,0.13530064,0.010147095,0.0810585,-0.007434082,-0.09451904,-0.07752686,84.0
96,0.06334305,0.11440277,0.08288574,-0.007434082,-0.09451904,-0.07752686,84.0
97,0.06334305,0.11440277,0.08288574,-0.07540283,-0.16779785,-0.013806152,84.0
98,0.19634104,0.13734818,0.052268982,-0.07540283,-0.16779785,-0.013806152,84.0
99,0.19634104,0.13734818,0.052268982,-0.16567384,-0.081774905,-0.015930176,84.0
100,0.30792737,-0.0677948,0.01568985,-0.16567384,-0.081774905,-0.015930176,84.0
101,0.30792737,-0.0677948,0.01568985,0.07327881,0.008496094,-0.0361084,84.0
102,0.30792737,-0.0677948,0.01568985,-0.004248047,-0.0180542,-0.033984374,84.0
103,0.14466953,-0.1440773,-0.004512787,-0.004248047,-0.0180542,-0.033984374,84.0
104,-0.030761003,-0.049209595,-0.023521423,-0.004248047,-0.0180542,-0.033984374,84.0
105,-0.030761003,-0.049209595,-0.023521423,-0.0053100586,-0.013806152,-0.013806152,84.0
106,-0.07058048,-0.024036407,-0.02041626,-0.0053100586,-0.013806152,-0.013806152,84.0
107,-0.07058048,-0.024036407,-0.02041626,0.0053100586,0.0021240234,-0.019116212,84.0
108,-0.07058048,-0.024036407,-0.02041626,0.0053100586,0.0021240234,-0.019116212,85.0
109,-0.044989824,-0.046035767,-0.02324295,0.0053100586,0.0021240234,-0.019116212,85.0
110,-0.044989824,-0.046035767,-0.02324295,-0.008496094,0.010620117,-0.021240234,85.0
111,-0.04113102,-0.066185,-0.070804596,-0.008496094,0.010620117,-0.021240234,85.0
112,-0.04113102,-0.066185,-0.070804596,-0.02442627,0.0053100586,-0.023364259,85.0
113,-0.044391632,-0.102752686,-0.09801483,-0.02442627,0.0053100586,-0.023364259,85.0
114,-0.044391632,-0.102752686,-0.09801483,-0.0180542,-0.0010620117,-0.010620117,85.0
115,-0.0010406971,-0.12817383,-0.063079834,-0.0180542,-0.0010620117,-0.010620117,85.0
116,-0.0010406971,-0.12817383,-0.063079834,-0.004248047,0.0063720704,-0.010620117,85.0
117,0.046848297,-0.10807037,-0.0075187683,-0.004248047,0.0063720704,-0.010620117,85.0
118,0.046848297,-0.10807037,-0.0075187683,-0.0031860352,0.011682129,0.0053100586,85.0
119,0.04397273,-0.062286377,0.008132935,-0.0031860352,0.011682129,0.0053100586,85.0
120,0.04397273,-0.062286377,0.008132935,-0.023364259,0.013806152,0.016992187,85.0
121,0.023630142,-0.03445053,-0.0040893555,-0.023364259,0.013806152,0.016992187,85.0
122,0.023630142,-0.03445053,-0.0040893555,-0.026550293,0.023364259,0.022302246,85.0
123,0.03062296,-0.0316391,-0.009876251,-0.026550293,0.023364259,0.022302246,85.0
124,0.03062296,-0.0316391,-0.009876251,-0.022302246,0.029736329,0.027612304,85.0
125,0.06415892,-0.01902771,0.0064926147,-0.022302246,0.029736329,0.027612304,85.0
126,0.06415892,-0.01902771,0.0064926147,-0.032922365,0.03717041,0.03717041,85.0
127,0.08765507,0.017333984,0.017120361,-0.032922365,0.03717041,0.03717041,85.0
128,0.08765507,0.017333984,0.017120361,-0.03717041,0.04141846,0.04141846,85.0
129,0.09997034,0.049095154,-0.0029678345,-0.03717041,0.04141846,0.04141846,85.0
130,0.09997034,0.049095154,-0.0029678345,-0.014868164,0.045666505,0.052038576,85.0
131,0.13253975,0.078559875,-0.023052216,-0.014868164,0.045666505,0.052038576,85.0
132,0.13253975,0.078559875,-0.023052216,-0.0010620117,0.0541626,0.047790527,85.0
133,0.19185948,0.14164734,-0.031150818,-0.0010620117,0.0541626,0.047790527,85.0
134,0.19185948,0.14164734,-0.031150818,0.0,0.06265869,0.032922365,85.0
135,0.29550433,0.21248627,-0.0017280579,0.0,0.06265869,0.032922365,85.0
136,0.29550433,0.21248627,-0.0017280579,-0.0031860352,0.070092775,0.02442627,85.0
137,0.38775826,0.25979614,0.03479004,-0.0031860352,0.070092775,0.02442627,85.0
138,0.38775826,0.25979614,0.03479004,-0.015930176,0.083898924,0.0021240234,85.0
139,0.3865862,0.28059006,0.033309937,-0.015930176,0.083898924,0.0021240234,85.0
140,0.3865862,0.28059006,0.033309937,-0.022302246,0.1083252,-0.015930176,85.0
141,0.31791162,0.2920761,0.019870758,-0.022302246,0.1083252,-0.015930176,85.0
142,0.31791162,0.2920761,0.019870758,-0.038232423,0.12319336,-0.040356446,85.0
143,0.23023272,0.29558563,0.015907288,-0.038232423,0.12319336,-0.040356446,85.0
144,0.23023272,0.29558563,0.015907288,-0.040356446,0.14337158,-0.057348635,85.0
145,0.15823412,0.2694626,0.014724731,-0.040356446,0.14337158,-0.057348635,85.0
146,0.15823412,0.2694626,0.014724731,-0.0361084,0.16036378,-0.06796875,85.0
147,-0.032250404,0.32378387,-0.010276794,-0.0361084,0.16036378,-0.06796875,85.0
148,-0.032250404,0.32378387,-0.010276794,-0.025488282,0.20284425,-0.09664307,85.0
149,-0.102302074,0.30760193,0.019245148,-0.025488282,0.20284425,-0.09664307,85.0
150,-0.102302074,0.30760193,0.019245148,-0.033984374,0.21983643,-0.10513916,85.0
151,-0.25391197,0.3244362,0.032791138,-0.033984374,0.21983643,-0.10513916,85.0
152,-0.25391197,0.3244362,0.032791138,-0.06796875,0.2824951,-0.13699952,85.0
153,-0.26536083,0.2619896,0.044261932,-0.06796875,0.2824951,-0.13699952,85.0
154,-0.26536083,0.2619896,0.044261932,-0.07434082,0.30267334,-0.14124756,85.0
155,-0.44300175,0.104148865,-0.023990631,-0.07434082,0.30267334,-0.14124756,85.0
156,-0.44300175,0.104148865,-0.023990631,-0.0722168,0.33028564,-0.13381349,85.0
157,-0.46574163,0.049713135,0.0119018555,-0.0722168,0.33028564,-0.13381349,85.0
158,-0.46574163,0.049713135,0.0119018555,-0.070092775,0.32285157,-0.12850343,85.0
159,-0.6801493,0.01064682,0.12754822,-0.070092775,0.32285157,-0.12850343,85.0
160,-0.6801493,0.01064682,0.12754822,-0.1178833,0.26125488,-0.098767094,85.0
161,-0.63927317,0.019615173,0.19223404,-0.1178833,0.26125488,-0.098767094,85.0
162,-0.63927317,0.019615173,0.19223404,-0.14124756,0.23045655,-0.08920898,85.0
163,-0.6824758,-0.035247803,0.38668442,-0.14124756,0.23045655,-0.08920898,85.0
164,-0.6824758,-0.035247803,0.38668442,-0.21027832,0.12531738,-0.087084964,85.0
165,-0.5849943,-0.08089447,0.41729736,-0.21027832,0.12531738,-0.087084964,85.0
166,-0.5849943,-0.08089447,0.41729736,-0.2262085,0.09451904,-0.07646485,85.0
167,-0.5416527,-0.25077438,0.46606445,-0.2262085,0.09451904,-0.07646485,85.0
168,-0.5416527,-0.25077438,0.46606445,-0.22196046,0.040356446,-0.04885254,85.0
169,-0.5712249,-0.5088463,0.44368744,-0.22196046,0.040356446,-0.04885254,85.0
170,-0.5712249,-0.5088463,0.44368744,-0.16142578,0.0021240234,-0.008496094,85.0
171,-0.6354346,-0.7572098,0.44615936,-0.16142578,0.0021240234,-0.008496094,85.0
172,-0.6354346,-0.7572098,0.44615936,-0.05522461,-0.022302246,0.06796875,85.0
173,-0.6368878,-0.8561821,0.5782623,-0.05522461,-0.022302246,0.06796875,85.0
174,-0.6368878,-0.8561821,0.5782623,-0.0361084,0.0031860352,0.13912354,85.0
175,-0.58487654,-0.93920517,0.7472305,-0.0361084,0.0031860352,0.13912354,85.0
176,-0.58487654,-0.93920517,0.7472305,-0.039294433,0.046728518,0.24320069,85.0
177,-0.5585141,-1.1212616,0.8022995,-0.039294433,0.046728518,0.24320069,85.0
178,-0.5585141,-1.1212616,0.8022995,-0.0021240234,0.11469727,0.35577393,85.0
179,-0.5822482,-1.2912216,0.6922531,-0.0021240234,0.11469727,0.35577393,85.0
180,-0.5822482,-1.2912216,0.6922531,0.095581055,0.17629395,0.4800293,85.0
181,-0.6183622,-1.3493614,0.5237274,0.095581055,0.17629395,0.4800293,85.0
182,-0.6183622,-1.3493614,0.5237274,0.21346436,0.21983643,0.6138428,85.0
183,-0.6039305,-1.2418556,0.38196945,0.21346436,0.21983643,0.6138428,85.0
184,-0.6039305,-1.2418556,0.38196945,0.2814331,0.24320069,0.73703617,85.0
185,-0.49746323,-1.066349,0.2810669,0.2814331,0.24320069,0.73703617,85.0
186,-0.49746323,-1.066349,0.2810669,0.31329346,0.24851075,0.85491943,85.0
187,-0.3728974,-0.9810829,0.21287537,0.31329346,0.24851075,0.85491943,85.0
188,-0.3728974,-0.9810829,0.21287537,0.3451538,0.23151855,0.9876709,85.0
189,-0.24453378,-0.98566055,0.17640305,0.3451538,0.23151855,0.9876709,85.0
190,-0.24453378,-0.98566055,0.17640305,0.37807617,0.18691407,1.1013062,85.0
191,-0.04696977,-0.9841919,0.14781189,0.37807617,0.18691407,1.1013062,85.0
192,-0.04696977,-0.9841919,0.14781189,0.3982544,0.15186767,1.2276856,85.0
193,0.23461652,-0.9634743,0.08060074,0.3982544,0.15186767,1.2276856,85.0
194,0.23461652,-0.9634743,0.08060074,0.48533937,0.13912354,1.360437,85.0
195,0.5453104,-0.9247589,0.020057678,0.48533937,0.13912354,1.360437,85.0
196,0.5453104,-0.9247589,0.020057678,0.631897,0.15186767,1.5006226,85.0
197,0.8334651,-0.8497429,-0.014667511,0.631897,0.15186767,1.5006226,85.0
198,0.8334651,-0.8497429,-0.014667511,0.7699585,0.20603028,1.635498,85.0
199,0.9723141,-0.69125366,-0.06310272,0.7699585,0.20603028,1.635498,85.0
200,0.9723141,-0.69125366,-0.06310272,0.8963379,0.271875,1.7501954,85.0
201,0.9519968,-0.47834015,-0.16322708,0.8963379,0.271875,1.7501954,85.0
202,0.9519968,-0.47834015,-0.16322708,0.996167,0.3525879,1.8192261,85.0
203,0.86759114,-0.3023758,-0.26348114,0.996167,0.3525879,1.8192261,85.0
204,0.86759114,-0.3023758,-0.26348114,1.0790039,0.44179687,1.8574585,85.0
205,0.7334161,-0.24833679,-0.30656052,1.0790039,0.44179687,1.8574585,85.0
206,0.7334161,-0.24833679,-0.30656052,1.1214844,0.51826173,1.8627685,85.0
207,0.5386739,-0.31510162,-0.37039566,1.1214844,0.51826173,1.8627685,85.0
208,0.5386739,-0.31510162,-0.37039566,1.080066,0.52888185,1.8362182,85.0
209,0.5386739,-0.31510162,-0.37039566,1.080066,0.52888185,1.8362182,85.0
210,0.42744803,-0.47535706,-0.4663124,1.080066,0.52888185,1.8362182,85.0
211,0.42744803,-0.47535706,-0.4663124,0.93138427,0.44604492,1.7714356,85.0
212,0.62812805,-0.7902603,-0.49458313,0.93138427,0.44604492,1.7714356,85.0
213,0.62812805,-0.7902603,-0.49458313,0.7965088,0.34090576,1.7820557,85.0
214,1.0835817,-1.2148895,-0.42246246,0.7965088,0.34090576,1.7820557,85.0
215,1.0835817,-1.2148895,-0.42246246,0.79332274,0.3090454,1.9233032,85.0
216,1.4519849,-1.4998169,-0.389328,0.79332274,0.3090454,1.9233032,85.0
217,1.4519849,-1.4998169,-0.389328,0.8294312,0.3334717,2.1017213,85.0
218,1.5010533,-1.5077362,-0.45366287,0.8294312,0.3334717,2.1017213,85.0
219,1.5010533,-1.5077362,-0.45366287,0.8209351,0.35152587,2.2291627,85.0
220,1.3554082,-1.4323273,-0.49564743,0.8209351,0.35152587,2.2291627,85.0
221,1.3554082,-1.4323273,-0.49564743,0.75721437,0.36002198,2.3151855,85.0
222,1.1741462,-1.501503,-0.43024445,0.75721437,0.36002198,2.3151855,85.0
223,1.1741462,-1.501503,-0.43024445,0.7391602,0.35683593,2.3927124,85.0
224,0.9780741,-1.6632309,-0.29003525,0.7391602,0.35683593,2.3927124,85.0
225,0.9780741,-1.6632309,-0.29003525,0.69136965,0.33665773,2.4776733,85.0
226,0.71506405,-1.7939148,-0.13253021,0.69136965,0.33665773,2.4776733,85.0
227,0.71506405,-1.7939148,-0.13253021,0.6074707,0.2814331,2.6125488,85.0
228,0.464324,-1.9124603,-0.035320282,0.6074707,0.2814331,2.6125488,85.0
229,0.464324,-1.9124603,-0.035320282,0.5787964,0.2442627,2.8132691,85.0
230,0.2867546,-2.027542,-0.060581207,0.5787964,0.2442627,2.8132691,85.0
231,0.2867546,-2.027542,-0.060581207,0.6510132,0.24320069,3.0256715,85.0
232,0.13504314,-2.105667,-0.10474014,0.6510132,0.24320069,3.0256715,85.0
233,0.13504314,-2.105667,-0.10474014,0.7869507,0.2984253,3.2093995,85.0
234,-0.08638668,-2.111824,-0.022735596,0.7869507,0.2984253,3.2093995,85.0
235,-0.08638668,-2.111824,-0.022735596,0.88996583,0.3706421,3.240198,85.0
236,-0.35017633,-2.0742722,0.22354507,0.88996583,0.3706421,3.240198,85.0
237,-0.35017633,-2.0742722,0.22354507,0.8729736,0.41843262,3.1286867,85.0
238,-0.5799942,-2.1211472,0.5847206,0.8729736,0.41843262,3.1286867,85.0
239,-0.5799942,-2.1211472,0.5847206,0.7497803,0.47790527,3.0469117,85.0
240,-0.8640928,-2.3262634,0.89569473,0.7497803,0.47790527,3.0469117,85.0
241,-0.8640928,-2.3262634,0.89569473,0.59472656,0.47684327,2.9598267,85.0
242,-1.277358,-2.5754776,0.99725723,0.59472656,0.47684327,2.9598267,85.0
243,-1.277358,-2.5754776,0.99725723,0.50233155,0.42374268,2.8408813,85.0
244,-1.6204824,-2.7261047,0.94454575,0.50233155,0.42374268,2.8408813,85.0
245,-1.6204824,-2.7261047,0.94454575,0.42161867,0.32603762,2.6550293,85.0
246,-1.5688715,-2.8125153,0.9049759,0.42161867,0.32603762,2.6550293,85.0
247,-1.5688715,-2.8125153,0.9049759,0.32922363,0.21877442,2.442627,85.0
248,-1.0615425,-2.9869614,0.9231758,0.32922363,0.21877442,2.442627,85.0
249,-1.0615425,-2.9869614,0.9231758,0.31329346,0.16036378,2.3226197,85.0
250,-0.52230525,-3.1146774,0.890213,0.31329346,0.16036378,2.3226197,85.0
251,-0.52230525,-3.1146774,0.890213,0.27293703,0.1263794,2.2928834,85.0
252,-0.36332774,-2.9658356,0.74243164,0.27293703,0.1263794,2.2928834,85.0
253,-0.36332774,-2.9658356,0.74243164,0.15186767,0.03079834,2.3162477,85.0
254,-0.51326966,-2.6447601,0.5479889,0.15186767,0.03079834,2.3162477,85.0
255,-0.51326966,-2.6447601,0.5479889,0.06265869,-0.115759276,2.3619142,85.0
256,-0.66431427,-2.378334,0.32575607,0.06265869,-0.115759276,2.3619142,85.0
257,-0.66431427,-2.378334,0.32575607,0.14018555,-0.22939454,2.4288208,85.0
258,-0.7302673,-2.0514832,0.09377289,0.14018555,-0.22939454,2.4288208,85.0
259,-0.7302673,-2.0514832,0.09377289,0.33028564,-0.31223145,2.4957275,85.0
260,-0.7487037,-1.4564667,-0.06454468,0.33028564,-0.31223145,2.4957275,85.0
261,-0.7487037,-1.4564667,-0.06454468,0.51932377,-0.3717041,2.5307739,85.0
262,-0.73087215,-0.6952896,-0.08597565,0.51932377,-0.3717041,2.5307739,85.0
263,-0.73087215,-0.6952896,-0.08597565,0.631897,-0.39400634,2.5509522,85.0
264,-0.7471366,-0.05593872,-0.05476761,0.631897,-0.39400634,2.5509522,85.0
265,-0.7471366,-0.05593872,-0.05476761,0.727478,-0.3791382,2.5477662,85.0
266,-0.9038005,0.33827972,-0.08126831,0.727478,-0.3791382,2.5477662,85.0
267,-0.9038005,0.33827972,-0.08126831,0.8612915,-0.32922363,2.4978516,85.0
268,-1.2288265,0.5630188,-0.14624023,0.8612915,-0.32922363,2.4978516,85.0
269,-1.2288265,0.5630188,-0.14624023,0.93775636,-0.2824951,2.3852785,85.0
270,-1.614409,0.6669388,-0.17057037,0.93775636,-0.2824951,2.3852785,85.0
271,-1.614409,0.6669388,-0.17057037,0.9366943,-0.26444092,2.2344728,85.0
272,-1.9294178,0.64385223,-0.11792755,0.9366943,-0.26444092,2.2344728,85.0
273,-1.9294178,0.64385223,-0.11792755,0.90270996,-0.27718505,2.0879152,85.0
274,-2.067863,0.5085144,-0.020648956,0.90270996,-0.27718505,2.0879152,85.0
275,-2.067863,0.5085144,-0.020648956,0.8814697,-0.31329346,1.9487915,85.0
276,-2.0184627,0.3299942,0.084300995,0.8814697,-0.31329346,1.9487915,85.0
277,-2.0184627,0.3299942,0.084300995,0.8750977,-0.3355957,1.8542725,85.0
278,-1.860278,0.21903992,0.18869019,0.8750977,-0.3355957,1.8542725,85.0
279,-1.860278,0.21903992,0.18869019,0.8315552,-0.3345337,1.8022339,85.0
280,-1.7514915,0.23140717,0.25699615,0.8315552,-0.3345337,1.8022339,85.0
281,-1.7514915,0.23140717,0.25699615,0.7508423,-0.32603762,1.7544434,85.0
282,-1.7509613,0.27220917,0.30303192,0.7508423,-0.32603762,1.7544434,85.0
283,-1.7509613,0.27220917,0.30303192,0.6839356,-0.31860352,1.7109009,85.0
284,-1.8278687,0.20529175,0.4120407,0.6839356,-0.31860352,1.7109009,85.0
285,-1.8278687,0.20529175,0.4120407,0.71791995,-0.31223145,1.6546143,85.0
286,-1.8937526,0.056236267,0.6106987,0.71791995,-0.31223145,1.6546143,85.0
287,-1.8937526,0.056236267,0.6106987,0.7975708,-0.33134767,1.539917,85.0
288,-1.6753781,-0.0570755,0.81990814,0.7975708,-0.33134767,1.539917,85.0
289,-1.6753781,-0.0570755,0.81990814,0.7965088,-0.38657227,1.3774292,85.0
290,-1.0019722,-0.10209656,1.0228577,0.7965088,-0.38657227,1.3774292,85.0
291,-1.0019722,-0.10209656,1.0228577,0.6680054,-0.4078125,1.2850342,85.0
292,-0.11025691,-0.09171295,1.203331,0.6680054,-0.4078125,1.2850342,85.0
293,-0.11025691,-0.09171295,1.203331,0.48533937,-0.41099855,1.2075074,85.0
294,0.6904566,-0.11418915,1.257267,0.48533937,-0.41099855,1.2075074,85.0
295,0.6904566,-0.11418915,1.257267,0.3419678,-0.3536499,1.1182984,85.0
296,1.2204561,-0.20085144,1.1234665,0.3419678,-0.3536499,1.1182984,85.0
297,1.2204561,-0.20085144,1.1234665,0.28461915,-0.18160401,0.998291,85.0
298,1.3328712,-0.32785797,0.8028259,0.28461915,-0.18160401,0.998291,85.0
299,1.3328712,-0.32785797,0.8028259,0.2782471,0.022302246,0.8687256,85.0
300,1.0998418,-0.44817352,0.41051102,0.2782471,0.022302246,0.8687256,85.0
301,1.0998418,-0.44817352,0.41051102,0.22302246,0.124255374,0.77951664,85.0
302,0.8023344,-0.45079803,0.121025085,0.22302246,0.124255374,0.77951664,85.0
303,0.8023344,-0.45079803,0.121025085,0.14549561,0.16036378,0.7827026,85.0
304,0.52770734,-0.30723572,-0.043304443,0.14549561,0.16036378,0.7827026,85.0
305,0.52770734,-0.30723572,-0.043304443,0.057348635,0.17629395,0.8623535,85.0
306,0.12176311,-0.080467224,-0.19818115,0.057348635,0.17629395,0.8623535,85.0
307,0.12176311,-0.080467224,-0.19818115,0.060534667,0.19222413,0.98448485,85.0
308,-0.48145914,0.1964798,-0.43670654,0.060534667,0.19222413,0.98448485,85.0
309,-0.48145914,0.1964798,-0.43670654,0.13381349,0.2262085,1.088562,85.0
310,-1.1862416,0.49446106,-0.712204,0.13381349,0.2262085,1.088562,85.0
311,-1.1862416,0.49446106,-0.712204,0.26019287,0.27293703,1.0981201,85.0
312,-1.7646306,0.76047516,-0.8691559,0.26019287,0.27293703,1.0981201,85.0
313,-1.7646306,0.76047516,-0.8691559,0.38763428,0.32497558,1.0301514,85.0
314,-2.0710795,0.9307556,-0.84892654,0.38763428,0.32497558,1.0301514,85.0
315,-2.0710795,0.9307556,-0.84892654,0.4354248,0.3812622,0.9228882,85.0
316,-2.152286,0.94516754,-0.7175331,0.4354248,0.3812622,0.9228882,85.0
317,-2.152286,0.94516754,-0.7175331,0.40993652,0.40250245,0.80606693,85.0
318,-2.106741,0.7694397,-0.54838943,0.40993652,0.40250245,0.80606693,85.0
319,-2.106741,0.7694397,-0.54838943,0.34940186,0.3791382,0.6796875,85.0
320,-2.106741,0.7694397,-0.54838943,0.34940186,0.3791382,0.6796875,85.0
321,-1.9514451,0.45129395,-0.38050842,0.34940186,0.3791382,0.6796875,85.0
322,-1.9514451,0.45129395,-0.38050842,0.2782471,0.32178956,0.5777344,85.0
323,-1.6718616,0.1293335,-0.2101326,0.2782471,0.32178956,0.5777344,85.0
324,-1.6718616,0.1293335,-0.2101326,0.20072022,0.23789063,0.4959595,85.0
325,-1.2787857,-0.1031723,-0.036842346,0.20072022,0.23789063,0.4959595,85.0
326,-1.2787857,-0.1031723,-0.036842346,0.12531738,0.17416993,0.45772704,85.0
327,-0.8730774,-0.22392273,0.17049026,0.12531738,0.17416993,0.45772704,85.0
328,-0.8730774,-0.22392273,0.17049026,0.070092775,0.1359375,0.4715332,85.0
329,-0.5830078,-0.2394638,0.3686447,0.070092775,0.1359375,0.4715332,85.0
330,-0.5830078,-0.2394638,0.3686447,0.06478272,0.12531738,0.5171997,85.0
331,-0.4973631,-0.15525818,0.5036926,0.06478272,0.12531738,0.5171997,85.0
332,-0.4973631,-0.15525818,0.5036926,0.10195313,0.13487549,0.5787964,85.0
333,-0.61971664,0.017677307,0.60209656,0.10195313,0.13487549,0.5787964,85.0
334,-0.61971664,0.017677307,0.60209656,0.14868164,0.14761963,0.6180908,85.0
335,-0.84064627,0.21377563,0.706604,0.14868164,0.14761963,0.6180908,85.0
336,-0.84064627,0.21377563,0.706604,0.16992188,0.1720459,0.63826907,85.0
337,-1.0670724,0.30786133,0.82587814,0.16992188,0.1720459,0.63826907,85.0
338,-1.0670724,0.30786133,0.82587814,0.19116211,0.19222413,0.61278075,85.0
339,-1.2043047,0.2594223,0.97475433,0.19116211,0.19222413,0.61278075,85.0
340,-1.2043047,0.2594223,0.97475433,0.18160401,0.18479005,0.53737795,85.0
341,-1.1156778,0.07455444,1.1521645,0.18160401,0.18479005,0.53737795,85.0
342,-1.1156778,0.07455444,1.1521645,0.12319336,0.1901001,0.5033936,85.0
343,-0.8825326,-0.20593262,1.3129807,0.12319336,0.1901001,0.5033936,85.0
344,-0.8825326,-0.20593262,1.3129807,0.078588866,0.19753419,0.53525394,85.0
345,-0.7190509,-0.40450287,1.3700714,0.078588866,0.19753419,0.53525394,85.0
346,-0.7190509,-0.40450287,1.3700714,0.019116212,0.19434814,0.5522461,85.0
347,-0.58606815,-0.48268127,1.3312378,0.019116212,0.19434814,0.5522461,85.0
348,-0.58606815,-0.48268127,1.3312378,-0.121069334,0.040356446,0.46516114,85.0
349,-0.17345667,-0.6809845,1.3770866,-0.121069334,0.040356446,0.46516114,85.0
350,-0.17345667,-0.6809845,1.3770866,-0.23364258,-0.057348635,0.4800293,85.0
351,0.39885712,-1.1236954,1.5064316,-0.23364258,-0.057348635,0.4800293,85.0
352,0.39885712,-1.1236954,1.5064316,-0.16885987,-0.10195313,0.62552494,85.0
353,0.5798645,-1.4705658,1.3918381,-0.16885987,-0.10195313,0.62552494,85.0
354,0.5798645,-1.4705658,1.3918381,0.08920898,-0.06584473,0.84748536,85.0
355,0.13741446,-1.2190094,0.8112335,0.08920898,-0.06584473,0.84748536,85.0
356,0.13741446,-1.2190094,0.8112335,0.39506838,0.043542482,1.0227174,85.0
357,-0.6533618,-0.5072861,0.042297363,0.39506838,0.043542482,1.0227174,85.0
358,-0.6533618,-0.5072861,0.042297363,0.5777344,0.04248047,0.99298096,85.0
359,-1.073019,0.0047302246,-0.3927002,0.5777344,0.04248047,0.99298096,85.0
360,-1.073019,0.0047302246,-0.3927002,0.631897,-0.0031860352,0.89102787,85.0
361,-0.73032665,0.043251038,-0.34075928,0.631897,-0.0031860352,0.89102787,85.0
362,-0.73032665,0.043251038,-0.34075928,0.6966797,0.03186035,0.85598147,85.0
363,-0.117293835,-0.04094696,-0.16587067,0.6966797,0.03186035,0.85598147,85.0
364,-0.117293835,-0.04094696,-0.16587067,0.73809814,0.13062744,0.86978763,85.0
365,0.12568378,0.1813736,-0.31703568,0.73809814,0.13062744,0.86978763,85.0
366,0.12568378,0.1813736,-0.31703568,0.632959,0.20921631,0.87403566,85.0
367,-0.12539291,0.6105652,-0.79237366,0.632959,0.20921631,0.87403566,85.0
368,-0.12539291,0.6105652,-0.79237366,0.4619751,0.26337892,0.8963379,85.0
369,-0.5958953,0.8878555,-1.3171883,0.4619751,0.26337892,0.8963379,85.0
370,-0.5958953,0.8878555,-1.3171883,0.37382814,0.29630128,0.9303223,85.0
371,-1.0482492,0.9482727,-1.6601257,0.37382814,0.29630128,0.9303223,85.0
372,-1.0482492,0.9482727,-1.6601257,0.4364868,0.31223145,0.95368654,85.0
373,-1.4020147,1.040451,-1.7605591,0.4364868,0.31223145,0.95368654,85.0
374,-1.4020147,1.040451,-1.7605591,0.5278198,0.29630128,0.9197022,85.0
375,-1.6284723,1.3107758,-1.6160774,0.5278198,0.29630128,0.9197022,85.0
376,-1.6284723,1.3107758,-1.6160774,0.5097656,0.25063476,0.8219971,85.0
377,-1.705122,1.573204,-1.3074608,0.5097656,0.25063476,0.8219971,85.0
378,-1.705122,1.573204,-1.3074608,0.4078125,0.18266602,0.6903076,85.0
379,-1.6007195,1.583992,-0.95059204,0.4078125,0.18266602,0.6903076,85.0
380,-1.6007195,1.583992,-0.95059204,0.3069214,0.093457036,0.5363159,85.0
381,-1.296957,1.3094406,-0.65506744,0.3069214,0.093457036,0.5363159,85.0
382,-1.296957,1.3094406,-0.65506744,0.24001466,0.008496094,0.3791382,85.0
383,-0.8522997,0.96739197,-0.38258743,0.24001466,0.008496094,0.3791382,85.0
384,-0.8522997,0.96739197,-0.38258743,0.17947999,-0.03186035,0.26444092,85.0
385,-0.37435722,0.77679443,-0.012527466,0.17947999,-0.03186035,0.26444092,85.0
386,-0.37435722,0.77679443,-0.012527466,0.11682129,-0.039294433,0.17416993,85.0
387,0.028370857,0.67266846,0.3646965,0.11682129,-0.039294433,0.17416993,85.0
388,0.028370857,0.67266846,0.3646965,0.07327881,-0.016992187,0.06690674,85.0
389,0.36061192,0.4545288,0.62329865,0.07327881,-0.016992187,0.06690674,85.0
390,0.36061192,0.4545288,0.62329865,0.078588866,-0.023364259,-0.07327881,85.0
391,0.7950573,0.15940094,0.81160355,0.078588866,-0.023364259,-0.07327881,85.0
392,0.7950573,0.15940094,0.81160355,0.12213135,-0.014868164,-0.17947999,85.0
393,1.1922722,0.042816162,0.9729538,0.12213135,-0.014868164,-0.17947999,85.0
394,1.1922722,0.042816162,0.9729538,0.07646485,0.014868164,-0.22514649,85.0
395,1.144064,0.16043854,1.0135651,0.07646485,0.014868164,-0.22514649,85.0
396,1.144064,0.16043854,1.0135651,-0.025488282,-0.014868164,-0.2824951,85.0
397,0.68262196,0.2451706,0.9503555,-0.025488282,-0.014868164,-0.2824951,85.0
398,0.68262196,0.2451706,0.9503555,-0.271875,-0.2442627,-0.51188964,85.0
399,0.567399,0.01714325,1.0387268,-0.271875,-0.2442627,-0.51188964,85.0
400,0.567399,0.01714325,1.0387268,-0.55755615,-0.53525394,-0.70198977,85.0
401,1.2098026,-0.4890442,1.365345,-0.55755615,-0.53525394,-0.70198977,85.0
402,1.2098026,-0.4890442,1.365345,-0.7338501,-0.63933104,-0.59897465,85.0
403,1.9089184,-0.8590088,1.535965,-0.7338501,-0.63933104,-0.59897465,85.0
404,1.9089184,-0.8590088,1.535965,-0.71791995,-0.61278075,-0.4067505,85.0
405,1.8841171,-0.7705307,1.0980835,-0.71791995,-0.61278075,-0.4067505,85.0
406,1.8841171,-0.7705307,1.0980835,-0.4885254,-0.38657227,-0.27718505,85.0
407,1.1887512,-0.36032104,0.25918198,-0.4885254,-0.38657227,-0.27718505,85.0
408,1.1887512,-0.36032104,0.25918198,-0.26975098,-0.23895264,-0.4088745,85.0
409,0.61157227,-0.03362274,-0.36190414,-0.26975098,-0.23895264,-0.4088745,85.0
410,0.61157227,-0.03362274,-0.36190414,-0.3334717,-0.15186767,-0.5787964,85.0
411,0.5661254,-0.08505249,-0.4682579,-0.3334717,-0.15186767,-0.5787964,85.0
412,0.5661254,-0.08505249,-0.4682579,-0.43861085,-0.045666505,-0.64782715,85.0
413,0.63836193,-0.35902405,-0.36064148,-0.43861085,-0.045666505,-0.64782715,85.0
414,0.63836193,-0.35902405,-0.36064148,-0.5246338,0.04248047,-0.63826907,85.0
415,0.40496445,-0.4941864,-0.4689331,-0.5246338,0.04248047,-0.63826907,85.0
416,0.40496445,-0.4941864,-0.4689331,-0.5543701,0.10089111,-0.60322267,85.0
417,-0.16870403,-0.39272308,-0.8797226,-0.5543701,0.10089111,-0.60322267,85.0
418,-0.16870403,-0.39272308,-0.8797226,-0.59047854,0.1263794,-0.54693604,85.0
419,-0.7891989,-0.3031311,-1.3230782,-0.59047854,0.1263794,-0.54693604,85.0
420,-0.7891989,-0.3031311,-1.3230782,-0.58410645,0.14018555,-0.47578126,85.0
421,-1.1697745,-0.33355713,-1.5364304,-0.58410645,0.14018555,-0.47578126,85.0
422,-1.1697745,-0.33355713,-1.5364304,-0.45029297,0.15611573,-0.42905274,85.0
423,-1.2540936,-0.32963562,-1.4911575,-0.45029297,0.15611573,-0.42905274,85.0
424,-1.2540936,-0.32963562,-1.4911575,-0.30479738,0.18479005,-0.43861085,85.0
425,-1.1163855,-0.18564606,-1.3045235,-0.30479738,0.18479005,-0.43861085,85.0
426,-1.1163855,-0.18564606,-1.3045235,-0.28568116,0.21027832,-0.4694092,85.0
427,-0.84865,-0.047554016,-1.1324615,-0.28568116,0.21027832,-0.4694092,85.0
428,-0.84865,-0.047554016,-1.1324615,-0.35895997,0.21877442,-0.46516114,85.0
429,-0.56637096,-0.10242462,-1.0321541,-0.35895997,0.21877442,-0.46516114,85.0
430,-0.56637096,-0.10242462,-1.0321541,-0.4428589,0.20284425,-0.44710693,85.0
431,-0.38738632,-0.33461,-0.9102707,-0.4428589,0.20284425,-0.44710693,85.0
432,-0.38738632,-0.33461,-0.9102707,-0.4428589,0.20284425,-0.44710693,87.0
433,-0.38738632,-0.33461,-0.9102707,-0.47896728,0.15505372,-0.40250245,87.0
434,-0.33122253,-0.5541458,-0.6601143,-0.47896728,0.15505372,-0.40250245,87.0
435,-0.33122253,-0.5541458,-0.6601143,-0.4704712,0.09451904,-0.3355957,87.0
436,-0.33974648,-0.59298706,-0.3797493,-0.4704712,0.09451904,-0.3355957,87.0
437,-0.33974648,-0.59298706,-0.3797493,-0.4715332,0.035046387,-0.2357666,87.0
438,-0.37400627,-0.49062347,-0.23474503,-0.4715332,0.035046387,-0.2357666,87.0
439,-0.37400627,-0.49062347,-0.23474503,-0.4725952,0.004248047,-0.11363526,87.0
440,-0.41211987,-0.4435501,-0.21526337,-0.4725952,0.004248047,-0.11363526,87.0
441,-0.41211987,-0.4435501,-0.21526337,-0.42374268,-0.045666505,-0.07115479,87.0
442,-0.31166553,-0.4701004,-0.15723419,-0.42374268,-0.045666505,-0.07115479,87.0
443,-0.31166553,-0.4701004,-0.15723419,-0.40144044,-0.10938721,-0.11469727,87.0
444,-0.036294937,-0.50792694,0.048332214,-0.40144044,-0.10938721,-0.11469727,87.0
445,-0.036294937,-0.50792694,0.048332214,-0.4694092,-0.19434814,-0.16885987,87.0
446,0.33114433,-0.605217,0.28605652,-0.4694092,-0.19434814,-0.16885987,87.0
447,0.33114433,-0.605217,0.28605652,-0.66588134,-0.33771974,-0.23045655,87.0
448,0.7512684,-0.8625183,0.40314865,-0.66588134,-0.33771974,-0.23045655,87.0
449,0.7512684,-0.8625183,0.40314865,-0.91757816,-0.56605226,-0.31966552,87.0
450,1.2339497,-1.2807617,0.5089073,-0.91757816,-0.56605226,-0.31966552,87.0
451,1.2339497,-1.2807617,0.5089073,-1.0864381,-0.8007569,-0.37382814,87.0
452,1.6703873,-1.6258545,0.64233017,-1.0864381,-0.8007569,-0.37382814,87.0
453,1.6703873,-1.6258545,0.64233017,-1.174585,-0.9855469,-0.3419678,87.0
454,1.9097962,-1.8812485,0.6531601,-1.174585,-0.9855469,-0.3419678,87.0
455,1.9097962,-1.8812485,0.6531601,-1.1236085,-1.1597168,-0.32391357,87.0
456,2.0827198,-2.099762,0.5177574,-1.1236085,-1.1597168,-0.32391357,87.0
457,2.0827198,-2.099762,0.5177574,-0.9674927,-1.1682129,-0.23789063,87.0
458,2.1160536,-2.119339,0.32425308,-0.9674927,-1.1682129,-0.23789063,87.0
459,2.1160536,-2.119339,0.32425308,-0.79969484,-1.089624,-0.093457036,87.0
460,1.9071374,-1.8993149,0.20747375,-0.79969484,-1.089624,-0.093457036,87.0
461,1.9071374,-1.8993149,0.20747375,-0.6754395,-1.0556396,0.020178223,87.0
462,1.7116351,-1.5405197,0.18415451,-0.6754395,-1.0556396,0.020178223,87.0
463,1.7116351,-1.5405197,0.18415451,-0.63933104,-0.9876709,0.06690674,87.0
464,1.64432,-1.1729431,0.10910416,-0.63933104,-0.9876709,0.06690674,87.0
465,1.64432,-1.1729431,0.10910416,-0.6064087,-0.83898926,0.12319336,87.0
466,1.5009661,-0.79764557,-0.06819916,-0.6064087,-0.83898926,0.12319336,87.0
467,1.5009661,-0.79764557,-0.06819916,-0.5777344,-0.6860596,0.17523193,87.0
468,1.174088,-0.35359192,-0.2783661,-0.5777344,-0.6860596,0.17523193,87.0
469,1.174088,-0.35359192,-0.2783661,-0.5511841,-0.5331299,0.1720459,87.0
470,0.7462282,0.18925476,-0.53001785,-0.5511841,-0.5331299,0.1720459,87.0
471,0.7462282,0.18925476,-0.53001785,-0.55968016,-0.33984375,0.1359375,87.0
472,0.27281237,0.75323486,-0.91329575,-0.55968016,-0.33984375,0.1359375,87.0
473,0.27281237,0.75323486,-0.91329575,-0.631897,-0.14974366,0.07540283,87.0
474,-0.27552462,1.1537857,-1.3458595,-0.631897,-0.14974366,0.07540283,87.0
475,-0.27552462,1.1537857,-1.3458595,-0.5872925,0.0180542,0.032922365,87.0
476,-0.7541113,1.2935867,-1.6625748,-0.5872925,0.0180542,0.032922365,87.0
477,-0.7541113,1.2935867,-1.6625748,-0.41949463,0.17523193,-0.0722168,87.0
478,-1.0172296,1.2933884,-1.833271,-0.41949463,0.17523193,-0.0722168,87.0
479,-1.0172296,1.2933884,-1.833271,-0.2262085,0.34090576,-0.20603028,87.0
480,-1.1112204,1.2899857,-1.8808517,-0.2262085,0.34090576,-0.20603028,87.0
481,-1.1112204,1.2899857,-1.8808517,-0.1709839,0.45347902,-0.3971924,87.0
482,-1.1115351,1.2533035,-1.8286095,-0.1709839,0.45347902,-0.3971924,87.0
483,-1.1115351,1.2533035,-1.8286095,-0.25594482,0.48533937,-0.6425171,87.0
484,-1.0031438,1.059578,-1.752636,-0.25594482,0.48533937,-0.6425171,87.0
485,-1.0031438,1.059578,-1.752636,-0.4439209,0.4619751,-0.89846194,87.0
486,-0.76019335,0.70614624,-1.7193604,-0.4439209,0.4619751,-0.89846194,87.0
487,-0.76019335,0.70614624,-1.7193604,-0.69349366,0.36108398,-1.1437867,87.0
488,-0.3479495,0.39079285,-1.6959457,-0.69349366,0.36108398,-1.1437867,87.0
489,-0.3479495,0.39079285,-1.6959457,-1.0301514,0.20921631,-1.4050416,87.0
490,0.24968004,0.4285431,-1.8144836,-1.0301514,0.20921631,-1.4050416,87.0
491,0.24968004,0.4285431,-1.8144836,-1.5590333,0.06690674,-1.6949707,87.0
492,0.8985357,0.76971436,-2.3393059,-1.5590333,0.06690674,-1.6949707,87.0
493,0.8985357,0.76971436,-2.3393059,-2.2047365,-0.015930176,-2.0624268,87.0
494,1.3955498,0.70306396,-3.1314545,-2.2047365,-0.015930176,-2.0624268,87.0
495,1.3955498,0.70306396,-3.1314545,-2.6720216,-0.24638672,-2.3874023,87.0
496,1.8091764,0.13543701,-4.088894,-2.6720216,-0.24638672,-2.3874023,87.0
497,1.8091764,0.13543701,-4.088894,-3.2104614,-0.42374268,-2.7495484,87.0
498,2.4383569,-0.41893005,-5.1926117,-3.2104614,-0.42374268,-2.7495484,87.0
499,2.4383569,-0.41893005,-5.1926117,-3.725537,-0.6244629,-3.0490358,87.0
500,3.6474507,-0.8705673,-6.10973,-3.725537,-0.6244629,-3.0490358,87.0
501,3.6474507,-0.8705673,-6.10973,-4.173706,-0.6818115,-3.1998413,87.0
502,5.6021037,-1.0423279,-6.465618,-4.173706,-0.6818115,-3.1998413,87.0
503,5.6021037,-1.0423279,-6.465618,-4.7514405,-0.4885254,-3.3973756,87.0
504,7.4967957,-0.9429779,-5.879223,-4.7514405,-0.4885254,-3.3973756,87.0
505,7.4967957,-0.9429779,-5.879223,-5.41626,-0.38444826,-3.618274,87.0
506,8.555969,-0.8354645,-4.4862785,-5.41626,-0.38444826,-3.618274,87.0
507,8.555969,-0.8354645,-4.4862785,-6.080017,-0.79332274,-4.089807,87.0
508,9.05625,-0.7238388,-3.2281837,-6.080017,-0.79332274,-4.089807,87.0
509,9.05625,-0.7238388,-3.2281837,-6.5844727,-1.2446778,-4.9999514,87.0
510,9.05625,-0.7238388,-3.2281837,-6.5844727,-1.2446778,-4.9999514,86.0
511,8.779533,-0.36331177,-2.7675438,-6.5844727,-1.2446778,-4.9999514,86.0
512,8.779533,-0.36331177,-2.7675438,-6.615271,-1.724707,-5.6424685,86.0
513,7.428461,0.664917,-3.0736923,-6.615271,-1.724707,-5.6424685,86.0
514,7.428461,0.664917,-3.0736923,-6.3890624,-1.8468384,-6.001428,86.0
515,5.885542,2.3657074,-3.763153,-6.3890624,-1.8468384,-6.001428,86.0
516,5.885542,2.3657074,-3.763153,-6.0821414,-1.5590333,-6.0247927,86.0
517,4.978343,4.099098,-4.1965714,-6.0821414,-1.5590333,-6.0247927,86.0
518,4.978343,4.099098,-4.1965714,-5.5649414,-1.1246704,-5.8686767,86.0
519,4.327523,4.7834396,-3.8518143,-5.5649414,-1.1246704,-5.8686767,86.0
520,4.327523,4.7834396,-3.8518143,-4.3340697,-0.75296634,-5.066858,86.0
521,3.0450144,4.27845,-3.0674858,-4.3340697,-0.75296634,-5.066858,86.0
522,3.0450144,4.27845,-3.0674858,-2.980005,-0.5564942,-4.1535277,86.0
523,1.0147839,3.499115,-2.4399986,-2.980005,-0.5564942,-4.1535277,86.0
524,1.0147839,3.499115,-2.4399986,-1.9795898,-0.3175415,-3.260376,86.0
525,-1.4895763,2.9120712,-1.872263,-1.9795898,-0.3175415,-3.260376,86.0
526,-1.4895763,2.9120712,-1.872263,-1.3487549,-0.24001466,-2.6433473,86.0
527,-3.6684923,2.5297089,-1.0819168,-1.3487549,-0.24001466,-2.6433473,86.0
528,-3.6684923,2.5297089,-1.0819168,-1.1225464,-0.28674316,-2.0942872,86.0
529,-4.618778,2.2946396,-0.28124428,-1.1225464,-0.28674316,-2.0942872,86.0
530,-4.618778,2.2946396,-0.28124428,-1.0492676,-0.27506104,-1.6429322,86.0
531,-4.51044,2.1702347,0.13934708,-1.0492676,-0.27506104,-1.6429322,86.0
532,-4.51044,2.1702347,0.13934708,-1.0482056,-0.25913087,-1.3391968,86.0
533,-3.9084253,2.1450653,0.16103745,-1.0482056,-0.25913087,-1.3391968,86.0
534,-3.9084253,2.1450653,0.16103745,-1.1416626,-0.28780517,-1.1182984,86.0
535,-3.1072946,2.076477,0.027511597,-1.1416626,-0.28780517,-1.1182984,86.0
536,-3.1072946,2.076477,0.027511597,-1.2372437,-0.29948732,-0.97280276,86.0
537,-2.2401447,1.8185654,-0.04493332,-1.2372437,-0.29948732,-0.97280276,86.0
538,-2.2401447,1.8185654,-0.04493332,-1.2414917,-0.29099122,-0.9165161,86.0
539,-1.521132,1.4230423,0.018375397,-1.2414917,-0.29099122,-0.9165161,86.0
540,-1.521132,1.4230423,0.018375397,-1.1597168,-0.29523927,-0.97280276,86.0
541,-1.0990586,0.98857117,0.19216537,-1.1597168,-0.29523927,-0.97280276,86.0
542,-1.0990586,0.98857117,0.19216537,-1.0227174,-0.3090454,-1.075818,86.0
543,-1.0321035,0.571434,0.45905495,-1.0227174,-0.3090454,-1.075818,86.0
544,-1.0321035,0.571434,0.45905495,-0.8602295,-0.32285157,-1.1331666,86.0
545,-1.2570181,0.282341,0.7330532,-0.8602295,-0.32285157,-1.1331666,86.0
546,-1.2570181,0.282341,0.7330532,-0.7189819,-0.35471192,-1.0906861,86.0
547,-1.5591788,0.2771759,0.9767494,-0.7189819,-0.35471192,-1.0906861,86.0
548,-1.5591788,0.2771759,0.9767494,-0.7147339,-0.41312256,-0.92713624,86.0
549,-1.5742965,0.41448975,1.127224,-0.7147339,-0.41312256,-0.92713624,86.0
550,-1.5742965,0.41448975,1.127224,-0.71579593,-0.46409914,-0.6669434,86.0
551,-1.0489392,0.40248108,1.0269012,-0.71579593,-0.46409914,-0.6669434,86.0
552,-1.0489392,0.40248108,1.0269012,-0.52675784,-0.5012695,-0.35152587,86.0
553,-0.06636095,0.2935562,0.66898346,-0.52675784,-0.5012695,-0.35152587,86.0
554,-0.06636095,0.2935562,0.66898346,-0.23258057,-0.5214478,0.04991455,86.0
555,0.9746332,0.31923676,0.19810104,-0.23258057,-0.5214478,0.04991455,86.0
556,0.9746332,0.31923676,0.19810104,-0.010620117,-0.54587406,0.52675784,86.0
557,1.8166575,0.48825073,-0.17950821,-0.010620117,-0.54587406,0.52675784,86.0
558,1.8166575,0.48825073,-0.17950821,0.1178833,-0.56817627,1.1066163,86.0
559,2.5368586,0.6940079,-0.3234024,0.1178833,-0.56817627,1.1066163,86.0
560,2.5368586,0.6940079,-0.3234024,0.1996582,-0.540564,1.6705445,86.0
561,2.8824291,0.7603073,-0.23497772,0.1996582,-0.540564,1.6705445,86.0
562,2.8824291,0.7603073,-0.23497772,0.28780517,-0.46516114,2.1962402,86.0
563,2.574266,0.606514,-0.048282623,0.28780517,-0.46516114,2.1962402,86.0
564,2.574266,0.606514,-0.048282623,0.41737062,-0.4333008,2.6475952,86.0
565,1.9703388,0.31440735,0.040096283,0.41737062,-0.4333008,2.6475952,86.0
566,1.9703388,0.31440735,0.040096283,0.64995116,-0.39294434,3.0405395,86.0
567,1.6472797,-0.13700104,-0.07639313,0.64995116,-0.39294434,3.0405395,86.0
568,1.6472797,-0.13700104,-0.07639313,0.9674927,-0.35152587,3.4642823,86.0
569,2.0293102,-0.5689392,-0.37664032,0.9674927,-0.35152587,3.4642823,86.0
570,2.0293102,-0.5689392,-0.37664032,1.3498169,-0.28674316,3.886963,86.0
571,2.92235,-0.6453018,-0.80496216,1.3498169,-0.28674316,3.886963,86.0
572,2.92235,-0.6453018,-0.80496216,1.7671875,-0.20178223,4.2119384,86.0
573,3.4927874,-0.6128845,-1.1940689,1.7671875,-0.20178223,4.2119384,86.0
574,3.4927874,-0.6128845,-1.1940689,2.53396,-0.026550293,4.450891,86.0
575,3.1482458,-0.932106,-1.3396072,2.53396,-0.026550293,4.450891,86.0
576,3.1482458,-0.932106,-1.3396072,3.4749024,0.18691407,4.6431155,86.0
577,1.9946833,-1.4333344,-1.1974564,3.4749024,0.18691407,4.6431155,86.0
578,1.9946833,-1.4333344,-1.1974564,4.1768923,0.45347902,4.596387,86.0
579,0.33043957,-1.8334961,-0.80550003,4.1768923,0.45347902,4.596387,86.0
580,0.33043957,-1.8334961,-0.80550003,4.234241,0.6425171,4.3829226,86.0
581,-1.4690714,-2.1268463,-0.28445244,4.234241,0.6425171,4.3829226,86.0
582,-1.4690714,-2.1268463,-0.28445244,3.5768554,0.7327881,4.0855594,86.0
583,-2.957777,-2.3058853,0.21308899,3.5768554,0.7327881,4.0855594,86.0
584,-2.957777,-2.3058853,0.21308899,2.7060058,0.7455322,3.7478395,86.0
585,-3.8282948,-2.3282394,0.58210564,2.7060058,0.7455322,3.7478395,86.0
586,-3.8282948,-2.3282394,0.58210564,2.071985,0.72960204,3.3920655,86.0
587,-4.0921526,-2.1464386,0.73607063,2.071985,0.72960204,3.3920655,86.0
588,-4.0921526,-2.1464386,0.73607063,1.5059327,0.7349121,3.0065553,86.0
589,-3.9519567,-1.9887695,0.6487446,1.5059327,0.7349121,3.0065553,86.0
590,-3.9519567,-1.9887695,0.6487446,1.1406006,0.7827026,2.6582153,86.0
591,-3.5821223,-2.0252686,0.4407978,1.1406006,0.7827026,2.6582153,86.0
592,-3.5821223,-2.0252686,0.4407978,1.1013062,0.8421753,2.2907593,86.0
593,-3.1300163,-2.0126495,0.25798416,1.1013062,0.8421753,2.2907593,86.0
594,-3.1300163,-2.0126495,0.25798416,1.1204224,0.92713624,1.9179932,86.0
595,-2.6733494,-1.8008881,0.19028473,1.1204224,0.92713624,1.9179932,86.0
596,-2.6733494,-1.8008881,0.19028473,1.1013062,1.0205933,1.5717773,86.0
597,-2.2397413,-1.4364243,0.24670029,1.1013062,1.0205933,1.5717773,86.0
598,-2.2397413,-1.4364243,0.24670029,0.9759888,1.0917481,1.2383057,86.0
599,-1.8649616,-1.0113449,0.3488617,0.9759888,1.0917481,1.2383057,86.0
600,-1.8649616,-1.0113449,0.3488617,0.7657105,1.1246704,0.9239502,86.0
601,-1.5254288,-0.63619995,0.41971588,0.7657105,1.1246704,0.9239502,86.0
602,-1.5254288,-0.63619995,0.41971588,0.4439209,1.1098022,0.62127686,86.0
603,-1.0859799,-0.3882904,0.37190628,0.4439209,1.1098022,0.62127686,86.0
604,-1.0859799,-0.3882904,0.37190628,0.05522461,1.0312134,0.29630128,86.0
605,-0.39247775,-0.27317047,0.16873932,0.05522461,1.0312134,0.29630128,86.0
606,-0.39247775,-0.27317047,0.16873932,-0.3525879,0.903772,-0.040356446,86.0
607,0.36837864,-0.23356628,-0.101387024,-0.3525879,0.903772,-0.040356446,86.0
608,0.36837864,-0.23356628,-0.101387024,-0.7306641,0.721106,-0.41524658,86.0
609,0.83762264,-0.14628601,-0.24990845,-0.7306641,0.721106,-0.41524658,86.0
610,0.83762264,-0.14628601,-0.24990845,-1.083252,0.38551027,-0.8527954,86.0
611,1.0930963,0.010765076,-0.24393463,-1.083252,0.38551027,-0.8527954,86.0
612,1.0930963,0.010765076,-0.24393463,-1.3137085,-0.047790527,-1.350879,86.0
613,1.3056293,0.18016815,-0.211689,-1.3137085,-0.047790527,-1.350879,86.0
614,1.3056293,0.18016815,-0.211689,-1.4241577,-0.5161377,-1.991272,86.0
615,1.3056293,0.18016815,-0.211689,-1.4241577,-0.5161377,-1.991272,86.0
616,1.4486537,0.33782196,-0.20270157,-1.4241577,-0.5161377,-1.991272,86.0
617,1.4486537,0.33782196,-0.20270157,-1.5123047,-0.9611206,-2.6975098,86.0
618,1.4884152,0.44243622,-0.24169159,-1.5123047,-0.9611206,-2.6975098,86.0
619,1.4884152,0.44243622,-0.24169159,-1.6195679,-1.3349488,-3.443042,86.0
620,1.3897557,0.5166931,-0.20657349,-1.6195679,-1.3349488,-3.443042,86.0
621,1.3897557,0.5166931,-0.20657349,-1.7533814,-1.6078857,-4.0122805,86.0
622,1.3702884,0.6563721,0.20080566,-1.7533814,-1.6078857,-4.0122805,86.0
623,1.3702884,0.6563721,0.20080566,-1.7438233,-1.7650635,-4.4126587,86.0
624,1.8185816,0.80480194,0.8418579,-1.7438233,-1.7650635,-4.4126587,86.0
625,1.8185816,0.80480194,0.8418579,-1.3880494,-1.9211792,-4.6728516,86.0
626,2.7912054,0.91558075,1.09618,-1.3880494,-1.9211792,-4.6728516,86.0
627,2.7912054,0.91558075,1.09618,-0.87191164,-2.1123414,-4.786487,86.0
628,3.9220276,1.1361618,0.49501038,-0.87191164,-2.1123414,-4.786487,86.0
629,3.9220276,1.1361618,0.49501038,-0.44179687,-2.18031,-4.7694945,86.0
630,4.626026,1.5758591,-0.85341644,-0.44179687,-2.18031,-4.7694945,86.0
631,4.626026,1.5758591,-0.85341644,-0.35895997,-1.8680786,-4.6601076,86.0
632,4.3910675,2.068222,-2.1117134,-0.35895997,-1.8680786,-4.6601076,86.0
633,4.3910675,2.068222,-2.1117134,-0.57242435,-1.2914063,-4.421155,86.0
634,3.037365,2.2692642,-2.3461323,-0.57242435,-1.2914063,-4.421155,86.0
635,3.037365,2.2692642,-2.3461323,-0.9239502,-0.76358646,-4.054761,86.0
636,0.90104675,2.1508255,-1.3722916,-0.9239502,-0.76358646,-4.054761,86.0
637,0.90104675,2.1508255,-1.3722916,-1.5059327,-0.4991455,-3.5864136,86.0
638,-1.2850094,1.9260559,0.10602379,-1.5059327,-0.4991455,-3.5864136,86.0
639,-1.2850094,1.9260559,0.10602379,-2.1027832,-0.5065796,-3.09364,86.0
640,-2.8363085,1.6538696,1.2396908,-2.1027832,-0.5065796,-3.09364,86.0
641,-2.8363085,1.6538696,1.2396908,-2.529712,-0.5883545,-2.7251222,86.0
642,-3.4950848,1.2835312,1.6036186,-2.529712,-0.5883545,-2.7251222,86.0
643,-3.4950848,1.2835312,1.6036186,-2.6783936,-0.6287109,-2.4489992,86.0
644,-3.4999495,0.87828827,1.2463455,-2.6783936,-0.6287109,-2.4489992,86.0
645,-3.4999495,0.87828827,1.2463455,-2.5084717,-0.5586182,-2.2111084,86.0
646,-3.1044397,0.8653412,0.8557167,-2.5084717,-0.5586182,-2.2111084,86.0
647,-3.1044397,0.8653412,0.8557167,-2.356604,-0.4959595,-2.1155274,86.0
648,-2.6497993,0.58477783,-0.037166595,-2.356604,-0.4959595,-2.1155274,86.0
649,-2.6497993,0.58477783,-0.037166595,-1.7799317,-0.26550293,-1.8882569,86.0
650,-2.2038116,0.65431976,-0.10695648,-1.7799317,-0.26550293,-1.8882569,86.0
651,-2.2038116,0.65431976,-0.10695648,-1.5792115,-0.17629395,-1.8213501,86.0
652,-1.7881346,0.37098694,-0.15241241,-1.5792115,-0.17629395,-1.8213501,86.0
653,-1.7881346,0.37098694,-0.15241241,-1.0057251,0.04248047,-1.621692,86.0
654,-1.6141262,0.3268051,-0.01782608,-1.0057251,0.04248047,-1.621692,86.0
655,-1.6141262,0.3268051,-0.01782608,-0.84111327,0.08814698,-1.537793,86.0
656,-1.9255052,0.10321808,0.23570251,-0.84111327,0.08814698,-1.537793,86.0
657,-1.9255052,0.10321808,0.23570251,-0.5140137,0.1274414,-1.1692749,86.0
658,-1.7457266,0.115608215,0.32085037,-0.5140137,0.1274414,-1.1692749,86.0
659,-1.7457266,0.115608215,0.32085037,-0.41949463,0.12319336,-1.0120972,86.0
660,-1.2299795,-0.09197235,0.5694618,-0.41949463,0.12319336,-1.0120972,86.0
661,-1.2299795,-0.09197235,0.5694618,-0.026550293,0.078588866,-0.40144044,86.0
662,-0.68854904,-0.15019989,0.46072006,-0.026550293,0.078588866,-0.40144044,86.0
663,-0.68854904,-0.15019989,0.46072006,0.13381349,0.052038576,-0.14230958,86.0
664,1.2220125,-0.04585266,-0.20770645,0.13381349,0.052038576,-0.14230958,86.0
665,1.2220125,-0.04585266,-0.20770645,0.631897,0.038232423,0.7455322,86.0
666,1.7996435,0.017700195,-0.5535927,0.631897,0.038232423,0.7455322,86.0
667,1.7996435,0.017700195,-0.5535927,0.8071289,0.0637207,1.080066,86.0
668,3.0121636,0.70827484,-1.2544708,0.8071289,0.0637207,1.080066,86.0
669,3.0121636,0.70827484,-1.2544708,1.2266235,0.14655761,2.088977,86.0
670,2.6742573,0.6707611,-1.1647587,1.2266235,0.14655761,2.088977,86.0
671,2.6742573,0.6707611,-1.1647587,1.2956543,0.17416993,2.3948364,86.0
672,1.7546768,1.1743622,-0.873127,1.2956543,0.17416993,2.3948364,86.0
673,1.7546768,1.1743622,-0.873127,1.3965454,0.24638672,3.2306397,86.0
674,1.3516784,0.8066635,-0.6691551,1.3965454,0.24638672,3.2306397,86.0
675,1.3516784,0.8066635,-0.6691551,1.4220337,0.2548828,3.4780884,86.0
676,1.1278639,0.56588745,-0.43223572,1.4220337,0.2548828,3.4780884,86.0
677,1.1278639,0.56588745,-0.43223572,1.4645141,0.30479738,3.9209473,86.0
678,1.931551,0.22377014,-0.4782219,1.4645141,0.30479738,3.9209473,86.0
679,1.931551,0.22377014,-0.4782219,1.5717773,0.37489015,4.265039,86.0
680,3.5590467,-0.0728302,-0.9300022,1.5717773,0.37489015,4.265039,86.0
681,3.5590467,-0.0728302,-0.9300022,1.7406372,0.4800293,4.4933715,86.0
682,4.867647,-0.33449554,-1.3983841,1.7406372,0.4800293,4.4933715,86.0
683,4.867647,-0.33449554,-1.3983841,2.167566,0.64782715,4.592139,86.0
684,4.3620625,-0.6038742,-1.2547188,2.167566,0.64782715,4.592139,86.0
685,4.3620625,-0.6038742,-1.2547188,3.2932985,0.8878418,4.4062867,86.0
686,-0.42974758,6.940384,3.359604,3.2932985,0.8878418,4.4062867,86.0
687,-0.42974758,6.940384,3.359604,3.6363282,0.9483765,4.263977,86.0
688,-1.5346184,5.429123,2.4408092,3.6363282,0.9483765,4.263977,86.0
689,-1.5346184,5.429123,2.4408092,3.7743897,0.92926025,3.8901489,86.0
690,-2.6873016,4.1778336,1.6975822,3.7743897,0.92926025,3.8901489,86.0
691,-2.6873016,4.1778336,1.6975822,3.175415,0.8400513,3.5099487,86.0
692,-3.3628902,3.1032524,1.1219559,3.175415,0.8400513,3.5099487,86.0
693,-3.3628902,3.1032524,1.1219559,2.3980224,0.72323,3.1255004,86.0
694,-3.5528126,2.2511559,0.8244324,2.3980224,0.72323,3.1255004,86.0
695,-3.5528126,2.2511559,0.8244324,1.6885986,0.5894165,2.7346802,86.0
696,-3.3994646,1.6142197,0.7389412,1.6885986,0.5894165,2.7346802,86.0
697,-3.3994646,1.6142197,0.7389412,1.1161743,0.46622315,2.353418,86.0
698,-3.1055455,1.0645447,0.7275772,1.1161743,0.46622315,2.353418,86.0
699,-3.1055455,1.0645447,0.7275772,0.75721437,0.37701416,1.9827759,86.0
700,-2.7647343,0.42197418,0.61066055,0.75721437,0.37701416,1.9827759,86.0
701,-2.7647343,0.42197418,0.61066055,0.72960204,0.3355957,1.630188,86.0
702,-2.4307814,-0.20167542,0.38771057,0.72960204,0.3355957,1.630188,86.0
703,-2.4307814,-0.20167542,0.38771057,0.9228882,0.3525879,1.3062744,86.0
704,-2.0843954,-0.5664902,0.12164307,0.9228882,0.3525879,1.3062744,86.0
705,-2.0843954,-0.5664902,0.12164307,1.1246704,0.38338622,1.0312134,86.0
706,-1.7239251,-0.5989456,-0.14461517,1.1246704,0.38338622,1.0312134,86.0
707,-1.7239251,-0.5989456,-0.14461517,1.2053833,0.44179687,0.7986328,86.0
708,-1.2558613,-0.43203735,-0.28092575,1.2053833,0.44179687,0.7986328,86.0
709,-1.2558613,-0.43203735,-0.28092575,1.1597168,0.5161377,0.5979126,86.0
710,-0.642848,-0.21310806,-0.24601746,1.1597168,0.5161377,0.5979126,86.0
711,-0.642848,-0.21310806,-0.24601746,0.95368654,0.58304447,0.42374268,86.0
712,0.08268213,-0.040225983,-0.15922928,0.95368654,0.58304447,0.42374268,86.0
713,0.08268213,-0.040225983,-0.15922928,0.62764895,0.6202149,0.2442627,86.0
714,0.8474083,0.05789566,-0.1719017,0.62764895,0.6202149,0.2442627,86.0
715,0.8474083,0.05789566,-0.1719017,0.19116211,0.60959476,0.04141846,86.0
716,0.8474083,0.05789566,-0.1719017,0.19116211,0.60959476,0.04141846,86.0
717,1.472702,0.09225464,-0.25519562,0.19116211,0.60959476,0.04141846,86.0
718,1.472702,0.09225464,-0.25519562,-0.30479738,0.52250975,-0.1985962,86.0
719,1.7289796,0.099487305,-0.22481155,-0.30479738,0.52250975,-0.1985962,86.0
720,1.7289796,0.099487305,-0.22481155,-0.7126099,0.30373535,-0.48215333,86.0
721,1.7234793,0.13681793,-0.036003113,-0.7126099,0.30373535,-0.48215333,86.0
722,1.7234793,0.13681793,-0.036003113,-0.9802368,-0.021240234,-0.8602295,86.0
723,1.6636348,0.20225143,0.11552048,-0.9802368,-0.021240234,-0.8602295,86.0
724,1.6636348,0.20225143,0.11552048,-1.1905152,-0.4163086,-1.4007934,86.0
725,1.4792719,0.25094986,0.13882828,-1.1905152,-0.4163086,-1.4007934,86.0
726,1.4792719,0.25094986,0.13882828,-1.4061035,-0.79969484,-2.085791,86.0
727,0.868989,0.21459198,0.21278381,-1.4061035,-0.79969484,-2.085791,86.0
728,0.868989,0.21459198,0.21278381,-1.6726685,-1.1682129,-2.8185792,86.0
729,-0.41674757,0.033432007,0.68785477,-1.6726685,-1.1682129,-2.8185792,86.0
730,-0.41674757,0.033432007,0.68785477,-1.8712647,-1.4687623,-3.3315308,86.0
731,-1.8158078,-0.189682,1.6701698,-1.8712647,-1.4687623,-3.3315308,86.0
732,-1.8158078,-0.189682,1.6701698,-1.8011719,-1.6461182,-3.615088,86.0
733,-2.337253,-0.38787842,2.7118454,-1.8011719,-1.6461182,-3.615088,86.0
734,-2.337253,-0.38787842,2.7118454,-1.2797241,-1.7831177,-3.722351,86.0
735,-1.7199736,-0.49061584,3.017437,-1.2797241,-1.7831177,-3.722351,86.0
736,-1.7199736,-0.49061584,3.017437,-0.45560303,-1.9679078,-3.703235,86.0
737,-0.49299526,-0.2987671,2.0486526,-0.45560303,-1.9679078,-3.703235,86.0
738,-0.49299526,-0.2987671,2.0486526,0.16461182,-1.993396,-3.5630493,86.0
739,0.7281747,0.282238,0.22296906,0.16461182,-1.993396,-3.5630493,86.0
740,0.7281747,0.282238,0.22296906,0.37595215,-1.7045288,-3.3665771,86.0
741,1.4076495,0.9685974,-1.3309135,0.37595215,-1.7045288,-3.3665771,86.0
742,1.4076495,0.9685974,-1.3309135,0.13806152,-1.1522827,-3.1074464,86.0
743,1.0004358,1.3067856,-1.6312218,0.13806152,-1.1522827,-3.1074464,86.0
744,1.0004358,1.3067856,-1.6312218,-0.50870365,-0.59472656,-2.788843,86.0
745,-0.5945611,1.0724564,-0.52934265,-0.50870365,-0.59472656,-2.788843,86.0
746,-0.5945611,1.0724564,-0.52934265,-1.4230957,-0.30373535,-2.3969605,86.0
747,-2.5669456,0.44065475,1.2125969,-1.4230957,-0.30373535,-2.3969605,86.0
748,-2.5669456,0.44065475,1.2125969,-2.3045654,-0.3175415,-2.0539308,86.0
749,-3.9502482,-0.3576355,2.6323586,-2.3045654,-0.3175415,-2.0539308,86.0
750,-3.9502482,-0.3576355,2.6323586,-2.7750366,-0.4598511,-1.7788696,86.0
751,-4.5527525,-1.1513062,3.1639671,-2.7750366,-0.4598511,-1.7788696,86.0
752,-4.5527525,-1.1513062,3.1639671,-2.5881226,-0.5384399,-1.5930176,86.0
753,-4.5695095,-1.614357,2.7579079,-2.5881226,-0.5384399,-1.5930176,86.0
754,-4.5695095,-1.614357,2.7579079,-2.0241945,-0.5214478,-1.5027466,86.0
755,-4.1447434,-1.5610046,1.8757095,-2.0241945,-0.5214478,-1.5027466,86.0
756,-4.1447434,-1.5610046,1.8757095,-1.3901733,-0.4725952,-1.4156617,86.0
757,-3.4385364,-1.2241364,1.0911331,-1.3901733,-0.4725952,-1.4156617,86.0
758,-3.4385364,-1.2241364,1.0911331,-0.86766356,-0.33771974,-1.3434448,86.0
759,-2.6674917,-0.9071655,0.62924194,-0.86766356,-0.33771974,-1.3434448,86.0
760,-2.6674917,-0.9071655,0.62924194,-0.5607422,-0.16673584,-1.2807862,86.0
761,-2.086801,-0.7381973,0.42089844,-0.5607422,-0.16673584,-1.2807862,86.0
762,-2.086801,-0.7381973,0.42089844,-0.41843262,0.033984374,-1.2213135,86.0
763,-1.8697461,-0.70388794,0.39050293,-0.41843262,0.033984374,-1.2213135,86.0
764,-1.8697461,-0.70388794,0.39050293,-0.38869628,0.1709839,-1.1448487,86.0
765,-1.8636923,-0.7160263,0.49763107,-0.38869628,0.1709839,-1.1448487,86.0
766,-1.8636923,-0.7160263,0.49763107,-0.38763428,0.22408448,-1.0099732,86.0
767,-1.7351556,-0.75450134,0.65029144,-0.38763428,0.22408448,-1.0099732,86.0
768,-1.7351556,-0.75450134,0.65029144,-0.2984253,0.22514649,-0.8230591,86.0
769,-1.2753437,-0.85731506,0.67261505,-0.2984253,0.22514649,-0.8230591,86.0
770,-1.2753437,-0.85731506,0.67261505,-0.038232423,0.20390625,-0.60216063,86.0
771,-0.43701077,-0.9180298,0.32155228,-0.038232423,0.20390625,-0.60216063,86.0
772,-0.43701077,-0.9180298,0.32155228,0.2814331,0.1985962,-0.3154175,86.0
773,0.7464242,-0.80345154,-0.40226746,0.2814331,0.1985962,-0.3154175,86.0
774,0.7464242,-0.80345154,-0.40226746,0.54906005,0.22196046,0.095581055,86.0
775,2.0361652,-0.5179596,-1.1493149,0.54906005,0.22196046,0.095581055,86.0
776,2.0361652,-0.5179596,-1.1493149,0.74659425,0.31860352,0.635083,86.0
777,2.896779,-0.049987793,-1.5929985,0.74659425,0.31860352,0.635083,86.0
778,2.896779,-0.049987793,-1.5929985,0.8262451,0.41099855,1.2892822,86.0
779,3.161405,0.6551361,-1.6968727,0.8262451,0.41099855,1.2892822,86.0
780,3.161405,0.6551361,-1.6968727,0.7827026,0.45029297,1.9742798,86.0
781,3.0764265,1.4497604,-1.5846214,0.7827026,0.45029297,1.9742798,86.0
782,3.0764265,1.4497604,-1.5846214,0.64995116,0.4364868,2.5987427,86.0
783,2.6632164,1.9808578,-1.3726654,0.64995116,0.4364868,2.5987427,86.0
784,2.6632164,1.9808578,-1.3726654,0.5341919,0.35789797,3.1339967,86.0
785,2.1592717,2.0475159,-1.0804214,0.5341919,0.35789797,3.1339967,86.0
786,2.1592717,2.0475159,-1.0804214,0.5341919,0.26444092,3.5524292,86.0
787,2.1282475,1.7438469,-0.7991257,0.5341919,0.26444092,3.5524292,86.0
788,2.1282475,1.7438469,-0.7991257,0.71791995,0.18266602,3.7881958,86.0
789,2.730723,1.3075905,-0.66584015,0.71791995,0.18266602,3.7881958,86.0
790,2.730723,1.3075905,-0.66584015,1.1214844,0.093457036,3.8497925,86.0
791,3.5029135,0.85814667,-0.69706345,1.1214844,0.093457036,3.8497925,86.0
792,3.5029135,0.85814667,-0.69706345,1.713025,0.0361084,3.7595215,86.0
793,3.7533808,0.4640808,-0.8717003,1.713025,0.0361084,3.7595215,86.0
794,3.7533808,0.4640808,-0.8717003,2.3916504,0.087084964,3.4940186,86.0
795,3.1497016,0.21518326,-1.1730309,2.3916504,0.087084964,3.4940186,86.0
796,3.1497016,0.21518326,-1.1730309,2.9035401,0.18691407,3.160547,86.0
797,1.9094706,0.1674118,-1.430027,2.9035401,0.18691407,3.160547,86.0
798,1.9094706,0.1674118,-1.430027,2.9566407,0.29736328,2.8302612,86.0
799,0.6000252,0.20482635,-1.5013199,2.9566407,0.29736328,2.8302612,86.0
800,0.6000252,0.20482635,-1.5013199,2.8185792,0.33771974,2.5721924,86.0
801,-0.33866882,0.22628784,-1.397358,2.8185792,0.33771974,2.5721924,86.0
802,-0.33866882,0.22628784,-1.397358,2.626355,0.36002198,2.347046,86.0
803,-0.83393574,0.27585602,-1.193325,2.626355,0.36002198,2.347046,86.0
804,-0.83393574,0.27585602,-1.193325,2.270581,0.39082032,2.176062,86.0
805,-0.9772315,0.25746536,-0.996006,2.270581,0.39082032,2.176062,86.0
806,-0.9772315,0.25746536,-0.996006,1.8234742,0.42161867,2.0443726,86.0
807,-0.9316387,0.033229828,-0.89647675,1.8234742,0.42161867,2.0443726,86.0
808,-0.9316387,0.033229828,-0.89647675,1.4517701,0.45878908,1.9094971,86.0
809,-0.8356919,-0.33564758,-0.8873596,1.4517701,0.45878908,1.9094971,86.0
810,-0.8356919,-0.33564758,-0.8873596,1.1809571,0.5065796,1.7650635,86.0
811,-0.7469835,-0.65091705,-0.90573883,1.1809571,0.5065796,1.7650635,86.0
812,-0.7469835,-0.65091705,-0.90573883,0.9802368,0.56817627,1.6057618,86.0
813,-0.6687784,-0.8067169,-0.8845024,0.9802368,0.56817627,1.6057618,86.0
814,-0.6687784,-0.8067169,-0.8845024,0.8230591,0.61915284,1.4262818,86.0
815,-0.61975193,-0.78300476,-0.7774277,0.8230591,0.61915284,1.4262818,86.0
816,-0.61975193,-0.78300476,-0.7774277,0.66269535,0.6446411,1.2404298,86.0
817,-0.5569711,-0.6526718,-0.6034126,0.66269535,0.6446411,1.2404298,86.0
818,-0.5569711,-0.6526718,-0.6034126,0.43967286,0.65632325,1.0418335,86.0
819,-0.35358453,-0.48563766,-0.38115692,0.43967286,0.65632325,1.0418335,86.0
820,-0.35358453,-0.48563766,-0.38115692,0.16779785,0.65844727,0.8358032,86.0
821,-0.35358453,-0.48563766,-0.38115692,0.16779785,0.65844727,0.8358032,87.0
822,0.1056211,-0.34403992,-0.14302444,0.16779785,0.65844727,0.8358032,87.0
823,0.1056211,-0.34403992,-0.14302444,-0.12319336,0.6510132,0.5968506,87.0
824,0.6577511,-0.21489334,0.032417297,-0.12319336,0.6510132,0.5968506,87.0
825,0.6577511,-0.21489334,0.032417297,-0.45878908,0.632959,0.29736328,87.0
826,0.9538374,-0.02161026,0.06435013,-0.45878908,0.632959,0.29736328,87.0
827,0.9538374,-0.02161026,0.06435013,-0.95581055,0.59047854,-0.07115479,87.0
828,1.0007043,0.2135086,-0.05929947,-0.95581055,0.59047854,-0.07115479,87.0
829,1.0007043,0.2135086,-0.05929947,-1.5006226,0.53737795,-0.52250975,87.0
830,1.1964378,0.37374878,-0.21462631,-1.5006226,0.53737795,-0.52250975,87.0
831,1.1964378,0.37374878,-0.21462631,-1.9710938,0.47896728,-1.1108643,87.0
832,1.5499115,0.43088531,-0.1985321,-1.9710938,0.47896728,-1.1108643,87.0
833,1.5499115,0.43088531,-0.1985321,-2.4065187,0.3164795,-1.809668,87.0
834,1.6168094,0.38313293,0.09354401,-2.4065187,0.3164795,-1.809668,87.0
835,1.6168094,0.38313293,0.09354401,-2.7654786,0.083898924,-2.5424562,87.0
836,0.99975824,0.17867279,0.6253967,-2.7654786,0.083898924,-2.5424562,87.0
837,0.99975824,0.17867279,0.6253967,-2.974695,-0.2081543,-3.268872,87.0
838,-0.2586403,-0.086128235,1.4385757,-2.974695,-0.2081543,-3.268872,87.0
839,-0.2586403,-0.086128235,1.4385757,-2.9513307,-0.51932377,-3.7637696,87.0
840,-1.3759675,-0.23973083,2.4677544,-2.9513307,-0.51932377,-3.7637696,87.0
841,-1.3759675,-0.23973083,2.4677544,-2.5966187,-0.7593384,-4.062195,87.0
842,-1.5641408,-0.36003494,3.420639,-2.5966187,-0.7593384,-4.062195,87.0
843,-1.5641408,-0.36003494,3.420639,-1.7002808,-1.0057251,-4.2204347,87.0
844,-0.81902504,-0.5302429,3.5999527,-1.7002808,-1.0057251,-4.2204347,87.0
845,-0.81902504,-0.5302429,3.5999527,-0.52250975,-1.3190186,-4.1652102,87.0
846,0.19949198,-0.3852272,2.2847328,-0.52250975,-1.3190186,-4.1652102,87.0
847,0.19949198,-0.3852272,2.2847328,0.31010744,-1.3530029,-3.9315674,87.0
848,0.8363147,0.26383972,0.06991196,0.31010744,-1.3530029,-3.9315674,87.0
849,0.8363147,0.26383972,0.06991196,0.5171997,-1.0768799,-3.6002197,87.0
850,0.6809783,0.9609375,-1.4630051,0.5171997,-1.0768799,-3.6002197,87.0
851,0.6809783,0.9609375,-1.4630051,0.32072756,-0.66269535,-3.1562989,87.0
852,-0.28019333,1.3052864,-1.3992004,0.32072756,-0.66269535,-3.1562989,87.0
853,-0.28019333,1.3052864,-1.3992004,-0.27399904,-0.3090454,-2.5976808,87.0
854,-1.5174775,1.2033005,-0.20234299,-0.27399904,-0.3090454,-2.5976808,87.0
855,-1.5174775,1.2033005,-0.20234299,-1.0237793,-0.1709839,-2.0358765,87.0
856,-2.426763,0.6874695,1.0465736,-1.0237793,-0.1709839,-2.0358765,87.0
857,-2.426763,0.6874695,1.0465736,-1.6386842,-0.17523193,-1.62594,87.0
858,-2.7762494,-0.11713791,1.6386261,-1.6386842,-0.17523193,-1.62594,87.0
859,-2.7762494,-0.11713791,1.6386261,-1.8298463,-0.24213867,-1.4358399,87.0
860,-2.7385898,-0.8981056,1.6023674,-1.8298463,-0.24213867,-1.4358399,87.0
861,-2.7385898,-0.8981056,1.6023674,-1.6769165,-0.29630128,-1.2776002,87.0
862,-2.6092677,-1.3180542,1.3491783,-1.6769165,-0.29630128,-1.2776002,87.0
863,-2.6092677,-1.3180542,1.3491783,-1.354065,-0.35895997,-1.173523,87.0
864,-2.6071775,-1.3188095,1.1720314,-1.354065,-0.35895997,-1.173523,87.0
865,-2.6071775,-1.3188095,1.1720314,-1.0078491,-0.39506838,-1.1002442,87.0
866,-2.697827,-1.1069984,1.0680466,-1.0078491,-0.39506838,-1.1002442,87.0
867,-2.697827,-1.1069984,1.0680466,-0.6690674,-0.38657227,-1.0343994,87.0
868,-2.8022192,-0.8713379,0.9542656,-0.6690674,-0.38657227,-1.0343994,87.0
869,-2.8022192,-0.8713379,0.9542656,-0.43967286,-0.32922363,-0.9515625,87.0
870,-2.921719,-0.69750977,0.86302185,-0.43967286,-0.32922363,-0.9515625,87.0
871,-2.921719,-0.69750977,0.86302185,-0.29205322,-0.2623169,-0.8442993,87.0
872,-3.0762181,-0.5470848,0.84695816,-0.29205322,-0.2623169,-0.8442993,87.0
873,-3.0762181,-0.5470848,0.84695816,-0.21983643,-0.1996582,-0.7062378,87.0
874,-3.0742803,-0.43199158,0.8939247,-0.21983643,-0.1996582,-0.7062378,87.0
875,-3.0742803,-0.43199158,0.8939247,-0.13381349,-0.16142578,-0.55755615,87.0
876,-2.5075078,-0.4469986,0.8736,-0.13381349,-0.16142578,-0.55755615,87.0
877,-2.5075078,-0.4469986,0.8736,0.046728518,-0.12956543,-0.40993652,87.0
878,-1.1978276,-0.58517456,0.6515045,0.046728518,-0.12956543,-0.40993652,87.0
879,-1.1978276,-0.58517456,0.6515045,0.26868898,-0.039294433,-0.2347046,87.0
880,0.3567524,-0.6839981,0.1564331,0.26868898,-0.039294433,-0.2347046,87.0
881,0.3567524,-0.6839981,0.1564331,0.5065796,0.09451904,0.016992187,87.0
882,1.6966081,-0.5276642,-0.47045898,0.5065796,0.09451904,0.016992187,87.0
883,1.6966081,-0.5276642,-0.47045898,0.61915284,0.19434814,0.35683593,87.0
884,2.894298,-0.12113953,-0.973999,0.61915284,0.19434814,0.35683593,87.0
885,2.894298,-0.12113953,-0.973999,0.60109866,0.31435546,0.8007569,87.0
886,3.904037,0.36769867,-1.2083015,0.60109866,0.31435546,0.8007569,87.0
887,3.904037,0.36769867,-1.2083015,0.5384399,0.41843262,1.2903442,87.0
888,4.239941,0.8560028,-1.1819725,0.5384399,0.41843262,1.2903442,87.0
889,4.239941,0.8560028,-1.1819725,0.45666504,0.46516114,1.7385132,87.0
890,3.3932836,1.2400742,-0.97509384,0.45666504,0.46516114,1.7385132,87.0
891,3.3932836,1.2400742,-0.97509384,0.44498292,0.37807617,2.1346436,87.0
892,1.8027494,1.3935242,-0.70329285,0.44498292,0.37807617,2.1346436,87.0
893,1.8027494,1.3935242,-0.70329285,0.51082766,0.23151855,2.4734254,87.0
894,0.7323973,1.2952156,-0.5207901,0.51082766,0.23151855,2.4734254,87.0
895,0.7323973,1.2952156,-0.5207901,0.79332274,0.1083252,2.6879518,87.0
896,0.8780688,0.98308563,-0.5670471,0.79332274,0.1083252,2.6879518,87.0
897,0.8780688,0.98308563,-0.5670471,1.4708862,0.028674318,2.7516725,87.0
898,1.6296401,0.6302452,-0.7974129,1.4708862,0.028674318,2.7516725,87.0
899,1.6296401,0.6302452,-0.7974129,2.351294,0.013806152,2.6688354,87.0
900,2.0071545,0.35585785,-1.1359634,2.351294,0.013806152,2.6688354,87.0
901,2.0071545,0.35585785,-1.1359634,3.2529418,0.10301514,2.5095336,87.0
902,1.695653,0.173172,-1.597271,3.2529418,0.10301514,2.5095336,87.0
903,1.695653,0.173172,-1.597271,3.9432495,0.29523927,2.3077514,87.0
904,0.9695351,0.19364929,-2.01157,3.9432495,0.29523927,2.3077514,87.0
905,0.9695351,0.19364929,-2.01157,4.060071,0.452417,2.156946,87.0
906,0.17970514,0.32894135,-2.1333046,4.060071,0.452417,2.156946,87.0
907,0.17970514,0.32894135,-2.1333046,3.6596925,0.56392825,1.9827759,87.0
908,-0.4326396,0.41140747,-1.9574966,3.6596925,0.56392825,1.9827759,87.0
909,-0.4326396,0.41140747,-1.9574966,2.9821289,0.631897,1.8840088,87.0
910,-0.7550471,0.45998383,-1.6238327,2.9821289,0.631897,1.8840088,87.0
911,-0.7550471,0.45998383,-1.6238327,2.1484497,0.6988037,1.812854,87.0
912,-0.81670856,0.4196968,-1.2708321,2.1484497,0.6988037,1.812854,87.0
913,-0.81670856,0.4196968,-1.2708321,1.3678712,0.74447024,1.7576294,87.0
914,-0.6199684,0.21705627,-1.0245743,1.3678712,0.74447024,1.7576294,87.0
915,-0.6199684,0.21705627,-1.0245743,0.73703617,0.77102053,1.6949707,87.0
916,-0.27149963,-0.16785812,-0.9674492,0.73703617,0.77102053,1.6949707,87.0
917,-0.27149963,-0.16785812,-0.9674492,0.362146,0.817749,1.5834595,87.0
918,0.07979727,-0.61802673,-1.0424271,0.362146,0.817749,1.5834595,87.0
919,0.07979727,-0.61802673,-1.0424271,0.22833252,0.8687256,1.4103516,87.0
920,0.35205793,-0.88609695,-1.1007156,0.22833252,0.8687256,1.4103516,87.0
921,0.35205793,-0.88609695,-1.1007156,0.21346436,0.9122681,1.2043213,87.0
922,0.48926353,-0.8756752,-1.0546684,0.21346436,0.9122681,1.2043213,87.0
923,0.48926353,-0.8756752,-1.0546684,0.16885987,0.9345703,0.98129886,87.0
924,0.46959686,-0.6900444,-0.92056656,0.16885987,0.9345703,0.98129886,87.0
925,0.46959686,-0.6900444,-0.92056656,0.059472658,0.9324463,0.7625244,87.0
926,0.35359478,-0.44898224,-0.7400665,0.059472658,0.9324463,0.7625244,87.0
927,0.35359478,-0.44898224,-0.7400665,-0.107263185,0.8867798,0.57561034,87.0
928,0.23117924,-0.20844269,-0.5297127,-0.107263185,0.8867798,0.57561034,87.0
929,0.23117924,-0.20844269,-0.5297127,-0.3430298,0.80819094,0.40037844,87.0
930,0.289289,-0.0016555786,-0.29784203,-0.3430298,0.80819094,0.40037844,87.0
931,0.289289,-0.0016555786,-0.29784203,-0.64995116,0.71367186,0.21983643,87.0
932,0.289289,-0.0016555786,-0.29784203,-0.64995116,0.71367186,0.21983643,87.0
933,0.62806225,0.1618805,-0.006608963,-0.64995116,0.71367186,0.21983643,87.0
934,0.62806225,0.1618805,-0.006608963,-1.0163453,0.59047854,0.023364259,87.0
935,0.95443964,0.22419357,0.2858143,-1.0163453,0.59047854,0.023364259,87.0
936,0.95443964,0.22419357,0.2858143,-1.3445069,0.40993652,-0.25594482,87.0
937,1.1039081,0.22378922,0.39711952,-1.3445069,0.40993652,-0.25594482,87.0
938,1.1039081,0.22378922,0.39711952,-1.5770874,0.22514649,-0.6244629,87.0
939,1.2976408,0.23575592,0.3018875,-1.5770874,0.22514649,-0.6244629,87.0
940,1.2976408,0.23575592,0.3018875,-1.7671875,0.0637207,-1.1098022,87.0
941,1.4616842,0.23123169,0.1746788,-1.7671875,0.0637207,-1.1098022,87.0
942,1.4616842,0.23123169,0.1746788,-1.8818848,-0.10938721,-1.6652344,87.0
943,1.2844596,0.18595123,0.22438431,-1.8818848,-0.10938721,-1.6652344,87.0
944,1.2844596,0.18595123,0.22438431,-1.9509156,-0.3355957,-2.2312868,87.0
945,0.59457207,0.08942032,0.51257706,-1.9509156,-0.3355957,-2.2312868,87.0
946,0.59457207,0.08942032,0.51257706,-1.9360474,-0.6149048,-2.7548585,87.0
947,-0.5647845,-0.011127472,1.0684242,-1.9360474,-0.6149048,-2.7548585,87.0
948,-0.5647845,-0.011127472,1.0684242,-1.8457764,-0.9366943,-3.1042602,87.0
949,-1.7304044,-0.124378204,1.9875526,-1.8457764,-0.9366943,-3.1042602,87.0
950,-1.7304044,-0.124378204,1.9875526,-1.4570801,-1.1990112,-3.3166625,87.0
951,-2.1993504,-0.47800446,3.002079,-1.4570801,-1.1990112,-3.3166625,87.0
952,-2.1993504,-0.47800446,3.002079,-0.53950197,-1.5176147,-3.3570192,87.0
953,-1.7430985,-0.9995804,3.2242699,-0.53950197,-1.5176147,-3.3570192,87.0
954,-1.7430985,-0.9995804,3.2242699,0.6042847,-1.8648926,-3.2359498,87.0
955,-0.8067589,-1.2175484,2.0975418,0.6042847,-1.8648926,-3.2359498,87.0
956,-0.8067589,-1.2175484,2.0975418,1.5462891,-1.9551636,-2.974695,87.0
957,-0.12763357,-0.9504776,0.2728958,1.5462891,-1.9551636,-2.974695,87.0
958,-0.12763357,-0.9504776,0.2728958,2.0581787,-1.7799317,-2.623169,87.0
959,-0.18356442,-0.4335289,-1.0639076,2.0581787,-1.7799317,-2.623169,87.0
960,-0.18356442,-0.4335289,-1.0639076,2.1484497,-1.4581422,-2.162256,87.0
961,-0.82338953,0.14310455,-1.2985382,2.1484497,-1.4581422,-2.162256,87.0
962,-0.82338953,0.14310455,-1.2985382,1.8532104,-1.1427246,-1.62594,87.0
963,-1.5236409,0.6151428,-0.6662712,1.8532104,-1.1427246,-1.62594,87.0
964,-1.5236409,0.6151428,-0.6662712,1.2935303,-0.87615967,-1.1267945,87.0
965,-1.9736123,0.72397614,0.27356339,1.2935303,-0.87615967,-1.1267945,87.0
966,-1.9736123,0.72397614,0.27356339,0.6796875,-0.7784546,-0.7699585,87.0
967,-2.0550983,0.28645706,1.0051918,0.6796875,-0.7784546,-0.7699585,87.0
968,-2.0550983,0.28645706,1.0051918,0.29205322,-0.7104859,-0.5341919,87.0
969,-1.909667,-0.5401306,1.2660179,0.29205322,-0.7104859,-0.5341919,87.0
970,-1.909667,-0.5401306,1.2660179,0.2782471,-0.6637573,-0.45560303,87.0
971,-1.842553,-1.2625237,1.142662,0.2782471,-0.6637573,-0.45560303,87.0
972,-1.842553,-1.2625237,1.142662,0.4991455,-0.6074707,-0.43754885,87.0
973,-1.9387031,-1.5555954,0.8243332,0.4991455,-0.6074707,-0.43754885,87.0
974,-1.9387031,-1.5555954,0.8243332,0.7848267,-0.53737795,-0.4428589,87.0
975,-2.0333722,-1.4709167,0.4427681,0.7848267,-0.53737795,-0.4428589,87.0
976,-2.0333722,-1.4709167,0.4427681,1.0290893,-0.4163086,-0.45454103,87.0
977,-1.958082,-1.167099,0.06461334,1.0290893,-0.4163086,-0.45454103,87.0
978,-1.958082,-1.167099,0.06461334,1.1448487,-0.2262085,-0.42799073,87.0
979,-1.717906,-0.7782593,-0.28180695,1.1448487,-0.2262085,-0.42799073,87.0
980,-1.717906,-0.7782593,-0.28180695,1.1108643,-0.015930176,-0.37595215,87.0
981,-1.346212,-0.46380615,-0.59404755,1.1108643,-0.015930176,-0.37595215,87.0
982,-1.346212,-0.46380615,-0.59404755,1.0386475,0.21027832,-0.26337892,87.0
983,-0.91133237,-0.30646515,-0.8589058,1.0386475,0.21027832,-0.26337892,87.0
984,-0.91133237,-0.30646515,-0.8589058,0.98448485,0.3727661,-0.1178833,87.0
985,-0.2976328,-0.32196808,-1.0522957,0.98448485,0.3727661,-0.1178833,87.0
986,-0.2976328,-0.32196808,-1.0522957,1.0057251,0.49064943,0.03079834,87.0
987,0.5697795,-0.47597504,-1.1755524,1.0057251,0.49064943,0.03079834,87.0
988,0.5697795,-0.47597504,-1.1755524,1.1968873,0.6159668,0.16248779,87.0
989,1.361207,-0.5999222,-1.2938728,1.1968873,0.6159668,0.16248779,87.0
990,1.361207,-0.5999222,-1.2938728,1.3806152,0.72216797,0.28355715,87.0
991,1.7541511,-0.56892395,-1.5259285,1.3806152,0.72216797,0.28355715,87.0
992,1.7541511,-0.56892395,-1.5259285,1.4369019,0.81243896,0.42692873,87.0
993,1.9021614,-0.5199585,-1.8857803,1.4369019,0.81243896,0.42692873,87.0
994,1.9021614,-0.5199585,-1.8857803,1.5038086,0.8867798,0.6159668,87.0
995,2.0310187,-0.587883,-2.242279,1.5038086,0.8867798,0.6159668,87.0
996,2.0310187,-0.587883,-2.242279,1.62594,0.9228882,0.80181885,87.0
997,2.162913,-0.7652893,-2.6169434,1.62594,0.9228882,0.80181885,87.0
998,2.162913,-0.7652893,-2.6169434,1.9179932,0.9324463,0.86766356,87.0
999,2.0753133,-1.168045,-3.0580444,1.9179932,0.9324463,0.86766356,87.0
1000,2.0753133,-1.168045,-3.0580444,2.4967897,0.8496094,0.811377,87.0
1001,1.2252531,-1.9072418,-3.2129517,2.4967897,0.8496094,0.811377,87.0
1002,1.2252531,-1.9072418,-3.2129517,3.4005616,0.5883545,0.727478,87.0
1003,-0.3229469,-2.7865524,-2.8891983,3.4005616,0.5883545,0.727478,87.0
1004,-0.3229469,-2.7865524,-2.8891983,4.265039,0.2347046,0.70942384,87.0
1005,-1.4102374,-3.4676971,-2.540203,4.265039,0.2347046,0.70942384,87.0
1006,-1.4102374,-3.4676971,-2.540203,4.7482543,-0.13062744,0.9281983,87.0
1007,-1.1048257,-3.722084,-2.4339085,4.7482543,-0.13062744,0.9281983,87.0
1008,-1.1048257,-3.722084,-2.4339085,4.7493167,-0.4439209,1.1873292,87.0
1009,0.04962337,-3.692398,-2.3247643,4.7493167,-0.4439209,1.1873292,87.0
1010,0.04962337,-3.692398,-2.3247643,4.5762086,-0.6085327,1.4273437,87.0
1011,0.87725973,-3.505371,-2.1022072,4.5762086,-0.6085327,1.4273437,87.0
1012,0.87725973,-3.505371,-2.1022072,4.2926517,-0.5320679,1.6535523,87.0
1013,0.8363781,-3.0913467,-1.7909584,4.2926517,-0.5320679,1.6535523,87.0
1014,0.8363781,-3.0913467,-1.7909584,3.9188232,-0.27612305,1.8765748,87.0
1015,0.04135585,-2.4667435,-1.2484283,3.9188232,-0.27612305,1.8765748,87.0
1016,0.04135585,-2.4667435,-1.2484283,3.3941896,-0.0031860352,2.1102173,87.0
1017,-1.0259242,-1.6989899,-0.35386848,3.3941896,-0.0031860352,2.1102173,87.0
1018,-1.0259242,-1.6989899,-0.35386848,2.805835,0.19541016,2.3948364,87.0
1019,-1.8846188,-0.9636383,0.6627674,2.805835,0.19541016,2.3948364,87.0
1020,-1.8846188,-0.9636383,0.6627674,2.2142944,0.30373535,2.628479,87.0
1021,-2.258696,-0.42848206,1.3703747,2.2142944,0.30373535,2.628479,87.0
1022,-2.258696,-0.42848206,1.3703747,1.7523193,0.36108398,2.7739747,87.0
1023,-2.1220326,-0.08933258,1.583044,1.7523193,0.36108398,2.7739747,87.0
1024,-2.1220326,-0.08933258,1.583044,1.442212,0.41099855,2.7622926,87.0
1025,-1.6656926,0.11614227,1.3760052,1.442212,0.41099855,2.7622926,87.0
1026,-1.6656926,0.11614227,1.3760052,1.3020264,0.48746338,2.6210449,87.0
1027,-1.1876444,0.22579956,1.0088348,1.3020264,0.48746338,2.6210449,87.0
1028,-1.1876444,0.22579956,1.0088348,1.3391968,0.5586182,2.35448,87.0
1029,-0.8906795,0.27546692,0.7846432,1.3391968,0.5586182,2.35448,87.0
1030,-0.8906795,0.27546692,0.7846432,1.3848633,0.632959,2.0008302,87.0
1031,-0.7581856,0.28543854,0.8147621,1.3848633,0.632959,2.0008302,87.0
1032,-0.7581856,0.28543854,0.8147621,1.174585,0.6573853,1.6376221,87.0
1033,-0.57766664,0.22323608,0.99139786,1.174585,0.6573853,1.6376221,87.0
1034,-0.57766664,0.22323608,0.99139786,0.8687256,0.6403931,1.2903442,87.0
1035,-0.27447462,0.1585846,1.1514072,0.8687256,0.6403931,1.2903442,87.0
1036,-0.27447462,0.1585846,1.1514072,0.5968506,0.540564,0.90908206,87.0
1037,0.07358444,0.24100494,1.1713219,0.5968506,0.540564,0.90908206,87.0
1038,0.07358444,0.24100494,1.1713219,0.31223145,0.4343628,0.5522461,87.0
1039,0.43713903,0.42097473,0.98521423,0.31223145,0.4343628,0.5522461,87.0
1040,0.43713903,0.42097473,0.98521423,0.03717041,0.39188233,0.21877442,87.0
1041,0.8170575,0.61450195,0.6469841,0.03717041,0.39188233,0.21877442,87.0
1042,0.8170575,0.61450195,0.6469841,-0.26550293,0.36639404,-0.09770508,87.0
1043,1.1645468,0.7787094,0.28644753,-0.26550293,0.36639404,-0.09770508,87.0
1044,1.1645468,0.7787094,0.28644753,-0.68499756,0.34727785,-0.42055663,87.0
1045,1.7040985,0.8839035,-0.07290459,-0.68499756,0.34727785,-0.42055663,87.0
1046,1.7040985,0.8839035,-0.07290459,-1.1968873,0.3154175,-0.7858887,87.0
1047,1.7040985,0.8839035,-0.07290459,-1.1968873,0.3154175,-0.7858887,87.0
1048,2.5396338,0.785202,-0.39482117,-1.1968873,0.3154175,-0.7858887,87.0
1049,2.5396338,0.785202,-0.39482117,-1.6822265,0.22833252,-1.2712281,87.0
1050,2.9251032,0.4327011,-0.5265751,-1.6822265,0.22833252,-1.2712281,87.0
1051,2.9251032,0.4327011,-0.5265751,-2.0985353,0.03717041,-1.8213501,87.0
1052,1.9548285,1.5258789E-5,-0.21432495,-2.0985353,0.03717041,-1.8213501,87.0
1053,1.9548285,1.5258789E-5,-0.21432495,-2.3066895,-0.2814331,-2.267395,87.0
1054,-0.11746049,-0.23492432,0.5749626,-2.3066895,-0.2814331,-2.267395,87.0
1055,-0.11746049,-0.23492432,0.5749626,-2.2971313,-0.59260255,-2.4787354,87.0
1056,-2.0108385,-0.29478455,1.5178432,-2.2971313,-0.59260255,-2.4787354,87.0
1057,-2.0108385,-0.29478455,1.5178432,-1.9190552,-0.8421753,-2.5743165,87.0
1058,-2.7650673,-0.4732895,2.2219772,-1.9190552,-0.8421753,-2.5743165,87.0
1059,-2.7650673,-0.4732895,2.2219772,-0.98873293,-1.0365235,-2.52865,87.0
1060,-2.2524836,-0.7744446,2.1625805,-0.98873293,-1.0365235,-2.52865,87.0
1061,-2.2524836,-0.7744446,2.1625805,0.14655761,-1.1151123,-2.4351928,87.0
1062,-1.0007784,-0.8025131,1.0545502,0.14655761,-1.1151123,-2.4351928,87.0
1063,-1.0007784,-0.8025131,1.0545502,0.9303223,-1.0450195,-2.2748291,87.0
1064,0.34304184,-0.395401,-0.5883064,0.9303223,-1.0450195,-2.2748291,87.0
1065,0.34304184,-0.395401,-0.5883064,1.1267945,-0.7678345,-2.086853,87.0
1066,1.3215526,0.17215729,-1.7806168,1.1267945,-0.7678345,-2.086853,87.0
1067,1.3215526,0.17215729,-1.7806168,0.8814697,-0.38444826,-1.8404664,87.0
1068,1.8468784,0.5999985,-1.9314156,0.8814697,-0.38444826,-1.8404664,87.0
1069,1.8468784,0.5999985,-1.9314156,0.28674316,0.016992187,-1.6057618,87.0
1070,1.9310915,0.6757126,-1.2462673,0.28674316,0.016992187,-1.6057618,87.0
1071,1.9310915,0.6757126,-1.2462673,-0.3982544,0.27293703,-1.4581422,87.0
1072,1.4285038,0.43193817,-0.3246746,-0.3982544,0.27293703,-1.4581422,87.0
1073,1.4285038,0.43193817,-0.3246746,-0.996167,0.29417726,-1.3742431,87.0
1074,0.42690945,0.07019806,0.3887844,-0.996167,0.29417726,-1.3742431,87.0
1075,0.42690945,0.07019806,0.3887844,-1.4921265,0.11044922,-1.3625611,87.0
1076,-0.57789385,-0.40760803,0.7469158,-1.4921265,0.11044922,-1.3625611,87.0
1077,-0.57789385,-0.40760803,0.7469158,-1.6100098,-0.13381349,-1.356189,87.0
1078,-1.1711285,-0.853775,0.8210907,-1.6100098,-0.13381349,-1.356189,87.0
1079,-1.1711285,-0.853775,0.8210907,-1.3423828,-0.3812622,-1.360437,87.0
1080,-1.3409312,-1.0057373,0.7575073,-1.3423828,-0.3812622,-1.360437,87.0
1081,-1.3409312,-1.0057373,0.7575073,-0.80394286,-0.5872925,-1.3721192,87.0
1082,-1.2925326,-1.0006866,0.6630726,-0.80394286,-0.5872925,-1.3721192,87.0
1083,-1.2925326,-1.0006866,0.6630726,0.019116212,-0.71791995,-1.3954834,87.0
1084,-1.1949759,-1.0582886,0.6405792,0.019116212,-0.71791995,-1.3954834,87.0
1085,-1.1949759,-1.0582886,0.6405792,0.8602295,-0.7657105,-1.3912354,87.0
1086,-1.1065544,-1.1082306,0.6875248,0.8602295,-0.7657105,-1.3912354,87.0
1087,-1.1065544,-1.1082306,0.6875248,1.4177856,-0.7614624,-1.3211426,87.0
1088,-1.0506244,-1.0241089,0.67845154,1.4177856,-0.7614624,-1.3211426,87.0
1089,-1.0506244,-1.0241089,0.67845154,1.6609863,-0.6945557,-1.175647,87.0
1090,-0.9646939,-0.784256,0.5893936,1.6609863,-0.6945557,-1.175647,87.0
1091,-0.9646939,-0.784256,0.5893936,1.6025757,-0.5809204,-0.99510497,87.0
1092,-0.6229148,-0.41934967,0.5102234,1.6025757,-0.5809204,-0.99510497,87.0
1093,-0.6229148,-0.41934967,0.5102234,1.263794,-0.42905274,-0.77951664,87.0
1094,0.15348697,-0.0896759,0.4555893,1.263794,-0.42905274,-0.77951664,87.0
1095,0.15348697,-0.0896759,0.4555893,0.75615233,-0.2347046,-0.52888185,87.0
1096,1.2708242,-0.023719788,0.32901,0.75615233,-0.2347046,-0.52888185,87.0
1097,1.2708242,-0.023719788,0.32901,0.28461915,-0.008496094,-0.27506104,87.0
1098,2.1920133,-0.26205444,0.1058712,0.28461915,-0.008496094,-0.27506104,87.0
1099,2.1920133,-0.26205444,0.1058712,0.05522461,0.18266602,0.020178223,87.0
1100,2.4328344,-0.5041504,-0.19042587,0.05522461,0.18266602,0.020178223,87.0
1101,2.4328344,-0.5041504,-0.19042587,-0.052038576,0.3175415,0.35577393,87.0
1102,2.2336822,-0.4628067,-0.46778297,-0.052038576,0.3175415,0.35577393,87.0
1103,2.2336822,-0.4628067,-0.46778297,-0.087084964,0.36108398,0.7423462,87.0
1104,2.124763,-0.15937042,-0.58317566,-0.087084964,0.36108398,0.7423462,87.0
1105,2.124763,-0.15937042,-0.58317566,-0.08071289,0.3706421,1.1236085,87.0
1106,1.9973325,0.24034882,-0.48885536,-0.08071289,0.3706421,1.1236085,87.0
1107,1.9973325,0.24034882,-0.48885536,-0.07327881,0.29630128,1.453894,87.0
1108,1.6402488,0.5181122,-0.3532791,-0.07327881,0.29630128,1.453894,87.0
1109,1.6402488,0.5181122,-0.3532791,-0.009558106,0.20603028,1.7024049,87.0
1110,0.9265666,0.5318756,-0.29502487,-0.009558106,0.20603028,1.7024049,87.0
1111,0.9265666,0.5318756,-0.29502487,0.16142578,0.1263794,1.8606446,87.0
1112,-0.34707665,0.36201477,-0.2575779,0.16142578,0.1263794,1.8606446,87.0
1113,-0.34707665,0.36201477,-0.2575779,0.4970215,0.07434082,1.9721558,87.0
1114,-1.585132,0.23244476,-0.24279404,0.4970215,0.07434082,1.9721558,87.0
1115,-1.585132,0.23244476,-0.24279404,0.9685547,0.070092775,2.0241945,87.0
1116,-1.8508327,0.2061081,-0.2799301,0.9685547,0.070092775,2.0241945,87.0
1117,-1.8508327,0.2061081,-0.2799301,1.632312,0.09239502,1.9732178,87.0
1118,-1.2467428,0.123794556,-0.22168732,1.632312,0.09239502,1.9732178,87.0
1119,-1.2467428,0.123794556,-0.22168732,2.4543092,0.14230958,1.8022339,87.0
1120,-0.62835133,-0.031066895,0.07720375,2.4543092,0.14230958,1.8022339,87.0
1121,-0.62835133,-0.031066895,0.07720375,3.1308105,0.18797608,1.5802735,87.0
1122,-0.5016557,-0.18269348,0.43736267,3.1308105,0.18797608,1.5802735,87.0
1123,-0.5016557,-0.18269348,0.43736267,3.3623292,0.2442627,1.3349488,87.0
1124,-0.8189027,-0.33786774,0.6103153,3.3623292,0.2442627,1.3349488,87.0
1125,-0.8189027,-0.33786774,0.6103153,3.165857,0.3154175,1.1236085,87.0
1126,-1.3497754,-0.40951538,0.5881672,3.165857,0.3154175,1.1236085,87.0
1127,-1.3497754,-0.40951538,0.5881672,2.6815796,0.4056885,0.996167,87.0
1128,-1.8425889,-0.21291351,0.5414314,2.6815796,0.4056885,0.996167,87.0
1129,-1.8425889,-0.21291351,0.5414314,1.9594116,0.49171144,0.9589966,87.0
1130,-2.087389,0.13676453,0.55636406,1.9594116,0.49171144,0.9589966,87.0
1131,-2.087389,0.13676453,0.55636406,1.1363525,0.56180423,0.9834229,87.0
1132,-2.048842,0.32357025,0.5746803,1.1363525,0.56180423,0.9834229,87.0
1133,-2.048842,0.32357025,0.5746803,0.4609131,0.60322267,1.0227174,87.0
1134,-1.7802235,0.21475983,0.48470688,0.4609131,0.60322267,1.0227174,87.0
1135,-1.7802235,0.21475983,0.48470688,0.06265869,0.62552494,1.0513916,87.0
1136,-1.3662319,-0.056632996,0.23154068,0.06265869,0.62552494,1.0513916,87.0
1137,-1.3662319,-0.056632996,0.23154068,-0.14761963,0.6488892,1.0513916,87.0
1138,-0.9347701,-0.29479218,-0.12268829,-0.14761963,0.6488892,1.0513916,87.0
1139,-0.9347701,-0.29479218,-0.12268829,-0.2081543,0.6796875,1.0110352,87.0
1140,-0.59309196,-0.36636353,-0.43588257,-0.2081543,0.6796875,1.0110352,87.0
1141,-0.59309196,-0.36636353,-0.43588257,-0.16779785,0.6966797,0.9197022,87.0
1142,-0.37892914,-0.24499512,-0.6026859,-0.16779785,0.6966797,0.9197022,87.0
1143,-0.37892914,-0.24499512,-0.6026859,-0.13062744,0.69986576,0.78164065,87.0
1144,-0.37892914,-0.24499512,-0.6026859,-0.13062744,0.69986576,0.78164065,88.0
1145,-0.2803161,-0.032081604,-0.60730743,-0.13062744,0.69986576,0.78164065,88.0
1146,-0.2803161,-0.032081604,-0.60730743,-0.13699952,0.66588134,0.6202149,88.0
1147,-0.2061255,0.08568573,-0.52477455,-0.13699952,0.66588134,0.6202149,88.0
1148,-0.2061255,0.08568573,-0.52477455,-0.14868164,0.631897,0.52675784,88.0
1149,-0.06378937,0.21537781,-0.2612133,-0.14868164,0.631897,0.52675784,88.0
1150,-0.06378937,0.21537781,-0.2612133,-0.24320069,0.47684327,0.21452637,88.0
1151,0.10700083,0.21754456,-0.12639046,-0.24320069,0.47684327,0.21452637,88.0
1152,0.10700083,0.21754456,-0.12639046,-0.29630128,0.41524658,0.09239502,88.0
1153,0.95485115,0.19529724,0.24102783,-0.29630128,0.41524658,0.09239502,88.0
1154,0.95485115,0.19529724,0.24102783,-0.5979126,0.21452637,-0.32497558,88.0
1155,1.1855118,0.18599701,0.19586182,-0.5979126,0.21452637,-0.32497558,88.0
1156,1.1855118,0.18599701,0.19586182,-0.71367186,0.14124756,-0.48215333,88.0
1157,1.8207362,0.10307312,-0.07733154,-0.71367186,0.14124756,-0.48215333,88.0
1158,1.8207362,0.10307312,-0.07733154,-1.1448487,0.019116212,-0.93350834,88.0
1159,1.7209078,0.1532135,-0.25854492,-1.1448487,0.019116212,-0.93350834,88.0
1160,1.7209078,0.1532135,-0.25854492,-1.2892822,0.0053100586,-1.0630738,88.0
1161,2.050652,0.1494751,-0.49588585,-1.2892822,0.0053100586,-1.0630738,88.0
1162,2.050652,0.1494751,-0.49588585,-1.6004517,-0.11469727,-1.4783204,88.0
1163,1.8343205,0.20365906,-0.47920418,-1.6004517,-0.11469727,-1.4783204,88.0
1164,1.8343205,0.20365906,-0.47920418,-1.6546143,-0.19647217,-1.6046997,88.0
1165,1.1106571,-0.006362915,-0.04560852,-1.6546143,-0.19647217,-1.6046997,88.0
1166,1.1106571,-0.006362915,-0.04560852,-1.7406372,-0.4694092,-1.9137452,88.0
1167,0.5447513,-0.043006897,0.15041542,-1.7406372,-0.4694092,-1.9137452,88.0
1168,0.5447513,-0.043006897,0.15041542,-1.6864747,-0.55543214,-1.9604737,88.0
1169,-1.0107688,-0.57852936,1.0693817,-1.6864747,-0.55543214,-1.9604737,88.0
1170,-1.0107688,-0.57852936,1.0693817,-1.2170655,-0.7604004,-1.9179932,88.0
1171,-1.172824,-0.6008606,1.127039,-1.2170655,-0.7604004,-1.9179932,88.0
1172,-1.172824,-0.6008606,1.127039,-0.9897949,-0.7869507,-1.8309082,88.0
1173,-0.9642236,-0.69693756,1.1026192,-0.9897949,-0.7869507,-1.8309082,88.0
1174,-0.9642236,-0.69693756,1.1026192,-0.26762697,-0.7965088,-1.4984986,88.0
1175,-0.42334425,-0.5250168,0.7309227,-0.26762697,-0.7965088,-1.4984986,88.0
1176,-0.42334425,-0.5250168,0.7309227,-0.090270996,-0.7614624,-1.358313,88.0
1177,0.89976454,0.19901276,-0.15544891,-0.090270996,-0.7614624,-1.358313,88.0
1178,0.89976454,0.19901276,-0.15544891,0.021240234,-0.46834716,-0.87191164,88.0
1179,0.8648068,0.441864,-0.29758835,0.021240234,-0.46834716,-0.87191164,88.0
1180,0.8648068,0.441864,-0.29758835,-0.11363526,-0.3440918,-0.69349366,88.0
1181,0.39290744,0.88301086,-0.42381287,-0.11363526,-0.3440918,-0.69349366,88.0
1182,0.39290744,0.88301086,-0.42381287,-0.48321533,-0.16248779,-0.36320803,88.0
1183,-0.4487722,0.8924637,-0.3172722,-0.48321533,-0.16248779,-0.36320803,88.0
1184,-0.4487722,0.8924637,-0.3172722,-0.7508423,-0.0998291,-0.15505372,88.0
1185,-1.3026824,0.3892975,-0.051582336,-0.7508423,-0.0998291,-0.15505372,88.0
1186,-1.3026824,0.3892975,-0.051582336,-0.87191164,-0.06584473,-0.05628662,88.0
1187,-1.2429394,0.2469101,-0.009857178,-0.87191164,-0.06584473,-0.05628662,88.0
1188,-1.2429394,0.2469101,-0.009857178,-0.8358032,-0.09133301,-0.06478272,88.0
1189,-1.364078,-0.17823029,0.12226486,-0.8358032,-0.09133301,-0.06478272,88.0
1190,-1.364078,-0.17823029,0.12226486,-0.5501221,-0.20390625,-0.17841797,88.0
1191,-1.1478665,-0.20037079,0.12325096,-0.5501221,-0.20390625,-0.17841797,88.0
1192,-1.1478665,-0.20037079,0.12325096,-0.41524658,-0.24213867,-0.22514649,88.0
1193,-0.8776804,-0.2440033,0.14390182,-0.41524658,-0.24213867,-0.22514649,88.0
1194,-0.8776804,-0.2440033,0.14390182,-0.1731079,-0.29948732,-0.32922363,88.0
1195,-0.5355916,-0.16014099,0.13134384,-0.1731079,-0.29948732,-0.32922363,88.0
1196,-0.5355916,-0.16014099,0.13134384,0.0,-0.3154175,-0.4428589,88.0
1197,-0.17684984,0.093322754,0.1140213,0.0,-0.3154175,-0.4428589,88.0
1198,-0.17684984,0.093322754,0.1140213,0.004248047,-0.28568116,-0.5511841,88.0
1199,-0.07996869,0.13491058,0.114681244,0.004248047,-0.28568116,-0.5511841,88.0
1200,-0.07996869,0.13491058,0.114681244,-0.046728518,-0.26868898,-0.5671143,88.0
1201,-0.0011575222,0.19291687,0.13508224,-0.046728518,-0.26868898,-0.5671143,88.0
1202,-0.0011575222,0.19291687,0.13508224,-0.18479005,-0.22408448,-0.57454836,88.0
1203,0.017055035,0.17008209,0.13548279,-0.18479005,-0.22408448,-0.57454836,88.0
1204,0.017055035,0.17008209,0.13548279,-0.32816163,-0.19116211,-0.5511841,88.0
1205,0.23617816,0.08308411,0.11934662,-0.32816163,-0.19116211,-0.5511841,88.0
1206,0.23617816,0.08308411,0.11934662,-0.42374268,-0.16248779,-0.5214478,88.0
1207,0.85219944,-0.057632446,0.067085266,-0.42374268,-0.16248779,-0.5214478,88.0
1208,0.85219944,-0.057632446,0.067085266,-0.4630371,-0.13168946,-0.51188964,88.0
1209,1.5853362,-0.2337265,-0.0015182495,-0.4630371,-0.13168946,-0.51188964,88.0
1210,1.5853362,-0.2337265,-0.0015182495,-0.42799073,-0.09770508,-0.5033936,88.0
1211,1.9849803,-0.3539505,-0.054267883,-0.42799073,-0.09770508,-0.5033936,88.0
1212,1.9849803,-0.3539505,-0.054267883,-0.3695801,-0.07115479,-0.4322388,88.0
1213,2.2051718,-0.30617523,-0.13783646,-0.3695801,-0.07115479,-0.4322388,88.0
1214,2.2051718,-0.30617523,-0.13783646,-0.33878174,-0.058410645,-0.29736328,88.0
1215,2.5156877,-0.14948273,-0.26058578,-0.33878174,-0.058410645,-0.29736328,88.0
1216,2.5156877,-0.14948273,-0.26058578,-0.27506104,-0.02442627,-0.15930176,88.0
1217,2.7430677,-0.10824585,-0.3346672,-0.27506104,-0.02442627,-0.15930176,88.0
1218,2.7430677,-0.10824585,-0.3346672,0.019116212,0.033984374,0.04991455,88.0
1219,2.16578,-0.16657257,-0.2681961,0.019116212,0.033984374,0.04991455,88.0
1220,2.16578,-0.16657257,-0.2681961,0.20284425,0.060534667,0.12956543,88.0
1221,1.028425,-0.32206726,-0.18234253,0.20284425,0.060534667,0.12956543,88.0
1222,1.028425,-0.32206726,-0.18234253,0.61915284,0.11363526,0.3175415,88.0
1223,-0.66573656,-0.28625488,-0.045677185,0.61915284,0.11363526,0.3175415,88.0
1224,-0.66573656,-0.28625488,-0.045677185,1.0333375,0.11151123,0.5564942,88.0
1225,-1.841244,-0.008911133,0.06392288,1.0333375,0.11151123,0.5564942,88.0
1226,-1.841244,-0.008911133,0.06392288,1.3869873,0.095581055,0.7625244,88.0
1227,-1.7979342,0.23405457,0.06549454,1.3869873,0.095581055,0.7625244,88.0
1228,-1.7979342,0.23405457,0.06549454,1.6875366,0.12850343,0.88359374,88.0
1229,-1.0595387,0.2348175,0.08905411,1.6875366,0.12850343,0.88359374,88.0
1230,-1.0595387,0.2348175,0.08905411,1.9264892,0.1996582,0.89846194,88.0
1231,-0.5142814,0.034622192,0.22881317,1.9264892,0.1996582,0.89846194,88.0
1232,-0.5142814,0.034622192,0.22881317,2.0411866,0.2782471,0.85491943,88.0
1233,-0.5515984,-0.1980362,0.34441376,2.0411866,0.2782471,0.85491943,88.0
1234,-0.5515984,-0.1980362,0.34441376,1.99552,0.36639404,0.8230591,88.0
1235,-0.96395946,-0.30838776,0.28057098,1.99552,0.36639404,0.8230591,88.0
1236,-0.96395946,-0.30838776,0.28057098,1.8287842,0.45666504,0.81668705,88.0
1237,-1.4140387,-0.19099426,0.1424141,1.8287842,0.45666504,0.81668705,88.0
1238,-1.4140387,-0.19099426,0.1424141,1.5239868,0.5384399,0.8294312,88.0
1239,-1.6478448,0.03816986,0.076114655,1.5239868,0.5384399,0.8294312,88.0
1240,-1.6478448,0.03816986,0.076114655,1.1278565,0.61065674,0.88253176,88.0
1241,-1.6249409,0.12942505,0.08388901,1.1278565,0.61065674,0.88253176,88.0
1242,-1.6249409,0.12942505,0.08388901,0.7582764,0.6616333,0.9420044,88.0
1243,-1.4228287,0.05872345,0.06357193,0.7582764,0.6616333,0.9420044,88.0
1244,-1.4228287,0.05872345,0.06357193,0.48321533,0.7041138,0.994043,88.0
1245,-1.4228287,0.05872345,0.06357193,0.48321533,0.7041138,0.994043,88.0
1246,-1.0771911,-0.08010101,-0.05929947,0.48321533,0.7041138,0.994043,88.0
1247,-1.0771911,-0.08010101,-0.05929947,0.31860352,0.7582764,1.0131592,88.0
1248,-0.63149166,-0.15963745,-0.2613411,0.31860352,0.7582764,1.0131592,88.0
1249,-0.63149166,-0.15963745,-0.2613411,0.2262085,0.81881106,0.996167,88.0
1250,-0.2095511,-0.13020325,-0.47320938,0.2262085,0.81881106,0.996167,88.0
1251,-0.2095511,-0.13020325,-0.47320938,0.16673584,0.87191164,0.94412845,88.0
1252,0.120908976,-6.3323975E-4,-0.655386,0.16673584,0.87191164,0.94412845,88.0
1253,0.120908976,-6.3323975E-4,-0.655386,0.070092775,0.92076415,0.88040775,88.0
1254,0.40378284,0.17021942,-0.77900887,0.070092775,0.92076415,0.88040775,88.0
1255,0.40378284,0.17021942,-0.77900887,-0.08496094,0.93563235,0.811377,88.0
1256,0.60933006,0.4322586,-0.85821533,-0.08496094,0.93563235,0.811377,88.0
1257,0.60933006,0.4322586,-0.85821533,-0.32178956,0.91014403,0.72004396,88.0
1258,0.6812384,0.8166809,-0.9106331,-0.32178956,0.91014403,0.72004396,88.0
1259,0.6812384,0.8166809,-0.9106331,-0.56605226,0.86766356,0.5936646,88.0
1260,0.83980274,1.2507324,-0.9667282,-0.56605226,0.86766356,0.5936646,88.0
1261,0.83980274,1.2507324,-0.9667282,-0.8485474,0.80181885,0.45772704,88.0
1262,1.3602333,1.822792,-1.2549267,-0.8485474,0.80181885,0.45772704,88.0
1263,1.3602333,1.822792,-1.2549267,-1.2351197,0.7699585,0.25700685,88.0
1264,1.7907624,2.4167557,-1.7099972,-1.2351197,0.7699585,0.25700685,88.0
1265,1.7907624,2.4167557,-1.7099972,-1.6567383,0.72216797,0.019116212,88.0
1266,1.5487598,2.56324,-1.7941208,-1.6567383,0.72216797,0.019116212,88.0
1267,1.5487598,2.56324,-1.7941208,-1.905249,0.6202149,-0.25594482,88.0
1268,1.2388613,2.212349,-1.4148636,-1.905249,0.6202149,-0.25594482,88.0
1269,1.2388613,2.212349,-1.4148636,-2.0475585,0.38444826,-0.59260255,88.0
1270,1.5057864,1.4242477,-0.8787155,-2.0475585,0.38444826,-0.59260255,88.0
1271,1.5057864,1.4242477,-0.8787155,-2.0518067,0.019116212,-1.0545777,88.0
1272,1.7552639,0.31970978,-0.2898636,-2.0518067,0.019116212,-1.0545777,88.0
1273,1.7552639,0.31970978,-0.2898636,-1.7618774,-0.4704712,-1.6376221,88.0
1274,1.176135,-0.57673645,0.4747982,-1.7618774,-0.4704712,-1.6376221,88.0
1275,1.176135,-0.57673645,0.4747982,-1.2977784,-0.92713624,-2.1027832,88.0
1276,-0.17103052,-1.1323624,1.4671688,-1.2977784,-0.92713624,-2.1027832,88.0
1277,-0.17103052,-1.1323624,1.4671688,-0.72323,-1.3381348,-2.2716432,88.0
1278,-1.5166829,-1.5013885,2.398758,-0.72323,-1.3381348,-2.2716432,88.0
1279,-1.5166829,-1.5013885,2.398758,-0.013806152,-1.721521,-2.2068603,88.0
1280,-2.0480387,-1.553482,2.7555065,-0.013806152,-1.721521,-2.2068603,88.0
1281,-2.0480387,-1.553482,2.7555065,0.59047854,-1.992334,-2.069861,88.0
1282,-1.4243807,-1.177475,2.2328587,0.59047854,-1.992334,-2.069861,88.0
1283,-1.4243807,-1.177475,2.2328587,0.9165161,-2.1442018,-1.8500245,88.0
1284,-0.20361587,-0.65867615,1.1278038,0.9165161,-2.1442018,-1.8500245,88.0
1285,-0.20361587,-0.65867615,1.1278038,0.9515625,-1.9806519,-1.6163819,88.0
1286,0.46708778,-0.31896973,0.19191551,0.9515625,-1.9806519,-1.6163819,88.0
1287,0.46708778,-0.31896973,0.19191551,0.63720703,-1.5112427,-1.3115845,88.0
1288,0.103272274,-0.2560501,-0.07907295,0.63720703,-1.5112427,-1.3115845,88.0
1289,0.103272274,-0.2560501,-0.07907295,0.04885254,-0.9781128,-1.0439576,88.0
1290,-0.7566766,-0.3713684,0.21615982,0.04885254,-0.9781128,-1.0439576,88.0
1291,-0.7566766,-0.3713684,0.21615982,-0.6138428,-0.5522461,-0.84111327,88.0
1292,-1.4422798,-0.5791092,0.7162514,-0.6138428,-0.5522461,-0.84111327,88.0
1293,-1.4422798,-0.5791092,0.7162514,-1.1172364,-0.3355957,-0.68499756,88.0
1294,-1.6554475,-0.7952347,1.0397987,-1.1172364,-0.3355957,-0.68499756,88.0
1295,-1.6554475,-0.7952347,1.0397987,-1.3296387,-0.1996582,-0.57242435,88.0
1296,-1.452544,-0.8972702,0.9821434,-1.3296387,-0.1996582,-0.57242435,88.0
1297,-1.452544,-0.8972702,0.9821434,-1.3678712,-0.12000733,-0.48533937,88.0
1298,-1.0593984,-0.84656525,0.66072845,-1.3678712,-0.12000733,-0.48533937,88.0
1299,-1.0593984,-0.84656525,0.66072845,-1.2807862,-0.08496094,-0.42905274,88.0
1300,-0.5985441,-0.7328186,0.29644012,-1.2807862,-0.08496094,-0.42905274,88.0
1301,-0.5985441,-0.7328186,0.29644012,-1.0428956,-0.04991455,-0.37701416,88.0
1302,-0.15348136,-0.5928192,0.031341553,-1.0428956,-0.04991455,-0.37701416,88.0
1303,-0.15348136,-0.5928192,0.031341553,-0.7604004,-0.035046387,-0.34090576,88.0
1304,-0.15348136,-0.5928192,0.031341553,-0.5161377,-0.0063720704,-0.271875,88.0
1305,0.2106744,-0.39772034,-0.123046875,-0.5161377,-0.0063720704,-0.271875,88.0
1306,-0.2608062,0.2080307,-0.06254959,-0.5161377,-0.0063720704,-0.271875,88.0
1307,-0.2608062,0.2080307,-0.06254959,-0.38338622,0.010620117,-0.1539917,88.0
1308,-0.2608062,0.2080307,-0.06254959,-0.36002198,0.0021240234,0.008496094,88.0
1309,-0.2608062,0.2080307,-0.06254959,-0.32497558,-0.019116212,0.16992188,88.0
1310,-0.2792138,0.22018433,0.029586792,-0.32497558,-0.019116212,0.16992188,88.0
1311,-0.2792138,0.22018433,0.029586792,-0.18054199,-0.011682129,0.29630128,88.0
1312,0.29490292,0.10964203,-0.07530594,-0.18054199,-0.011682129,0.29630128,88.0
1313,0.29490292,0.10964203,-0.07530594,0.019116212,0.057348635,0.39082032,88.0
1314,1.0087861,0.043647766,-0.33465958,0.019116212,0.057348635,0.39082032,88.0
1315,1.0087861,0.043647766,-0.33465958,0.15823975,0.16036378,0.5055176,88.0
1316,1.6651953,0.121673584,-0.620327,0.15823975,0.16036378,0.5055176,88.0
1317,1.6651953,0.121673584,-0.620327,0.24107666,0.24851075,0.59897465,88.0
1318,2.4871612,0.28240967,-0.8196144,0.24107666,0.24851075,0.59897465,88.0
1319,2.4871612,0.28240967,-0.8196144,0.26550293,0.38232422,0.68712157,88.0
1320,3.1691358,0.40142822,-0.9082527,0.26550293,0.38232422,0.68712157,88.0
1321,3.1691358,0.40142822,-0.9082527,0.20390625,0.5171997,0.7391602,88.0
1322,3.000958,0.40283203,-0.90802383,0.20390625,0.5171997,0.7391602,88.0
1323,3.000958,0.40283203,-0.90802383,0.14230958,0.62764895,0.8421753,88.0
1324,1.7799656,0.31028748,-0.78310776,0.14230958,0.62764895,0.8421753,88.0
1325,1.7799656,0.31028748,-0.78310776,0.17523193,0.6435791,0.9802368,88.0
1326,0.06935835,0.26667786,-0.56567,0.17523193,0.6435791,0.9802368,88.0
1327,0.06935835,0.26667786,-0.56567,0.3993164,0.5777344,1.1820191,88.0
1328,-1.0048772,0.34135437,-0.37926865,0.3993164,0.5777344,1.1820191,88.0
1329,-1.0048772,0.34135437,-0.37926865,0.8527954,0.49383545,1.3933594,88.0
1330,-0.8266922,0.4192276,-0.28049088,0.8527954,0.49383545,1.3933594,88.0
1331,-0.8266922,0.4192276,-0.28049088,1.5919555,0.42055663,1.5059327,88.0
1332,-0.08984506,0.37617493,-0.18602562,1.5919555,0.42055663,1.5059327,88.0
1333,-0.08984506,0.37617493,-0.18602562,2.2865112,0.40993652,1.5303589,88.0
1334,0.23808491,0.24085999,-0.039165497,2.2865112,0.40993652,1.5303589,88.0
1335,0.23808491,0.24085999,-0.039165497,2.6741455,0.43967286,1.5186768,88.0
1336,0.23808491,0.24085999,-0.039165497,2.6741455,0.43967286,1.5186768,89.0
1337,-0.10948324,0.094566345,0.11635971,2.6741455,0.43967286,1.5186768,89.0
1338,-0.10948324,0.094566345,0.11635971,2.6327271,0.4991455,1.4687623,89.0
1339,-0.7926281,0.00818634,0.20185089,2.6327271,0.4991455,1.4687623,89.0
1340,-0.7926281,0.00818634,0.20185089,2.3194337,0.55968016,1.4613281,89.0
1341,-1.4417075,0.053131104,0.23849487,2.3194337,0.55968016,1.4613281,89.0
1342,-1.4417075,0.053131104,0.23849487,1.8054199,0.61915284,1.4560181,89.0
1343,-1.9033904,0.23715973,0.26789474,1.8054199,0.61915284,1.4560181,89.0
1344,-1.9033904,0.23715973,0.26789474,1.179895,0.6680054,1.4815063,89.0
1345,-2.1258252,0.41481018,0.27437592,1.179895,0.6680054,1.4815063,89.0
1346,-2.1258252,0.41481018,0.27437592,0.5703003,0.7072998,1.5229248,89.0
1347,-2.1056771,0.40644073,0.20458412,0.5703003,0.7072998,1.5229248,89.0
1348,-2.1056771,0.40644073,0.20458412,0.121069334,0.73809814,1.5494751,89.0
1349,-1.8288655,0.21717072,0.030366898,0.121069334,0.73809814,1.5494751,89.0
1350,-1.8288655,0.21717072,0.030366898,-0.15080567,0.7742066,1.5271729,89.0
1351,-1.3824284,-0.010307312,-0.24163628,-0.15080567,0.7742066,1.5271729,89.0
1352,-1.3824284,-0.010307312,-0.24163628,-0.22196046,0.815625,1.4432739,89.0
1353,-0.97671914,-0.11315155,-0.50242615,-0.22196046,0.815625,1.4432739,89.0
1354,-0.97671914,-0.11315155,-0.50242615,-0.19541016,0.8581055,1.2935303,89.0
1355,-0.705472,-0.033096313,-0.65709114,-0.19541016,0.8581055,1.2935303,89.0
1356,-0.705472,-0.033096313,-0.65709114,-0.18903808,0.88996583,1.1034302,89.0
1357,-0.53108907,0.13716888,-0.68304634,-0.18903808,0.88996583,1.1034302,89.0
1358,-0.53108907,0.13716888,-0.68304634,-0.24213867,0.8878418,0.9197022,89.0
1359,-0.39393854,0.30261993,-0.62791824,-0.24213867,0.8878418,0.9197022,89.0
1360,-0.39393854,0.30261993,-0.62791824,-0.33665773,0.8400513,0.70942384,89.0
1361,-0.19933057,0.44852448,-0.52949524,-0.33665773,0.8400513,0.70942384,89.0
1362,-0.19933057,0.44852448,-0.52949524,-0.51082766,0.75721437,0.48640138,89.0
1363,0.13700771,0.5629959,-0.385643,-0.51082766,0.75721437,0.48640138,89.0
1364,0.13700771,0.5629959,-0.385643,-0.7412842,0.6425171,0.22302246,89.0
1365,0.60656667,0.63018036,-0.18229294,-0.7412842,0.6425171,0.22302246,89.0
1366,0.60656667,0.63018036,-0.18229294,-1.1044922,0.4970215,-0.08920898,89.0
1367,1.0953729,0.57865906,-0.043014526,-1.1044922,0.4970215,-0.08920898,89.0
1368,1.0953729,0.57865906,-0.043014526,-1.4252198,0.32285157,-0.4715332,89.0
1369,1.320146,0.43463135,-0.09450531,-1.4252198,0.32285157,-0.4715332,89.0
1370,1.320146,0.43463135,-0.09450531,-1.6928467,0.1444336,-0.8846558,89.0
1371,1.3680431,0.34757996,-0.22452927,-1.6928467,0.1444336,-0.8846558,89.0
1372,1.3680431,0.34757996,-0.22452927,-1.9158691,0.029736329,-1.2999023,89.0
1373,1.7274423,0.3125763,-0.3042946,-1.9158691,0.029736329,-1.2999023,89.0
1374,1.7274423,0.3125763,-0.3042946,-1.992334,-0.07752686,-1.7937378,89.0
1375,2.176241,0.17810059,-0.26826477,-1.992334,-0.07752686,-1.7937378,89.0
1376,2.176241,0.17810059,-0.26826477,-1.8956909,-0.23151855,-2.3013794,89.0
1377,1.9087784,-0.032691956,-0.0898056,-1.8956909,-0.23151855,-2.3013794,89.0
1378,1.9087784,-0.032691956,-0.0898056,-1.809668,-0.36320803,-2.720874,89.0
1379,0.8120203,-0.20393372,0.2863083,-1.809668,-0.36320803,-2.720874,89.0
1380,0.8120203,-0.20393372,0.2863083,-1.7501954,-0.45878908,-2.9056642,89.0
1381,-0.3135307,-0.34316254,0.84041214,-1.7501954,-0.45878908,-2.9056642,89.0
1382,-0.3135307,-0.34316254,0.84041214,-1.5675293,-0.55755615,-2.8684938,89.0
1383,-0.68515074,-0.46102905,1.2402496,-1.5675293,-0.55755615,-2.8684938,89.0
1384,-0.68515074,-0.46102905,1.2402496,-1.1883911,-0.6488892,-2.714502,89.0
1385,-0.1005376,-0.45926666,1.1342163,-1.1883911,-0.6488892,-2.714502,89.0
1386,-0.1005376,-0.45926666,1.1342163,-0.6775635,-0.721106,-2.4713013,89.0
1387,1.0648336,-0.2655487,0.5946541,-0.6775635,-0.721106,-2.4713013,89.0
1388,1.0648336,-0.2655487,0.5946541,-0.25806886,-0.6839356,-2.1643798,89.0
1389,1.732238,0.07299805,-0.041635513,-0.25806886,-0.6839356,-2.1643798,89.0
1390,1.732238,0.07299805,-0.041635513,-0.078588866,-0.48215333,-1.7470093,89.0
1391,1.1067743,0.44665527,-0.4672203,-0.078588866,-0.48215333,-1.7470093,89.0
1392,1.1067743,0.44665527,-0.4672203,-0.20390625,-0.24532472,-1.260608,89.0
1393,-0.3934502,0.6111069,-0.44417572,-0.20390625,-0.24532472,-1.260608,89.0
1394,-0.3934502,0.6111069,-0.44417572,-0.40037844,-0.10938721,-0.8315552,89.0
1395,-1.7005024,0.42955017,-0.058807373,-0.40037844,-0.10938721,-0.8315552,89.0
1396,-1.7005024,0.42955017,-0.058807373,-0.48533937,-0.078588866,-0.5713623,89.0
1397,-2.190944,0.11706543,0.30119705,-0.48533937,-0.078588866,-0.5713623,89.0
1398,-2.190944,0.11706543,0.30119705,-0.5479981,-0.05628662,-0.44710693,89.0
1399,-1.9710413,-0.124565125,0.35177422,-0.5479981,-0.05628662,-0.44710693,89.0
1400,-1.9710413,-0.124565125,0.35177422,-0.53525394,-0.0541626,-0.39613038,89.0
1401,-1.4381613,-0.271698,0.12952805,-0.53525394,-0.0541626,-0.39613038,89.0
1402,-1.4381613,-0.271698,0.12952805,-0.41206056,-0.032922365,-0.37382814,89.0
1403,-0.8536174,-0.2646637,-0.12594414,-0.41206056,-0.032922365,-0.37382814,89.0
1404,-0.8536174,-0.2646637,-0.12594414,-0.28355715,-0.039294433,-0.42905274,89.0
1405,-0.33897305,-0.13017273,-0.21080208,-0.28355715,-0.039294433,-0.42905274,89.0
1406,-0.33897305,-0.13017273,-0.21080208,-0.26975098,-0.0361084,-0.5129517,89.0
1407,-0.03358078,-0.049423218,-0.1180439,-0.26975098,-0.0361084,-0.5129517,89.0
1408,-0.03358078,-0.049423218,-0.1180439,-0.29311523,-0.039294433,-0.5798584,89.0
1409,-0.05101013,-0.09348297,0.037181854,-0.29311523,-0.039294433,-0.5798584,89.0
1410,-0.05101013,-0.09348297,0.037181854,-0.29417726,-0.05628662,-0.6149048,89.0
1411,-0.28366697,-0.14644623,0.13572693,-0.29417726,-0.05628662,-0.6149048,89.0
1412,-0.28366697,-0.14644623,0.13572693,-0.31223145,-0.087084964,-0.6149048,89.0
1413,-0.41863286,-0.16767883,0.1665268,-0.31223145,-0.087084964,-0.6149048,89.0
1414,-0.41863286,-0.16767883,0.1665268,-0.29205322,-0.12213135,-0.54906005,89.0
1415,-0.036932707,-0.24228668,0.13672638,-0.29205322,-0.12213135,-0.54906005,89.0
1416,-0.036932707,-0.24228668,0.13672638,-0.12850343,-0.1359375,-0.47365722,89.0
1417,0.8465159,-0.4102249,0.05545044,-0.12850343,-0.1359375,-0.47365722,89.0
1418,0.8465159,-0.4102249,0.05545044,0.16142578,-0.124255374,-0.38869628,89.0
1419,1.6039827,-0.54447937,-0.04100418,0.16142578,-0.124255374,-0.38869628,89.0
1420,1.6039827,-0.54447937,-0.04100418,0.4354248,-0.07540283,-0.26975098,89.0
1421,1.7723342,-0.52156067,-0.06613922,0.4354248,-0.07540283,-0.26975098,89.0
1422,1.7723342,-0.52156067,-0.06613922,0.5777344,-0.046728518,-0.08602295,89.0
1423,1.7893151,-0.33648682,-0.06208992,0.5777344,-0.046728518,-0.08602295,89.0
1424,1.7893151,-0.33648682,-0.06208992,0.59047854,-0.038232423,0.17735596,89.0
1425,2.1833687,-0.09489441,-0.1482811,0.59047854,-0.038232423,0.17735596,89.0
1426,2.1833687,-0.09489441,-0.1482811,0.5256958,0.0010620117,0.46516114,89.0
1427,2.488284,0.12400055,-0.24402618,0.5256958,0.0010620117,0.46516114,89.0
1428,2.488284,0.12400055,-0.24402618,0.44179687,0.045666505,0.73597413,89.0
1429,2.1541896,0.22447205,-0.24161911,0.44179687,0.045666505,0.73597413,89.0
1430,2.1541896,0.22447205,-0.24161911,0.43011475,0.06159668,0.9834229,89.0
1431,0.98583937,0.17120361,-0.13472557,0.43011475,0.06159668,0.9834229,89.0
1432,0.98583937,0.17120361,-0.13472557,0.542688,0.06584473,1.2255615,89.0
1433,-0.70205116,0.073265076,-2.117157E-4,0.542688,0.06584473,1.2255615,89.0
1434,-0.70205116,0.073265076,-2.117157E-4,0.8028809,0.03079834,1.4581422,89.0
1435,-1.5383621,0.0038986206,-0.03717041,0.8028809,0.03079834,1.4581422,89.0
1436,-1.5383621,0.0038986206,-0.03717041,1.2489258,0.007434082,1.5972656,89.0
1437,-0.91900754,-0.10157776,-0.19250488,1.2489258,0.007434082,1.5972656,89.0
1438,-0.91900754,-0.10157776,-0.19250488,1.9487915,0.047790527,1.6461182,89.0
1439,0.10253811,-0.23417664,-0.21470833,1.9487915,0.047790527,1.6461182,89.0
1440,0.10253811,-0.23417664,-0.21470833,2.703882,0.14230958,1.5855836,89.0
1441,0.40125656,-0.28559113,-0.08127594,2.703882,0.14230958,1.5855836,89.0
1442,0.40125656,-0.28559113,-0.08127594,3.1881592,0.26550293,1.4677002,89.0
1443,-0.17530823,-0.2546692,0.08660126,3.1881592,0.26550293,1.4677002,89.0
1444,-0.17530823,-0.2546692,0.08660126,3.2667482,0.3695801,1.3912354,89.0
1445,-1.0976807,-0.15434265,0.2406807,3.2667482,0.3695801,1.3912354,89.0
1446,-1.0976807,-0.15434265,0.2406807,2.9608886,0.44498292,1.350879,89.0
1447,-1.850923,-0.035949707,0.40071106,2.9608886,0.44498292,1.350879,89.0
1448,-1.850923,-0.035949707,0.40071106,2.437317,0.50020754,1.3232666,89.0
1449,-1.850923,-0.035949707,0.40071106,2.437317,0.50020754,1.3232666,90.0
1450,-2.213026,0.041160583,0.5393677,2.437317,0.50020754,1.3232666,90.0
1451,-2.213026,0.041160583,0.5393677,1.7778076,0.542688,1.3168945,90.0
1452,-2.2328842,0.037322998,0.58270264,1.7778076,0.542688,1.3168945,90.0
1453,-2.2328842,0.037322998,0.58270264,1.1650269,0.5968506,1.3232666,90.0
1454,-2.0218909,-0.06160736,0.4652214,1.1650269,0.5968506,1.3232666,90.0
1455,-2.0218909,-0.06160736,0.4652214,0.68074954,0.6531372,1.3179566,90.0
1456,-1.6187944,-0.24497986,0.19098663,0.68074954,0.6531372,1.3179566,90.0
1457,-1.6187944,-0.24497986,0.19098663,0.40993652,0.73703617,1.2776002,90.0
1458,-1.1023109,-0.4252472,-0.15712357,0.40993652,0.73703617,1.2776002,90.0
1459,-1.1023109,-0.4252472,-0.15712357,0.31966552,0.8241211,1.175647,90.0
1460,-0.58940494,-0.48451996,-0.4638958,0.31966552,0.8241211,1.175647,90.0
1461,-0.58940494,-0.48451996,-0.4638958,0.32178956,0.91757816,1.0152832,90.0
1462,-0.16723931,-0.38911438,-0.6263161,0.32178956,0.91757816,1.0152832,90.0
1463,-0.16723931,-0.38911438,-0.6263161,0.271875,0.9897949,0.83898926,90.0
1464,0.1116066,-0.18495941,-0.6135044,0.271875,0.9897949,0.83898926,90.0
1465,0.1116066,-0.18495941,-0.6135044,0.09770508,1.0142212,0.67437744,90.0
1466,0.24536443,0.035957336,-0.57333374,0.09770508,1.0142212,0.67437744,90.0
1467,0.24536443,0.035957336,-0.57333374,-0.20072022,0.996167,0.5246338,90.0
1468,0.3646387,0.21888733,-0.5684204,-0.20072022,0.996167,0.5246338,90.0
1469,0.3646387,0.21888733,-0.5684204,-0.5671143,0.94412845,0.4078125,90.0
1470,0.72141075,0.33242035,-0.5437126,-0.5671143,0.94412845,0.4078125,90.0
1471,0.72141075,0.33242035,-0.5437126,-0.9197022,0.8644776,0.27399904,90.0
1472,1.2373459,0.3467102,-0.5079918,-0.9197022,0.8644776,0.27399904,90.0
1473,1.2373459,0.3467102,-0.5079918,-1.2213135,0.74447024,0.12531738,90.0
1474,1.4442103,0.34896088,-0.5290127,-1.2213135,0.74447024,0.12531738,90.0
1475,1.4442103,0.34896088,-0.5290127,-1.4751343,0.5798584,-0.029736329,90.0
1476,1.4142793,0.45773315,-0.6467209,-1.4751343,0.5798584,-0.029736329,90.0
1477,1.4142793,0.45773315,-0.6467209,-1.7406372,0.4343628,-0.20178223,90.0
1478,1.5506618,0.54164886,-0.74211884,-1.7406372,0.4343628,-0.20178223,90.0
1479,1.5506618,0.54164886,-0.74211884,-1.8744507,0.24001466,-0.4885254,90.0
1480,1.5946921,0.46623993,-0.65836906,-1.8744507,0.24001466,-0.4885254,90.0
1481,1.5946921,0.46623993,-0.65836906,-1.8712647,-0.050976563,-0.8326172,90.0
1482,1.0470183,0.30475616,-0.33961105,-1.8712647,-0.050976563,-0.8326172,90.0
1483,1.0470183,0.30475616,-0.33961105,-1.806482,-0.35789797,-1.1629028,90.0
1484,-0.1486524,0.14455414,0.18795395,-1.806482,-0.35789797,-1.1629028,90.0
1485,-0.1486524,0.14455414,0.18795395,-1.6546143,-0.66481936,-1.4177856,90.0
1486,-1.5362804,-0.01599884,0.9274368,-1.6546143,-0.66481936,-1.4177856,90.0
1487,-1.5362804,-0.01599884,0.9274368,-1.2850342,-0.9197022,-1.5420411,90.0
1488,-2.3227866,-0.24584198,1.7122746,-1.2850342,-0.9197022,-1.5420411,90.0
1489,-2.3227866,-0.24584198,1.7122746,-0.62764895,-1.1682129,-1.5335449,90.0
1490,-1.8252459,-0.49266815,1.9708214,-0.62764895,-1.1682129,-1.5335449,90.0
1491,-1.8252459,-0.49266815,1.9708214,0.16036378,-1.3275146,-1.5101807,90.0
1492,-0.18437886,-0.49917603,1.3647308,0.16036378,-1.3275146,-1.5101807,90.0
1493,-0.18437886,-0.49917603,1.3647308,0.77102053,-1.3816773,-1.4645141,90.0
1494,1.3058417,-0.16835785,0.3610096,0.77102053,-1.3816773,-1.4645141,90.0
1495,1.3058417,-0.16835785,0.3610096,0.91120607,-1.2011353,-1.4305298,90.0
1496,1.4388018,0.21662903,-0.16849136,0.91120607,-1.2011353,-1.4305298,90.0
1497,1.4388018,0.21662903,-0.16849136,0.7072998,-0.8889038,-1.3498169,90.0
1498,0.40976942,0.37980652,0.08492088,0.7072998,-0.8889038,-1.3498169,90.0
1499,0.40976942,0.37980652,0.08492088,0.31329346,-0.6637573,-1.2552979,90.0
1500,-0.6857953,0.3438263,0.6733074,0.31329346,-0.6637573,-1.2552979,90.0
1501,-0.6857953,0.3438263,0.6733074,-0.21452637,-0.55543214,-1.1660889,90.0
1502,-1.1563632,0.22322083,1.0548935,-0.21452637,-0.55543214,-1.1660889,90.0
1503,-1.1563632,0.22322083,1.0548935,-0.75721437,-0.49383545,-1.1161743,90.0
1504,-1.0841117,-0.032836914,1.0941696,-0.75721437,-0.49383545,-1.1161743,90.0
1505,-1.0841117,-0.032836914,1.0941696,-1.0354614,-0.45772704,-1.1299804,90.0
1506,-0.83934736,-0.43334198,0.9454651,-1.0354614,-0.45772704,-1.1299804,90.0
1507,-0.83934736,-0.43334198,0.9454651,-0.96643066,-0.43117675,-1.1629028,90.0
1508,-0.6157162,-0.7309723,0.7001457,-0.96643066,-0.43117675,-1.1629028,90.0
1509,-0.6157162,-0.7309723,0.7001457,-0.7317261,-0.39082032,-1.1958252,90.0
1510,-0.4271555,-0.77602386,0.4007187,-0.7317261,-0.39082032,-1.1958252,90.0
1511,-0.4271555,-0.77602386,0.4007187,-0.45135498,-0.3175415,-1.2266235,90.0
1512,-0.28909993,-0.67762756,0.15890503,-0.45135498,-0.3175415,-1.2266235,90.0
1513,-0.28909993,-0.67762756,0.15890503,-0.20496826,-0.2262085,-1.2393677,90.0
1514,-0.19181466,-0.5377426,0.085948944,-0.20496826,-0.2262085,-1.2393677,90.0
1515,-0.19181466,-0.5377426,0.085948944,-0.06478272,-0.13275146,-1.2223755,90.0
1516,-0.14222121,-0.39806366,0.12868118,-0.06478272,-0.13275146,-1.2223755,90.0
1517,-0.14222121,-0.39806366,0.12868118,-0.053100586,-0.06903076,-1.1575928,90.0
1518,-0.09014416,-0.28761292,0.12963104,-0.053100586,-0.06903076,-1.1575928,90.0
1519,-0.09014416,-0.28761292,0.12963104,-0.12531738,-0.09133301,-1.0705079,90.0
1520,0.25383687,-0.27339935,-0.025260925,-0.12531738,-0.09133301,-1.0705079,90.0
1521,0.25383687,-0.27339935,-0.025260925,-0.18585205,-0.078588866,-0.9685547,90.0
1522,1.0582331,-0.33576202,-0.3183403,-0.18585205,-0.078588866,-0.9685547,90.0
1523,1.0582331,-0.33576202,-0.3183403,-0.23151855,-0.04248047,-0.8517334,90.0
1524,1.8982711,-0.36804962,-0.63261414,-0.23151855,-0.04248047,-0.8517334,90.0
1525,1.8982711,-0.36804962,-0.63261414,-0.32285157,0.057348635,-0.69986576,90.0
1526,2.2892346,-0.35492706,-0.811573,-0.32285157,0.057348635,-0.69986576,90.0
1527,2.2892346,-0.35492706,-0.811573,-0.36320803,0.1529297,-0.48215333,90.0
1528,2.4810703,-0.30695343,-0.89424133,-0.36320803,0.1529297,-0.48215333,90.0
1529,2.4810703,-0.30695343,-0.89424133,-0.3175415,0.18266602,-0.19116211,90.0
1530,2.7171805,-0.17469025,-0.8897705,-0.3175415,0.18266602,-0.19116211,90.0
1531,2.7171805,-0.17469025,-0.8897705,-0.2177124,0.24851075,0.13912354,90.0
1532,2.402492,0.06239319,-0.6941166,-0.2177124,0.24851075,0.13912354,90.0
1533,2.402492,0.06239319,-0.6941166,-0.11151123,0.22514649,0.452417,90.0
1534,1.4534512,0.22428894,-0.44711494,-0.11151123,0.22514649,0.452417,90.0
1535,1.4534512,0.22428894,-0.44711494,0.078588866,0.1529297,0.6945557,90.0
1536,0.17673802,0.16680908,-0.28400993,0.078588866,0.1529297,0.6945557,90.0
1537,0.17673802,0.16680908,-0.28400993,0.32285157,0.124255374,0.92076415,90.0
1538,-1.3340613,0.040260315,-0.08134651,0.32285157,0.124255374,0.92076415,90.0
1539,-1.3340613,0.040260315,-0.08134651,0.65632325,0.08283692,1.1257324,90.0
1540,-2.3264165,0.02645874,0.1153183,0.65632325,0.08283692,1.1257324,90.0
1541,-2.3264165,0.02645874,0.1153183,0.96643066,0.0541626,1.3105224,90.0
1542,-2.3264165,0.02645874,0.1153183,0.96643066,0.0541626,1.3105224,90.0
1543,-2.0750494,0.100112915,0.16205406,0.96643066,0.0541626,1.3105224,90.0
1544,-2.0750494,0.100112915,0.16205406,1.3115845,0.07540283,1.454956,90.0
1545,-0.98962927,0.11682129,0.123075485,1.3115845,0.07540283,1.454956,90.0
1546,-0.98962927,0.11682129,0.123075485,1.722583,0.1263794,1.4910644,90.0
1547,-0.049589187,0.0639267,0.059288025,1.722583,0.1263794,1.4910644,90.0
1548,-0.049589187,0.0639267,0.059288025,2.084729,0.21134034,1.4369019,90.0
1549,0.25553128,0.0010070801,-0.0790596,2.084729,0.21134034,1.4369019,90.0
1550,0.25553128,0.0010070801,-0.0790596,2.2748291,0.33771974,1.3753052,90.0
1551,-0.03151247,0.011947632,-0.23013115,2.2748291,0.33771974,1.3753052,90.0
1552,-0.03151247,0.011947632,-0.23013115,2.182434,0.46728516,1.358313,90.0
1553,-0.66908205,0.13114166,-0.2548809,2.182434,0.46728516,1.358313,90.0
1554,-0.66908205,0.13114166,-0.2548809,1.8850708,0.5533081,1.356189,90.0
1555,-1.3001461,0.33396912,-0.14363861,1.8850708,0.5533081,1.356189,90.0
1556,-1.3001461,0.33396912,-0.14363861,1.4772583,0.5851685,1.4188477,90.0
1557,-1.6461716,0.46821594,-0.010246277,1.4772583,0.5851685,1.4188477,90.0
1558,-1.6461716,0.46821594,-0.010246277,1.0333375,0.5979126,1.4857544,90.0
1559,-1.7101868,0.39583588,0.043878555,1.0333375,0.5979126,1.4857544,90.0
1560,-1.7101868,0.39583588,0.043878555,0.6839356,0.5957886,1.5292969,90.0
1561,-1.5851905,0.18247986,-0.06023407,0.6839356,0.5957886,1.5292969,90.0
1562,-1.5851905,0.18247986,-0.06023407,0.49171144,0.6085327,1.5335449,90.0
1563,-1.3321905,-0.035446167,-0.26873207,0.49171144,0.6085327,1.5335449,90.0
1564,-1.3321905,-0.035446167,-0.26873207,0.46622315,0.635083,1.4613281,90.0
1565,-1.0295098,-0.13405609,-0.4322586,0.46622315,0.635083,1.4613281,90.0
1566,-1.0295098,-0.13405609,-0.4322586,0.4991455,0.67331547,1.3476928,90.0
1567,-0.7218623,-0.0790329,-0.49469757,0.4991455,0.67331547,1.3476928,90.0
1568,-0.7218623,-0.0790329,-0.49469757,0.5161377,0.71367186,1.1937011,90.0
1569,-0.7218623,-0.0790329,-0.49469757,0.41206056,0.7508423,1.0163453,90.0
1570,-0.39754605,0.10166931,-0.47842407,0.41206056,0.7508423,1.0163453,90.0
1571,0.51676536,1.3856354,-0.6289902,0.41206056,0.7508423,1.0163453,90.0
1572,0.51676536,1.3856354,-0.6289902,0.13168946,0.76464844,0.8092529,90.0
1573,0.51676536,1.3856354,-0.6289902,-0.2814331,0.78376466,0.56392825,90.0
