,accx,accy,accz,gyrox,gyroy,gyroz,heart rate
0,walk,walk,walk,walk,walk,walk,walk
1,-1.3824341,-62.340065,37.75244,0.0,0.0,0.0,0.0
2,-1.3824341,-62.340065,37.75244,0.14018555,0.007434082,-0.12531738,0.0
3,-1.1348047,-49.742584,30.31482,0.14018555,0.007434082,-0.12531738,0.0
4,-1.1348047,-49.742584,30.31482,0.14549561,-0.033984374,-0.16992188,0.0
5,-0.86814654,-39.539955,24.1334,0.14549561,-0.033984374,-0.16992188,0.0
6,-0.86814654,-39.539955,24.1334,0.07434082,-0.020178223,-0.16036378,0.0
7,-0.64354074,-31.418694,19.180634,0.07434082,-0.020178223,-0.16036378,0.0
8,-0.64354074,-31.418694,19.180634,-0.015930176,0.015930176,-0.1178833,0.0
9,-0.5104747,-25.102974,15.337818,-0.015930176,0.015930176,-0.1178833,0.0
10,-0.5104747,-25.102974,15.337818,-0.081774905,0.012744141,-0.078588866,0.0
11,-0.39240074,-20.249992,12.306435,-0.081774905,0.012744141,-0.078588866,0.0
12,-0.39240074,-20.249992,12.306435,0.009558106,-0.053100586,-0.12850343,0.0
13,-0.24186254,-16.326435,9.906818,0.009558106,-0.053100586,-0.12850343,0.0
14,-0.24186254,-16.326435,9.906818,0.07752686,0.0063720704,-0.11044922,0.0
15,-0.15697873,-13.039284,8.001724,0.07752686,0.0063720704,-0.11044922,0.0
16,-0.15697873,-13.039284,8.001724,0.047790527,-0.009558106,-0.13487549,0.0
17,-0.14637148,-10.361763,6.429043,0.047790527,-0.009558106,-0.13487549,0.0
18,-0.14637148,-10.361763,6.429043,0.03717041,-0.06478272,-0.1539917,0.0
19,-0.097724676,-8.224495,5.10128,0.03717041,-0.06478272,-0.1539917,0.0
20,-0.097724676,-8.224495,5.10128,0.0063720704,-0.057348635,-0.15930176,0.0
21,-0.030865312,-6.5882034,4.054081,0.0063720704,-0.057348635,-0.15930176,0.0
22,-0.030865312,-6.5882034,4.054081,0.06584473,-0.04991455,-0.16992188,0.0
23,-0.007870913,-5.3230057,3.2927513,0.06584473,-0.04991455,-0.16992188,0.0
24,-0.007870913,-5.3230057,3.2927513,0.1359375,-0.0361084,-0.16567384,0.0
25,-0.007870913,-5.3230057,3.2927513,0.13912354,-0.0722168,-0.19434814,0.0
26,-0.014890432,-4.2136383,2.7065163,0.13912354,-0.0722168,-0.19434814,0.0
27,0.013576031,-3.2404099,2.1618347,0.13912354,-0.0722168,-0.19434814,0.0
28,0.013576031,-3.2404099,2.1618347,0.07115479,-0.06903076,-0.18797608,0.0
29,0.07926905,-2.5168533,1.6661148,0.07115479,-0.06903076,-0.18797608,0.0
30,0.07926905,-2.5168533,1.6661148,0.02442627,-0.059472658,-0.18585205,0.0
31,0.123070955,-2.0507736,1.303154,0.02442627,-0.059472658,-0.18585205,0.0
32,0.123070955,-2.0507736,1.303154,0.040356446,-0.039294433,-0.1731079,0.0
33,0.104059815,-1.6592331,1.0793037,0.040356446,-0.039294433,-0.1731079,0.0
34,0.104059815,-1.6592331,1.0793037,0.0361084,-0.038232423,-0.13168946,0.0
35,0.06875813,-1.3078308,0.8821907,0.0361084,-0.038232423,-0.13168946,0.0
36,0.06875813,-1.3078308,0.8821907,0.05522461,-0.06584473,-0.13806152,0.0
37,0.075294614,-1.0403061,0.6656532,0.05522461,-0.06584473,-0.13806152,0.0
38,0.075294614,-1.0403061,0.6656532,0.10301514,-0.016992187,-0.08920898,0.0
39,0.08328259,-0.8122864,0.52391434,0.10301514,-0.016992187,-0.08920898,0.0
40,0.08328259,-0.8122864,0.52391434,0.08496094,-0.010620117,-0.115759276,0.0
41,0.057519674,-0.7002411,0.45602417,0.08496094,-0.010620117,-0.115759276,0.0
42,0.057519674,-0.7002411,0.45602417,0.1539917,-0.07434082,-0.15823975,0.0
43,0.0522902,-0.61994934,0.39748764,0.1539917,-0.07434082,-0.15823975,0.0
44,0.0522902,-0.61994934,0.39748764,0.30267334,-0.13381349,-0.1720459,0.0
45,0.1790148,-0.37467194,0.45086288,0.30267334,-0.13381349,-0.1720459,0.0
46,0.1790148,-0.37467194,0.45086288,0.46622315,-0.43754885,-0.0722168,0.0
47,0.16407359,-0.22109985,0.72514343,0.46622315,-0.43754885,-0.0722168,0.0
48,0.16407359,-0.22109985,0.72514343,0.42268068,0.121069334,0.18797608,0.0
49,-0.29159272,0.08609772,1.0070801,0.42268068,0.121069334,0.18797608,0.0
50,-0.29159272,0.08609772,1.0070801,0.13062744,-0.35577393,0.027612304,0.0
51,-0.29159272,0.08609772,1.0070801,-0.26868898,-0.43117675,-0.06690674,0.0
52,-0.3565408,0.48767853,0.8065796,-0.26868898,-0.43117675,-0.06690674,0.0
53,0.086886525,0.19742584,0.1285286,-0.26868898,-0.43117675,-0.06690674,0.0
54,0.086886525,0.19742584,0.1285286,-0.025488282,-0.22833252,-0.019116212,0.0
55,0.23071527,-0.316185,-0.34998703,-0.025488282,-0.22833252,-0.019116212,0.0
56,0.23071527,-0.316185,-0.34998703,0.11257324,-0.27293703,-0.008496094,0.0
57,0.15471387,-0.46839142,-0.40959167,0.11257324,-0.27293703,-0.008496094,0.0
58,0.15471387,-0.46839142,-0.40959167,0.22408448,-0.270813,-0.019116212,0.0
59,0.116166115,-0.31184387,-0.29043198,0.22408448,-0.270813,-0.019116212,0.0
60,0.116166115,-0.31184387,-0.29043198,0.32497558,-0.23151855,0.0021240234,0.0
61,0.1700691,0.035705566,-0.19369888,0.32497558,-0.23151855,0.0021240234,0.0
62,0.1700691,0.035705566,-0.19369888,0.270813,-0.1996582,-0.0010620117,0.0
63,0.22504449,0.30700684,-0.23414612,0.270813,-0.1996582,-0.0010620117,0.0
64,0.22504449,0.30700684,-0.23414612,0.1901001,-0.13487549,-0.032922365,0.0
65,0.23425925,0.34026337,-0.32234955,0.1901001,-0.13487549,-0.032922365,0.0
66,0.23425925,0.34026337,-0.32234955,0.14868164,-0.10938721,-0.045666505,0.0
67,0.24133801,0.17759705,-0.32637405,0.14868164,-0.10938721,-0.045666505,0.0
68,0.24133801,0.17759705,-0.32637405,0.18691407,-0.0722168,-0.026550293,0.0
69,0.24133801,0.17759705,-0.32637405,0.1985962,-0.02442627,0.03079834,0.0
70,0.23505044,0.0949707,-0.2788849,0.1985962,-0.02442627,0.03079834,0.0
71,0.21575034,0.30012512,-0.2867279,0.1985962,-0.02442627,0.03079834,0.0
72,0.21575034,0.30012512,-0.2867279,0.06690674,0.0,0.04991455,0.0
73,0.23844498,0.5397949,-0.3739624,0.06690674,0.0,0.04991455,0.0
74,0.23844498,0.5397949,-0.3739624,-0.06796875,0.05522461,0.06584473,0.0
75,0.2657926,0.6463394,-0.47562027,-0.06796875,0.05522461,0.06584473,0.0
76,0.2657926,0.6463394,-0.47562027,-0.20603028,0.15611573,0.118945315,0.0
77,0.2657926,0.6463394,-0.47562027,-0.40250245,0.2527588,0.20603028,0.0
78,0.16235334,0.700943,-0.53961563,-0.40250245,0.2527588,0.20603028,0.0
79,-0.09045428,0.73007965,-0.6277466,-0.40250245,0.2527588,0.20603028,0.0
80,-0.09045428,0.73007965,-0.6277466,-0.6839356,0.32816163,0.31329346,0.0
81,-0.3841188,0.75914,-0.832119,-0.6839356,0.32816163,0.31329346,0.0
82,-0.3841188,0.75914,-0.832119,-1.0577637,0.42905274,0.43861085,0.0
83,-0.63202643,0.7076874,-1.0753021,-1.0577637,0.42905274,0.43861085,0.0
84,-0.63202643,0.7076874,-1.0753021,-1.4719483,0.5703003,0.5501221,0.0
85,-0.8394835,0.44769287,-1.2494125,-1.4719483,0.5703003,0.5501221,0.0
86,-0.8394835,0.44769287,-1.2494125,-1.8468384,0.6786255,0.6425171,0.0
87,-1.0163622,0.014572144,-1.3006783,-1.8468384,0.6786255,0.6425171,0.0
88,-1.0163622,0.014572144,-1.3006783,-2.090039,0.7742066,0.75509036,0.0
89,-1.0163622,0.014572144,-1.3006783,-2.090039,0.7742066,0.75509036,90.0
90,-1.1758461,-0.37044525,-1.2405052,-2.090039,0.7742066,0.75509036,90.0
91,-1.1758461,-0.37044525,-1.2405052,-2.255713,0.89102787,0.9696167,90.0
92,-1.4306793,-0.60087585,-1.151062,-2.255713,0.89102787,0.9696167,90.0
93,-1.4306793,-0.60087585,-1.151062,-2.4160767,0.9589966,1.1873292,90.0
94,-1.8455567,-1.0639801,-0.9835472,-2.4160767,0.9589966,1.1873292,90.0
95,-1.8455567,-1.0639801,-0.9835472,-2.362976,0.8878418,1.3094605,90.0
96,-2.277483,-1.9121246,-0.7252426,-2.362976,0.8878418,1.3094605,90.0
97,-2.277483,-1.9121246,-0.7252426,-2.1272094,0.7338501,1.4815063,90.0
98,-2.539894,-2.48098,-0.6258011,-2.1272094,0.7338501,1.4815063,90.0
99,-2.539894,-2.48098,-0.6258011,-1.8001099,0.632959,1.8340943,90.0
100,-2.5455503,-2.2478561,-0.84960175,-1.8001099,0.632959,1.8340943,90.0
101,-2.5455503,-2.2478561,-0.84960175,-1.6588624,0.61915284,2.1038454,90.0
102,-2.374673,-1.5019455,-1.2418404,-1.6588624,0.61915284,2.1038454,90.0
103,-2.374673,-1.5019455,-1.2418404,-1.7820557,0.5968506,2.2928834,90.0
104,-2.0887885,-0.79946136,-1.6623802,-1.7820557,0.5968506,2.2928834,90.0
105,-2.0887885,-0.79946136,-1.6623802,-2.0507448,0.632959,2.4882934,90.0
106,-1.8258286,-0.3302765,-2.0568428,-2.0507448,0.632959,2.4882934,90.0
107,-1.8258286,-0.3302765,-2.0568428,-2.3863404,0.7965088,2.7283082,90.0
108,-1.8284364,-0.086875916,-2.33461,-2.3863404,0.7965088,2.7283082,90.0
109,-1.8284364,-0.086875916,-2.33461,-2.704944,0.9589966,2.989563,90.0
110,-2.163457,-0.080451965,-2.5333633,-2.704944,0.9589966,2.989563,90.0
111,-2.163457,-0.080451965,-2.5333633,-2.9375246,1.0259033,3.2115235,90.0
112,-2.5627236,-0.13825989,-2.7239914,-2.9375246,1.0259033,3.2115235,90.0
113,-2.5627236,-0.13825989,-2.7239914,-3.1010742,1.0471436,3.524817,90.0
114,-2.821309,-0.013748169,-2.8862228,-3.1010742,1.0471436,3.524817,90.0
115,-2.821309,-0.013748169,-2.8862228,-3.330469,1.1087402,3.8179321,90.0
116,-3.0165806,0.21004486,-3.0505562,-3.330469,1.1087402,3.8179321,90.0
117,-3.0165806,0.21004486,-3.0505562,-3.5237548,1.2000732,4.072815,90.0
118,-3.2709064,0.31526184,-3.2127,-3.5237548,1.2000732,4.072815,90.0
119,-3.2709064,0.31526184,-3.2127,-3.6448243,1.2935303,4.331946,90.0
120,-3.6751242,0.17582703,-3.1978722,-3.6448243,1.2935303,4.331946,90.0
121,-3.6751242,0.17582703,-3.1978722,-3.5917237,1.4602661,4.5496583,90.0
122,-4.2789783,-0.22975922,-2.9208107,-3.5917237,1.4602661,4.5496583,90.0
123,-4.2789783,-0.22975922,-2.9208107,-3.3984375,1.5420411,4.620813,90.0
124,-4.874758,-0.4936676,-2.5132828,-3.3984375,1.5420411,4.620813,90.0
125,-4.874758,-0.4936676,-2.5132828,-3.0416017,1.5059327,4.8480835,90.0
126,-5.1323996,-0.26026917,-2.1313286,-3.0416017,1.5059327,4.8480835,90.0
127,-5.1323996,-0.26026917,-2.1313286,-2.7930908,1.536731,4.9245486,90.0
128,-5.070837,0.26316833,-1.8173447,-2.7930908,1.536731,4.9245486,90.0
129,-5.070837,0.26316833,-1.8173447,-2.5626342,1.6620483,4.912866,90.0
130,-4.9863815,0.74256897,-1.4489326,-2.5626342,1.6620483,4.912866,90.0
131,-4.9863815,0.74256897,-1.4489326,-2.264209,1.807544,4.8183475,90.0
132,-5.0993843,0.9975357,-0.84104156,-2.264209,1.807544,4.8183475,90.0
133,-5.0993843,0.9975357,-0.84104156,-1.9233032,1.9264892,4.6569214,90.0
134,-5.211685,0.8536682,-0.035823822,-1.9233032,1.9264892,4.6569214,90.0
135,-5.211685,0.8536682,-0.035823822,-1.4984986,1.6514282,4.35531,90.0
136,-4.6080685,0.33231354,0.43239975,-1.4984986,1.6514282,4.35531,90.0
137,-4.6080685,0.33231354,0.43239975,-1.0152832,1.0407715,3.981482,90.0
138,-2.9233093,-0.13510132,0.017417908,-1.0152832,1.0407715,3.981482,90.0
139,-2.9233093,-0.13510132,0.017417908,-0.7519043,0.75509036,3.4610963,90.0
140,-1.0118027,-0.19051361,-0.96271515,-0.7519043,0.75509036,3.4610963,90.0
141,-1.0118027,-0.19051361,-0.96271515,-0.7604004,0.82730716,2.7654786,90.0
142,0.13363647,0.044021606,-1.5466728,-0.7604004,0.82730716,2.7654786,90.0
143,0.13363647,0.044021606,-1.5466728,-0.7519043,0.7540283,1.9795898,90.0
144,0.58597374,0.3195343,-1.2788544,-0.7519043,0.7540283,1.9795898,90.0
145,0.58597374,0.3195343,-1.2788544,-0.6552612,0.54587406,1.3317627,90.0
146,0.9128952,0.5769043,-0.63817215,-0.6552612,0.54587406,1.3317627,90.0
147,0.9128952,0.5769043,-0.63817215,-0.61065674,0.5628662,0.71154785,90.0
148,1.0780087,0.7707672,-0.14030838,-0.61065674,0.5628662,0.71154785,90.0
149,1.0780087,0.7707672,-0.14030838,-0.6425171,0.6988037,0.14549561,90.0
150,0.8146038,0.73734283,0.039413452,-0.6425171,0.6988037,0.14549561,90.0
151,0.8146038,0.73734283,0.039413452,-0.58410645,0.5341919,-0.25063476,90.0
152,0.60362434,0.47481537,-0.13192368,-0.58410645,0.5341919,-0.25063476,90.0
153,0.60362434,0.47481537,-0.13192368,-0.34727785,0.14974366,-0.46409914,90.0
154,1.0967541,0.17381287,-0.44884872,-0.34727785,0.14974366,-0.46409914,90.0
155,1.0967541,0.17381287,-0.44884872,0.040356446,-0.1359375,-0.67225343,90.0
156,2.0861683,0.15760803,-0.6669655,0.040356446,-0.1359375,-0.67225343,90.0
157,2.0861683,0.15760803,-0.6669655,0.2442627,-0.35577393,-0.9122681,90.0
158,2.8815804,0.6856766,-0.942276,0.2442627,-0.35577393,-0.9122681,90.0
159,2.8815804,0.6856766,-0.942276,0.16779785,-0.4078125,-1.273352,90.0
160,3.0729885,1.2250061,-1.2621078,0.16779785,-0.4078125,-1.273352,90.0
161,3.0729885,1.2250061,-1.2621078,0.09451904,-0.38232422,-1.7300171,90.0
162,2.6170464,1.2774734,-1.3558426,0.09451904,-0.38232422,-1.7300171,90.0
163,2.6170464,1.2774734,-1.3558426,0.16354981,-0.38551027,-2.0549927,90.0
164,1.7866783,1.0659332,-1.1552315,0.16354981,-0.38551027,-2.0549927,90.0
165,1.7866783,1.0659332,-1.1552315,0.362146,-0.44073486,-2.170752,90.0
166,0.98931694,0.77132416,-0.8332062,0.362146,-0.44073486,-2.170752,90.0
167,0.98931694,0.77132416,-0.8332062,0.6265869,-0.4959595,-2.2344728,90.0
168,0.37259293,0.46595,-0.54865646,0.6265869,-0.4959595,-2.2344728,90.0
169,0.37259293,0.46595,-0.54865646,0.8315552,-0.51188964,-2.2238526,90.0
170,-0.10064316,0.2702942,-0.31713676,0.8315552,-0.51188964,-2.2238526,90.0
171,-0.10064316,0.2702942,-0.31713676,0.9281983,-0.60959476,-2.1973023,90.0
172,-0.39211082,0.17523193,-0.11231613,0.9281983,-0.60959476,-2.1973023,90.0
173,-0.39211082,0.17523193,-0.11231613,1.0641358,-0.6839356,-2.1526978,90.0
174,-0.48503876,0.1067276,0.044900894,1.0641358,-0.6839356,-2.1526978,90.0
175,-0.48503876,0.1067276,0.044900894,1.2319336,-0.7062378,-2.0687988,90.0
176,-0.47748375,0.0434494,0.15912628,1.2319336,-0.7062378,-2.0687988,90.0
177,-0.47748375,0.0434494,0.15912628,1.3360108,-0.7455322,-1.9562256,90.0
178,-0.42344284,-0.021125793,0.24326706,1.3360108,-0.7455322,-1.9562256,90.0
179,-0.42344284,-0.021125793,0.24326706,1.3869873,-0.86553955,-1.8425903,90.0
180,-0.26503563,-0.07676697,0.25505066,1.3869873,-0.86553955,-1.8425903,90.0
181,-0.26503563,-0.07676697,0.25505066,1.3795532,-0.9855469,-1.7703736,90.0
182,-0.013456345,-0.07707214,0.14482498,1.3795532,-0.9855469,-1.7703736,90.0
183,-0.013456345,-0.07707214,0.14482498,1.268042,-1.0471436,-1.7406372,90.0
184,0.19757271,-0.0256958,0.014213562,1.268042,-1.0471436,-1.7406372,90.0
185,0.19757271,-0.0256958,0.014213562,1.0906861,-1.0312134,-1.725769,90.0
186,0.19491196,0.01033783,-0.01473999,1.0906861,-1.0312134,-1.725769,90.0
187,0.19491196,0.01033783,-0.01473999,0.86978763,-1.002539,-1.6960328,90.0
188,-0.013210297,0.03691101,0.05682373,0.86978763,-1.002539,-1.6960328,90.0
189,-0.013210297,0.03691101,0.05682373,0.6446411,-0.96218264,-1.63125,90.0
190,-0.24833679,0.017738342,0.18349457,0.6446411,-0.96218264,-1.63125,90.0
191,-0.24833679,0.017738342,0.18349457,0.5246338,-0.85598147,-1.5186768,90.0
192,-0.4806404,-0.07472229,0.38492966,0.5246338,-0.85598147,-1.5186768,90.0
193,-0.4806404,-0.07472229,0.38492966,0.48746338,-0.73597413,-1.358313,90.0
194,-0.8422394,-0.10384369,0.49966812,0.48746338,-0.73597413,-1.358313,90.0
195,-0.8422394,-0.10384369,0.49966812,0.33984375,-0.6074707,-1.1618408,90.0
196,-1.2550545,0.041763306,0.33779526,0.33984375,-0.6074707,-1.1618408,90.0
197,-1.2550545,0.041763306,0.33779526,0.081774905,-0.6488892,-0.9494385,90.0
198,-1.323185,0.19090271,0.030952454,0.081774905,-0.6488892,-0.9494385,90.0
199,-1.323185,0.19090271,0.030952454,-0.20072022,-0.71154785,-0.77102053,90.0
200,-0.9000759,0.24417877,-0.17206573,-0.20072022,-0.71154785,-0.77102053,90.0
201,-0.9000759,0.24417877,-0.17206573,-0.4078125,-0.63720703,-0.57561034,90.0
202,-0.34238815,0.26592255,-0.10675812,-0.4078125,-0.63720703,-0.57561034,90.0
203,-0.34238815,0.26592255,-0.10675812,-0.5320679,-0.3727661,-0.38975832,90.0
204,-0.2720909,0.332695,0.0714798,-0.5320679,-0.3727661,-0.38975832,90.0
205,-0.2720909,0.332695,0.0714798,-0.7189819,-0.025488282,-0.20072022,90.0
206,-0.2720909,0.332695,0.0714798,-0.7189819,-0.025488282,-0.20072022,90.0
207,-0.59714127,0.38900757,0.1435852,-0.7189819,-0.025488282,-0.20072022,90.0
208,-0.59714127,0.38900757,0.1435852,-0.80819094,-0.24213867,-0.057348635,90.0
209,-0.08177757,0.37101746,0.11980057,-0.80819094,-0.24213867,-0.057348635,90.0
210,-0.08177757,0.37101746,0.11980057,-0.6881836,-0.7147339,0.1709839,90.0
211,1.6864204,0.47434998,0.0034561157,-0.6881836,-0.7147339,0.1709839,90.0
212,1.6864204,0.47434998,0.0034561157,-0.6202149,-0.41418457,0.4078125,90.0
213,3.1054955,0.7746811,-0.19937134,-0.6202149,-0.41418457,0.4078125,90.0
214,3.1054955,0.7746811,-0.19937134,-0.69349366,0.33240968,0.36533204,90.0
215,2.6189175,1.0142899,-0.2779808,-0.69349366,0.33240968,0.36533204,90.0
216,2.6189175,1.0142899,-0.2779808,-0.6786255,0.64782715,0.37807617,90.0
217,0.9604168,0.96752167,-0.114364624,-0.6786255,0.64782715,0.37807617,90.0
218,0.9604168,0.96752167,-0.114364624,-0.5671143,0.2516968,0.6616333,90.0
219,0.17534065,0.693573,0.07078934,-0.5671143,0.2516968,0.6616333,90.0
220,0.17534065,0.693573,0.07078934,-0.47790527,0.12213135,0.9770508,90.0
221,0.6717663,0.4534912,0.14248276,-0.47790527,0.12213135,0.9770508,90.0
222,0.6717663,0.4534912,0.14248276,-0.5033936,0.2442627,1.2149414,90.0
223,1.2953224,0.34098053,0.17886734,-0.5033936,0.2442627,1.2149414,90.0
224,1.2953224,0.34098053,0.17886734,-0.53525394,0.2623169,1.3689331,90.0
225,1.3723669,0.2877655,0.14340973,-0.53525394,0.2623169,1.3689331,90.0
226,1.3723669,0.2877655,0.14340973,-0.5256958,0.25594482,1.5346069,90.0
227,1.1068783,0.19669342,0.0073547363,-0.5256958,0.25594482,1.5346069,90.0
228,1.1068783,0.19669342,0.0073547363,-0.5501221,0.26975098,1.6578003,90.0
229,0.7972336,0.036994934,-0.11746597,-0.5501221,0.26975098,1.6578003,90.0
230,0.7972336,0.036994934,-0.11746597,-0.5649902,0.36320803,1.7714356,90.0
231,0.39514732,-0.06715393,-0.17020416,-0.5649902,0.36320803,1.7714356,90.0
232,0.39514732,-0.06715393,-0.17020416,-0.6042847,0.54693604,1.8818848,90.0
233,-0.19287872,-0.08766174,-0.10379028,-0.6042847,0.54693604,1.8818848,90.0
234,-0.19287872,-0.08766174,-0.10379028,-0.6510132,0.6074707,1.9817139,90.0
235,-0.6590271,-0.19643402,0.07796478,-0.6510132,0.6074707,1.9817139,90.0
236,-0.6590271,-0.19643402,0.07796478,-0.6042847,0.59047854,2.1155274,90.0
237,-0.7008419,-0.41523743,0.28795624,-0.6042847,0.59047854,2.1155274,90.0
238,-0.7008419,-0.41523743,0.28795624,-0.4428589,0.72216797,2.262085,90.0
239,-0.5636883,-0.59924316,0.59158325,-0.4428589,0.72216797,2.262085,90.0
240,-0.5636883,-0.59924316,0.59158325,-0.24638672,0.8878418,2.351294,90.0
241,-0.6289778,-0.70308685,1.0000992,-0.24638672,0.8878418,2.351294,90.0
242,-0.6289778,-0.70308685,1.0000992,-0.078588866,0.9260742,2.4043946,90.0
243,-0.85458565,-0.96006775,1.3326721,-0.078588866,0.9260742,2.4043946,90.0
244,-0.85458565,-0.96006775,1.3326721,-0.2782471,0.8485474,2.1866822,90.0
245,-0.98937035,-1.3822784,1.4484138,-0.2782471,0.8485474,2.1866822,90.0
246,-0.98937035,-1.3822784,1.4484138,-0.9653687,0.74447024,1.9424194,90.0
247,-1.0285931,-2.0501328,1.6198044,-0.9653687,0.74447024,1.9424194,90.0
248,-1.0285931,-2.0501328,1.6198044,-1.0259033,0.65844727,1.7555054,90.0
249,-1.2898903,-3.1695023,2.0055847,-1.0259033,0.65844727,1.7555054,90.0
250,-1.2898903,-3.1695023,2.0055847,-0.5320679,0.3802002,1.2850342,90.0
251,-1.691494,-3.8829956,1.9466782,-0.5320679,0.3802002,1.2850342,90.0
252,-1.691494,-3.8829956,1.9466782,-0.32391357,-0.087084964,0.6265869,90.0
253,-1.7509861,-3.634903,1.188385,-0.32391357,-0.087084964,0.6265869,90.0
254,-1.7509861,-3.634903,1.188385,-0.26762697,-0.23682861,-0.11044922,90.0
255,-1.7515335,-2.9717712,0.5731697,-0.26762697,-0.23682861,-0.11044922,90.0
256,-1.7515335,-2.9717712,0.5731697,-0.1901001,-0.17841797,-0.91864014,90.0
257,-2.3538628,-2.0727386,0.5644798,-0.1901001,-0.17841797,-0.91864014,90.0
258,-2.3538628,-2.0727386,0.5644798,-0.19541016,-0.3058594,-1.6195679,90.0
259,-3.0783653,-0.93452454,0.6208954,-0.19541016,-0.3058594,-1.6195679,90.0
260,-3.0783653,-0.93452454,0.6208954,-0.11363526,-0.8358032,-2.0380006,90.0
261,-2.6486778,0.11289978,0.15727615,-0.11363526,-0.8358032,-2.0380006,90.0
262,-2.6486778,0.11289978,0.15727615,-0.06584473,-1.3009644,-2.4681153,90.0
263,-1.1725674,0.77575684,-0.76844406,-0.06584473,-1.3009644,-2.4681153,90.0
264,-1.1725674,0.77575684,-0.76844406,-0.07327881,-1.0683838,-2.9555786,90.0
265,-0.33867645,0.8812027,-1.4507904,-0.07327881,-1.0683838,-2.9555786,90.0
266,-0.33867645,0.8812027,-1.4507904,0.271875,-0.9589966,-3.2497559,90.0
267,-0.70215416,0.73075104,-1.4785881,0.271875,-0.9589966,-3.2497559,90.0
268,-0.70215416,0.73075104,-1.4785881,0.69349366,-1.2096313,-3.342151,90.0
269,-1.1207314,0.7867279,-1.2128868,0.69349366,-1.2096313,-3.342151,90.0
270,-1.1207314,0.7867279,-1.2128868,0.87403566,-1.537793,-3.4101198,90.0
271,-0.74469185,0.8521576,-1.147129,0.87403566,-1.537793,-3.4101198,90.0
272,-0.74469185,0.8521576,-1.147129,0.74659425,-1.5208008,-3.5949097,90.0
273,0.016845703,0.6708374,-1.1746483,0.74659425,-1.5208008,-3.5949097,90.0
274,0.016845703,0.6708374,-1.1746483,0.6446411,-1.5006226,-3.722351,90.0
275,0.6026001,0.40132904,-0.883934,0.6446411,-1.5006226,-3.722351,90.0
276,0.6026001,0.40132904,-0.883934,0.8092529,-1.6238159,-3.7467773,90.0
277,1.1775875,0.029693604,-0.31058884,0.8092529,-1.6238159,-3.7467773,90.0
278,1.1775875,0.029693604,-0.31058884,0.9154541,-1.7119629,-3.8274903,90.0
279,1.7745285,-0.38951874,0.21030807,0.9154541,-1.7119629,-3.8274903,90.0
280,1.7745285,-0.38951874,0.21030807,0.81987303,-1.536731,-3.79032,90.0
281,1.8455257,-0.77656555,0.84126663,0.81987303,-1.536731,-3.79032,90.0
282,1.8455257,-0.77656555,0.84126663,1.1406006,-1.538855,-3.6490724,90.0
283,1.3538132,-1.150383,1.5808258,1.1406006,-1.538855,-3.6490724,90.0
284,1.3538132,-1.150383,1.5808258,1.4900025,-1.906311,-3.4579103,90.0
285,1.0045834,-1.5270615,2.0204468,1.4900025,-1.906311,-3.4579103,90.0
286,1.0045834,-1.5270615,2.0204468,2.0231323,-2.1165893,-3.256128,90.0
287,1.0312672,-1.5193176,2.3051758,2.0231323,-2.1165893,-3.256128,90.0
288,1.0312672,-1.5193176,2.3051758,2.6093628,-2.4978516,-2.8015869,90.0
289,1.1027126,-0.77791595,2.6793709,2.6093628,-2.4978516,-2.8015869,90.0
290,1.1027126,-0.77791595,2.6793709,2.4861696,-2.6868896,-2.4543092,90.0
291,0.972002,-0.08757019,3.0693016,2.4861696,-2.6868896,-2.4543092,90.0
292,0.972002,-0.08757019,3.0693016,2.265271,-2.817517,-2.1208375,90.0
293,0.67730904,0.2191925,3.3873634,2.265271,-2.817517,-2.1208375,90.0
294,0.67730904,0.2191925,3.3873634,1.991272,-2.9194703,-1.5292969,90.0
295,0.3521614,0.73677826,3.4891396,1.991272,-2.9194703,-1.5292969,90.0
296,0.3521614,0.73677826,3.4891396,1.3944215,-2.9577026,-1.0609497,90.0
297,0.21410179,1.0046082,3.292019,1.3944215,-2.9577026,-1.0609497,90.0
298,0.21410179,1.0046082,3.292019,1.1066163,-3.0235474,-0.60959476,90.0
299,0.42334366,0.69288635,2.6698341,1.1066163,-3.0235474,-0.60959476,90.0
300,0.42334366,0.69288635,2.6698341,1.0726318,-3.0500977,-0.09770508,90.0
301,0.8073273,0.5811615,1.6893578,1.0726318,-3.0500977,-0.09770508,90.0
302,0.8073273,0.5811615,1.6893578,0.8867798,-2.9438965,0.42374268,90.0
303,0.8073273,0.5811615,1.6893578,0.8867798,-2.9438965,0.42374268,90.0
304,1.0653801,0.9552765,1.0687332,0.8867798,-2.9438965,0.42374268,90.0
305,1.0653801,0.9552765,1.0687332,0.7943848,-2.7845948,0.80819094,90.0
306,0.9223232,1.2413559,1.1290092,0.7943848,-2.7845948,0.80819094,90.0
307,0.9223232,1.2413559,1.1290092,0.8007569,-2.6210449,1.1076783,90.0
308,0.55823135,1.3876877,0.9056473,0.8007569,-2.6210449,1.1076783,90.0
309,0.55823135,1.3876877,0.9056473,0.3525879,-2.51803,1.531421,90.0
310,0.783329,1.3220367,0.00712204,0.3525879,-2.51803,1.531421,90.0
311,0.783329,1.3220367,0.00712204,0.019116212,-2.355542,1.7671875,90.0
312,1.4120884,0.4992218,-0.6514816,0.019116212,-2.355542,1.7671875,90.0
313,1.4120884,0.4992218,-0.6514816,0.016992187,-2.0316284,1.536731,90.0
314,0.91376495,-0.38645935,-0.861969,0.016992187,-2.0316284,1.536731,90.0
315,0.91376495,-0.38645935,-0.861969,-0.014868164,-1.7608155,1.3190186,90.0
316,-0.24977493,-0.25868988,-1.3524055,-0.014868164,-1.7608155,1.3190186,90.0
317,-0.24977493,-0.25868988,-1.3524055,-0.5734863,-1.6004517,1.4347779,90.0
318,0.10944557,-0.022476196,-1.9768982,-0.5734863,-1.6004517,1.4347779,90.0
319,0.10944557,-0.022476196,-1.9768982,-0.85704345,-1.359375,1.3105224,90.0
320,1.6748734,-0.81064606,-1.5756721,-0.85704345,-1.359375,1.3105224,90.0
321,1.6748734,-0.81064606,-1.5756721,-0.022302246,-1.0705079,0.8623535,90.0
322,2.3490543,-1.2732239,-0.33237457,-0.022302246,-1.0705079,0.8623535,90.0
323,2.3490543,-1.2732239,-0.33237457,0.4704712,-0.82730716,0.62340087,90.0
324,1.8996544,-0.55991364,0.2818184,0.4704712,-0.82730716,0.62340087,90.0
325,1.8996544,-0.55991364,0.2818184,0.23151855,-0.80819094,0.5979126,90.0
326,1.6258879,-0.13627625,0.17141342,0.23151855,-0.80819094,0.5979126,90.0
327,1.6258879,-0.13627625,0.17141342,0.4163086,-0.7083618,0.4725952,90.0
328,1.7160053,-0.42803192,0.33966064,0.4163086,-0.7083618,0.4725952,90.0
329,1.7160053,-0.42803192,0.33966064,0.7890747,-0.5713623,0.2824951,90.0
330,1.5480852,-0.48651886,0.8528671,0.7890747,-0.5713623,0.2824951,90.0
331,1.5480852,-0.48651886,0.8528671,0.6223389,-0.4959595,0.13168946,90.0
332,1.2332926,-0.20236206,1.1396561,0.6223389,-0.4959595,0.13168946,90.0
333,1.2332926,-0.20236206,1.1396561,0.38657227,-0.49171144,0.098767094,90.0
334,1.1327286,-0.04134369,1.2399101,0.38657227,-0.49171144,0.098767094,90.0
335,1.1327286,-0.04134369,1.2399101,0.4439209,-0.40250245,0.090270996,90.0
336,1.0739927,0.1558075,1.5443077,0.4439209,-0.40250245,0.090270996,90.0
337,1.0739927,0.1558075,1.5443077,0.35789797,-0.4088745,0.24213867,90.0
338,1.2077656,0.32917786,1.8624954,0.35789797,-0.4088745,0.24213867,90.0
339,1.2077656,0.32917786,1.8624954,0.09133301,-0.46516114,0.39506838,90.0
340,1.4939709,0.0986557,1.8830147,0.09133301,-0.46516114,0.39506838,90.0
341,1.4939709,0.0986557,1.8830147,-0.07965088,-0.4439209,0.27399904,90.0
342,1.2891703,-0.17475891,1.6665077,-0.07965088,-0.4439209,0.27399904,90.0
343,1.2891703,-0.17475891,1.6665077,-0.09770508,-0.46516114,0.2899292,90.0
344,0.80487156,-0.09550476,1.3668213,-0.09770508,-0.46516114,0.2899292,90.0
345,0.80487156,-0.09550476,1.3668213,-0.1901001,-0.50233155,0.36320803,90.0
346,0.60747147,0.0045394897,1.1666527,-0.1901001,-0.50233155,0.36320803,90.0
347,0.60747147,0.0045394897,1.1666527,-0.10089111,-0.4694092,0.4067505,90.0
348,0.49809933,-0.07183075,1.1279259,-0.10089111,-0.4694092,0.4067505,90.0
349,0.49809933,-0.07183075,1.1279259,-0.12956543,-0.41843262,0.41418457,90.0
350,0.2634449,-0.13439178,1.0674515,-0.12956543,-0.41843262,0.41418457,90.0
351,0.2634449,-0.13439178,1.0674515,-0.46622315,-0.35577393,0.362146,90.0
352,0.14181042,-0.11076355,0.86405563,-0.46622315,-0.35577393,0.362146,90.0
353,0.14181042,-0.11076355,0.86405563,-0.81031495,-0.31010744,0.35577393,90.0
354,0.12012482,-0.1871109,0.60292816,-0.81031495,-0.31010744,0.35577393,90.0
355,0.12012482,-0.1871109,0.60292816,-0.8963379,-0.1529297,0.32391357,90.0
356,-0.108953476,-0.37195587,0.519413,-0.8963379,-0.1529297,0.32391357,90.0
357,-0.108953476,-0.37195587,0.519413,-0.8262451,-0.115759276,0.37701416,90.0
358,-0.46725273,-0.7526703,0.6405678,-0.8262451,-0.115759276,0.37701416,90.0
359,-0.46725273,-0.7526703,0.6405678,-0.6595093,-0.098767094,0.30267334,90.0
360,-1.010252,-1.1235352,0.50601196,-0.6595093,-0.098767094,0.30267334,90.0
361,-1.010252,-1.1235352,0.50601196,-0.4364868,-0.057348635,0.15505372,90.0
362,-1.5966778,-0.95539856,-0.05070877,-0.4364868,-0.057348635,0.15505372,90.0
363,-1.5966778,-0.95539856,-0.05070877,-0.38232422,-0.04248047,0.15080567,90.0
364,-1.4456158,-0.6938629,-0.5230026,-0.38232422,-0.04248047,0.15080567,90.0
365,-1.4456158,-0.6938629,-0.5230026,-0.0722168,-0.03717041,0.13168946,90.0
366,-0.89004993,-0.8546982,-0.37893677,-0.0722168,-0.03717041,0.13168946,90.0
367,-0.89004993,-0.8546982,-0.37893677,0.68924564,0.13806152,0.1083252,90.0
368,-0.8936682,-0.6987457,0.16659927,0.68924564,0.13806152,0.1083252,90.0
369,-0.8936682,-0.6987457,0.16659927,0.73703617,0.16354981,0.27612305,90.0
370,-1.149786,-0.0283432,0.42607498,0.73703617,0.16354981,0.27612305,90.0
371,-1.149786,-0.0283432,0.42607498,0.19116211,0.0637207,0.35046387,90.0
372,-0.8914604,0.27030182,0.37965393,0.19116211,0.0637207,0.35046387,90.0
373,-0.8914604,0.27030182,0.37965393,0.012744141,0.04991455,0.28355715,90.0
374,-0.33022118,0.10140991,0.4970932,0.012744141,0.04991455,0.28355715,90.0
375,-0.33022118,0.10140991,0.4970932,0.1444336,0.09451904,0.28568116,90.0
376,0.06111622,0.10261536,0.76894,0.1444336,0.09451904,0.28568116,90.0
377,0.06111622,0.10261536,0.76894,0.16885987,0.038232423,0.44604492,90.0
378,0.23650265,0.2915268,0.7774658,0.16885987,0.038232423,0.44604492,90.0
379,0.23650265,0.2915268,0.7774658,0.070092775,-0.011682129,0.452417,90.0
380,0.060943604,0.49622345,0.41760254,0.070092775,-0.011682129,0.452417,90.0
381,0.060943604,0.49622345,0.41760254,-0.1444336,-0.09133301,0.4715332,90.0
382,-0.28995323,0.5821686,0.0052261353,-0.1444336,-0.09133301,0.4715332,90.0
383,-0.28995323,0.5821686,0.0052261353,-0.2899292,-0.22514649,0.41418457,90.0
384,-0.39149666,0.470932,-0.2574768,-0.2899292,-0.22514649,0.41418457,90.0
385,-0.39149666,0.470932,-0.2574768,-0.19753419,-0.24320069,0.31966552,90.0
386,-0.25731373,0.5040817,-0.37696838,-0.19753419,-0.24320069,0.31966552,90.0
387,-0.25731373,0.5040817,-0.37696838,-0.083898924,-0.28780517,0.32178956,90.0
388,-0.11601925,0.5279846,-0.30527496,-0.083898924,-0.28780517,0.32178956,90.0
389,-0.11601925,0.5279846,-0.30527496,0.03079834,-0.32603762,0.35789797,90.0
390,-0.13079071,0.38957214,-0.08242798,0.03079834,-0.32603762,0.35789797,90.0
391,-0.13079071,0.38957214,-0.08242798,0.039294433,-0.36320803,0.37701416,90.0
392,-0.1791935,0.24473572,-0.05834961,0.039294433,-0.36320803,0.37701416,90.0
393,-0.1791935,0.24473572,-0.05834961,-0.16673584,-0.4970215,0.31116945,90.0
394,-0.20517063,-0.033584595,-0.28303146,-0.16673584,-0.4970215,0.31116945,90.0
395,-0.20517063,-0.033584595,-0.28303146,-0.047790527,-0.4725952,0.12213135,90.0
396,-0.38867188,-0.17250824,-0.37750244,-0.047790527,-0.4725952,0.12213135,90.0
397,-0.38867188,-0.17250824,-0.37750244,-0.025488282,-0.4800293,0.11257324,90.0
398,-0.3061161,-0.008087158,-0.23037338,-0.025488282,-0.4800293,0.11257324,90.0
399,-0.3061161,-0.008087158,-0.23037338,-0.1083252,-0.48427734,0.16779785,90.0
400,0.24912643,0.11216736,0.028434753,-0.1083252,-0.48427734,0.16779785,90.0
401,0.24912643,0.11216736,0.028434753,-0.18691407,-0.4609131,0.14337158,90.0
402,0.7475195,0.036849976,0.18787384,-0.18691407,-0.4609131,0.14337158,90.0
403,0.7475195,0.036849976,0.18787384,-0.14230958,-0.44179687,0.1529297,90.0
404,0.81115055,-0.080955505,0.11469269,-0.14230958,-0.44179687,0.1529297,90.0
405,0.81115055,-0.080955505,0.11469269,-0.14230958,-0.44179687,0.1529297,90.0
406,0.81115055,-0.080955505,0.11469269,0.045666505,-0.362146,0.1731079,90.0
407,0.51654816,-0.14990997,-0.0044517517,0.045666505,-0.362146,0.1731079,90.0
408,0.51654816,-0.14990997,-0.0044517517,0.2347046,-0.25913087,0.23151855,90.0
409,0.15133667,-0.05254364,0.14917374,0.2347046,-0.25913087,0.23151855,90.0
410,0.15133667,-0.05254364,0.14917374,0.3058594,-0.16461182,0.2899292,90.0
411,0.033838272,0.20748901,0.60565186,0.3058594,-0.16461182,0.2899292,90.0
412,0.033838272,0.20748901,0.60565186,0.362146,-0.11363526,0.3812622,90.0
413,0.069099426,0.42645264,1.0732193,0.362146,-0.11363526,0.3812622,90.0
414,0.069099426,0.42645264,1.0732193,0.38975832,-0.03717041,0.45878908,90.0
415,0.008551598,0.6060333,1.4039993,0.38975832,-0.03717041,0.45878908,90.0
416,0.008551598,0.6060333,1.4039993,0.33134767,-0.07434082,0.5777344,90.0
417,-0.14723587,0.77646637,1.3361626,0.33134767,-0.07434082,0.5777344,90.0
418,-0.14723587,0.77646637,1.3361626,0.0722168,-0.16354981,0.5150757,90.0
419,-0.44261742,0.84384155,0.5755806,0.0722168,-0.16354981,0.5150757,90.0
420,-0.44261742,0.84384155,0.5755806,-0.09770508,-0.19116211,0.4056885,90.0
421,-0.6799116,0.7108917,-0.24057388,-0.09770508,-0.19116211,0.4056885,90.0
422,-0.6799116,0.7108917,-0.24057388,0.060534667,-0.1529297,0.27293703,90.0
423,-0.3340168,0.5373535,-0.37471008,0.060534667,-0.1529297,0.27293703,90.0
424,-0.3340168,0.5373535,-0.37471008,0.4704712,-0.07752686,0.17947999,90.0
425,0.30265903,0.4378891,-0.032608032,0.4704712,-0.07752686,0.17947999,90.0
426,0.30265903,0.4378891,-0.032608032,0.85385746,0.050976563,0.047790527,90.0
427,0.31004715,0.5541458,0.2621956,0.85385746,0.050976563,0.047790527,90.0
428,0.31004715,0.5541458,0.2621956,0.85491943,0.07115479,0.040356446,90.0
429,-0.28210163,0.85741425,0.24836731,0.85491943,0.07115479,0.040356446,90.0
430,-0.28210163,0.85741425,0.24836731,0.62127686,0.008496094,0.015930176,90.0
431,-0.5895605,1.0369339,0.06873703,0.62127686,0.008496094,0.015930176,90.0
432,-0.5895605,1.0369339,0.06873703,0.4056885,-0.098767094,0.032922365,90.0
433,-0.16122341,0.9434967,-0.30543518,0.4056885,-0.098767094,0.032922365,90.0
434,-0.16122341,0.9434967,-0.30543518,0.26868898,-0.1359375,-0.008496094,90.0
435,0.47341347,0.6137314,-0.6906357,0.26868898,-0.1359375,-0.008496094,90.0
436,0.47341347,0.6137314,-0.6906357,0.46834716,-0.1083252,-0.0180542,90.0
437,0.70135117,0.22840881,-0.54582214,0.46834716,-0.1083252,-0.0180542,90.0
438,0.70135117,0.22840881,-0.54582214,0.8793457,-0.06796875,-0.046728518,90.0
439,0.57048035,0.23085785,-0.07217026,0.8793457,-0.06796875,-0.046728518,90.0
440,0.57048035,0.23085785,-0.07217026,0.87615967,-0.14124756,0.0021240234,90.0
441,0.41136456,0.5530853,0.10567856,0.87615967,-0.14124756,0.0021240234,90.0
442,0.41136456,0.5530853,0.10567856,0.6042847,-0.1731079,0.060534667,90.0
443,0.19870758,0.6206894,-0.0639801,0.6042847,-0.1731079,0.060534667,90.0
444,0.19870758,0.6206894,-0.0639801,0.2347046,-0.1901001,0.060534667,90.0
445,-0.0897274,0.29405212,-0.21942139,0.2347046,-0.1901001,0.060534667,90.0
446,-0.0897274,0.29405212,-0.21942139,-0.12956543,-0.2548828,-0.032922365,90.0
447,-0.17403984,0.004432678,-0.24202728,-0.12956543,-0.2548828,-0.032922365,90.0
448,-0.17403984,0.004432678,-0.24202728,-0.2814331,-0.28674316,-0.13062744,90.0
449,0.0015144348,0.010421753,-0.4258461,-0.2814331,-0.28674316,-0.13062744,90.0
450,0.0015144348,0.010421753,-0.4258461,-0.4970215,-0.3164795,-0.26762697,90.0
451,0.24720764,0.110313416,-0.9124527,-0.4970215,-0.3164795,-0.26762697,90.0
452,0.24720764,0.110313416,-0.9124527,-0.53100586,-0.22939454,-0.2538208,90.0
453,0.395545,0.10902405,-1.2097244,-0.53100586,-0.22939454,-0.2538208,90.0
454,0.395545,0.10902405,-1.2097244,-0.29099122,-0.06159668,-0.2516968,90.0
455,0.38342857,-0.045188904,-0.8833084,-0.29099122,-0.06159668,-0.2516968,90.0
456,0.38342857,-0.045188904,-0.8833084,-0.16673584,0.087084964,-0.19434814,90.0
457,0.1742115,-0.22219849,-0.48859406,-0.16673584,0.087084964,-0.19434814,90.0
458,0.1742115,-0.22219849,-0.48859406,-0.31223145,0.29311523,-0.22408448,90.0
459,-0.41879654,-0.12055969,-0.9827118,-0.31223145,0.29311523,-0.22408448,90.0
460,-0.41879654,-0.12055969,-0.9827118,-0.7423462,0.5894165,-0.26444092,90.0
461,-0.6895046,-0.02897644,-1.3493767,-0.7423462,0.5894165,-0.26444092,90.0
462,-0.6895046,-0.02897644,-1.3493767,-0.89846194,0.7455322,-0.2803711,90.0
463,-0.6448288,-0.28279877,-1.6387444,-0.89846194,0.7455322,-0.2803711,90.0
464,-0.6448288,-0.28279877,-1.6387444,-1.0227174,1.2797241,0.09770508,90.0
465,-0.25776958,-0.48442078,-1.4346046,-1.0227174,1.2797241,0.09770508,90.0
466,-0.25776958,-0.48442078,-1.4346046,-1.0290893,1.5770874,0.014868164,90.0
467,-1.1576929,-1.0155487,-1.5466461,-1.0290893,1.5770874,0.014868164,90.0
468,-1.1576929,-1.0155487,-1.5466461,-1.2510499,2.080481,0.21983643,90.0
469,-1.6795721,-0.8948364,-1.8970604,-1.2510499,2.080481,0.21983643,90.0
470,-1.6795721,-0.8948364,-1.8970604,-1.2956543,2.2238526,0.38232422,90.0
471,-3.0312672,-1.5439453,-2.7630463,-1.2956543,2.2238526,0.38232422,90.0
472,-3.0312672,-1.5439453,-2.7630463,-0.80394286,2.7229981,1.0004151,90.0
473,-2.537404,-1.4025497,-2.7675285,-0.80394286,2.7229981,1.0004151,90.0
474,-2.537404,-1.4025497,-2.7675285,-0.5501221,2.9152222,1.0981201,90.0
475,-2.5079746,-1.2523651,-2.5825157,-0.5501221,2.9152222,1.0981201,90.0
476,-2.5079746,-1.2523651,-2.5825157,-0.5341919,3.3315308,1.1544068,90.0
477,-2.0590286,-0.8334198,-2.2294998,-0.5341919,3.3315308,1.1544068,90.0
478,-2.0590286,-0.8334198,-2.2294998,-0.6595093,3.4472902,1.270166,90.0
479,-1.1833916,-1.2386856,-0.73638153,-0.6595093,3.4472902,1.270166,90.0
480,-1.1833916,-1.2386856,-0.73638153,-0.93775636,3.437732,1.2786621,90.0
481,-0.25141335,-1.0156708,-0.8641548,-0.93775636,3.437732,1.2786621,90.0
482,-0.25141335,-1.0156708,-0.8641548,-0.905896,3.5757935,1.1575928,90.0
483,0.37826347,-0.6537094,-2.0375519,-0.905896,3.5757935,1.1575928,90.0
484,0.37826347,-0.6537094,-2.0375519,-1.0386475,3.6734986,0.49383545,90.0
485,0.27077484,-0.33955383,-2.34972,-1.0386475,3.6734986,0.49383545,90.0
486,0.27077484,-0.33955383,-2.34972,-1.0354614,3.6904907,0.44710693,90.0
487,-0.810894,-0.6942673,-1.7821693,-1.0354614,3.6904907,0.44710693,90.0
488,-0.810894,-0.6942673,-1.7821693,-0.2814331,3.5205688,0.5649902,90.0
489,-0.42063904,-0.66254425,-1.3035927,-0.2814331,3.5205688,0.5649902,90.0
490,-0.42063904,-0.66254425,-1.3035927,-0.032922365,3.4632204,0.5703003,90.0
491,0.06589317,-0.3707428,0.075618744,-0.032922365,3.4632204,0.5703003,90.0
492,0.06589317,-0.3707428,0.075618744,0.15080567,3.1201904,0.17947999,90.0
493,0.483366,-0.22650146,0.1855812,0.15080567,3.1201904,0.17947999,90.0
494,0.483366,-0.22650146,0.1855812,0.3355957,2.981067,0.13699952,90.0
495,0.911253,-0.2720871,0.18616104,0.3355957,2.981067,0.13699952,90.0
496,0.911253,-0.2720871,0.18616104,1.0174073,2.89292,0.124255374,90.0
497,1.2985573,-0.499115,-0.27877045,1.0174073,2.89292,0.124255374,90.0
498,1.2985573,-0.499115,-0.27877045,1.7310791,3.0458496,-0.004248047,90.0
499,0.6705723,0.17810059,-1.0526199,1.7310791,3.0458496,-0.004248047,90.0
500,0.6705723,0.17810059,-1.0526199,2.3247437,3.522693,-0.15930176,90.0
501,0.35154533,0.2637329,-1.0300217,2.3247437,3.522693,-0.15930176,90.0
502,0.35154533,0.2637329,-1.0300217,2.3417358,3.6936767,-0.2814331,90.0
503,-2.6828022,0.7196884,-0.83916473,2.3417358,3.6936767,-0.2814331,90.0
504,-2.6828022,0.7196884,-0.83916473,2.453247,4.443457,-0.36002198,90.0
505,-3.0691547,0.37151337,-0.4896431,2.453247,4.443457,-0.36002198,90.0
506,-3.0691547,0.37151337,-0.4896431,2.3895264,4.4625735,-0.27293703,90.0
507,-4.800661,0.34526825,-0.14925766,2.3895264,4.4625735,-0.27293703,90.0
508,-4.800661,0.34526825,-0.14925766,2.1973023,3.8646607,-0.17629395,90.0
509,-4.6202164,0.42346954,-0.068626404,2.1973023,3.8646607,-0.17629395,90.0
510,-4.6202164,0.42346954,-0.068626404,2.1134033,3.2104614,-0.29417726,90.0
511,-2.4487,0.3806839,-0.28310013,2.1134033,3.2104614,-0.29417726,90.0
512,-2.4487,0.3806839,-0.28310013,2.0995972,3.1297486,-0.5076416,90.0
513,-0.1839962,0.3911209,-0.7191925,2.0995972,3.1297486,-0.5076416,90.0
514,-0.1839962,0.3911209,-0.7191925,1.812854,3.0426636,-0.69136965,90.0
515,1.1548672,0.6192322,-0.9580307,1.812854,3.0426636,-0.69136965,90.0
516,1.1548672,0.6192322,-0.9580307,1.3848633,2.5806885,-0.81243896,90.0
517,2.2917042,1.0118179,-0.7711487,1.3848633,2.5806885,-0.81243896,90.0
518,2.2917042,1.0118179,-0.7711487,1.0375855,2.1134033,-0.8251831,90.0
519,2.2917042,1.0118179,-0.7711487,1.0375855,2.1134033,-0.8251831,89.0
520,3.5127697,1.2881165,-0.39284515,1.0375855,2.1134033,-0.8251831,89.0
521,3.5127697,1.2881165,-0.39284515,0.5384399,2.081543,-0.9154541,89.0
522,4.0157948,1.2045059,0.06200409,0.5384399,2.081543,-0.9154541,89.0
523,4.0157948,1.2045059,0.06200409,0.045666505,1.9732178,-0.8814697,89.0
524,3.6583385,0.6378708,0.49269485,0.045666505,1.9732178,-0.8814697,89.0
525,3.6583385,0.6378708,0.49269485,-0.19328614,1.445398,-0.76358646,89.0
526,3.1825676,-0.021835327,0.3552513,-0.19328614,1.445398,-0.76358646,89.0
527,3.1825676,-0.021835327,0.3552513,0.043542482,0.83686525,-0.5278198,89.0
528,3.2268038,-0.3121109,-0.20105362,0.043542482,0.83686525,-0.5278198,89.0
529,3.2268038,-0.3121109,-0.20105362,0.21558838,0.20178223,-0.58623046,89.0
530,3.6559067,-0.34584045,-0.39636612,0.21558838,0.20178223,-0.58623046,89.0
531,3.6559067,-0.34584045,-0.39636612,-0.008496094,-0.33665773,-0.57242435,89.0
532,4.033429,-0.25398254,0.19003677,-0.008496094,-0.33665773,-0.57242435,89.0
533,4.033429,-0.25398254,0.19003677,-0.29630128,-0.8315552,-0.62977296,89.0
534,4.0252056,-0.27394867,1.3594627,-0.29630128,-0.8315552,-0.62977296,89.0
535,4.0252056,-0.27394867,1.3594627,0.42268068,-1.6036377,-0.7434082,89.0
536,3.7388783,-0.22294617,2.0486412,0.42268068,-1.6036377,-0.7434082,89.0
537,3.7388783,-0.22294617,2.0486412,0.8506714,-1.996582,-0.35152587,89.0
538,3.2407722,0.5769806,1.3389626,0.8506714,-1.996582,-0.35152587,89.0
539,3.2407722,0.5769806,1.3389626,-0.1539917,-1.9445435,-0.46516114,89.0
540,2.4750395,1.413353,-0.22273636,-0.1539917,-1.9445435,-0.46516114,89.0
541,2.4750395,1.413353,-0.22273636,-1.4050416,-1.8351563,-0.4088745,89.0
542,1.6679344,1.1412888,-1.4311447,-1.4050416,-1.8351563,-0.4088745,89.0
543,1.6679344,1.1412888,-1.4311447,-1.812854,-1.8245362,-0.32816163,89.0
544,1.2034025,0.5605774,-1.7533646,-1.812854,-1.8245362,-0.32816163,89.0
545,1.2034025,0.5605774,-1.7533646,-1.6493043,-1.7544434,-0.124255374,89.0
546,1.0915432,0.64508057,-1.8555107,-1.6493043,-1.7544434,-0.124255374,89.0
547,1.0915432,0.64508057,-1.8555107,-1.6864747,-1.3763672,-0.045666505,89.0
548,0.96853447,0.5190277,-2.0684166,-1.6864747,-1.3763672,-0.045666505,89.0
549,0.96853447,0.5190277,-2.0684166,-1.3933594,-0.9547486,-0.1263794,89.0
550,0.62090874,-0.2449112,-1.6082611,-1.3933594,-0.9547486,-0.1263794,89.0
551,0.62090874,-0.2449112,-1.6082611,-0.8952759,-0.75509036,0.14018555,89.0
552,0.16707611,-0.96336365,-0.53876877,-0.8952759,-0.75509036,0.14018555,89.0
553,0.16707611,-0.96336365,-0.53876877,-0.72004396,-0.3058594,0.06584473,89.0
554,-0.32926655,-1.280777,0.7785301,-0.72004396,-0.3058594,0.06584473,89.0
555,-0.32926655,-1.280777,0.7785301,-1.622754,-0.28568116,0.16354981,89.0
556,-1.0550632,-1.0301666,2.3519745,-1.622754,-0.28568116,0.16354981,89.0
557,-1.0550632,-1.0301666,2.3519745,-4.4901857,0.59047854,-0.68924564,89.0
558,-1.9972248,-1.9972076,3.712635,-4.4901857,0.59047854,-0.68924564,89.0
559,-1.9972248,-1.9972076,3.712635,-3.1255004,0.38657227,-0.62127686,89.0
560,-2.6085835,-4.709244,2.4384918,-3.1255004,0.38657227,-0.62127686,89.0
561,-2.6085835,-4.709244,2.4384918,-0.5894165,-0.27506104,-0.4439209,89.0
562,-1.9923592,-4.2876816,-2.259365,-0.5894165,-0.27506104,-0.4439209,89.0
563,-1.9923592,-4.2876816,-2.259365,1.6896607,-0.11151123,-0.08602295,89.0
564,-1.1013098,-0.6728821,-6.103672,1.6896607,-0.11151123,-0.08602295,89.0
565,-1.1013098,-0.6728821,-6.103672,3.2529418,-0.3812622,0.6085327,89.0
566,-0.7843561,2.5235748,-6.0780907,3.2529418,-0.3812622,0.6085327,89.0
567,-0.7843561,2.5235748,-6.0780907,2.5636964,0.5065796,-0.07752686,89.0
568,-0.7478466,3.9503784,-4.3337746,2.5636964,0.5065796,-0.07752686,89.0
569,-0.7478466,3.9503784,-4.3337746,0.49383545,1.0418335,0.32603762,89.0
570,-0.2729597,2.5565567,-2.8432884,0.49383545,1.0418335,0.32603762,89.0
571,-0.2729597,2.5565567,-2.8432884,0.12213135,1.44115,0.5341919,89.0
572,0.17590714,0.24042511,-1.1000938,0.12213135,1.44115,0.5341919,89.0
573,0.17590714,0.24042511,-1.1000938,1.002539,1.6036377,0.8517334,89.0
574,0.068532944,-0.8120804,0.75704575,1.002539,1.6036377,0.8517334,89.0
575,0.068532944,-0.8120804,0.75704575,0.77739257,1.4284058,0.72641605,89.0
576,0.067619324,-1.6148834,1.5366783,0.77739257,1.4284058,0.72641605,89.0
577,0.067619324,-1.6148834,1.5366783,0.6988037,1.4804443,0.69986576,89.0
578,0.53466225,-2.814392,1.4132652,0.6988037,1.4804443,0.69986576,89.0
579,0.53466225,-2.814392,1.4132652,1.5515991,1.1618408,0.5628662,89.0
580,0.96352005,-2.4958649,1.5143166,1.5515991,1.1618408,0.5628662,89.0
581,0.96352005,-2.4958649,1.5143166,2.0549927,1.0014771,0.32178956,89.0
582,1.3997469,-0.48011017,1.8542252,2.0549927,1.0014771,0.32178956,89.0
583,1.3997469,-0.48011017,1.8542252,1.7098389,1.083252,0.18479005,89.0
584,1.9217262,0.9173889,2.038494,1.7098389,1.083252,0.18479005,89.0
585,1.9217262,0.9173889,2.038494,2.2950075,1.0078491,-0.13168946,89.0
586,1.9313507,1.0728455,1.8564415,2.2950075,1.0078491,-0.13168946,89.0
587,1.9313507,1.0728455,1.8564415,2.8918579,0.8358032,-0.29099122,89.0
588,1.3368778,1.1058273,1.2379379,2.8918579,0.8358032,-0.29099122,89.0
589,1.3368778,1.1058273,1.2379379,2.8684938,0.6467652,-0.0722168,89.0
590,0.72256565,1.1713791,0.66950226,2.8684938,0.6467652,-0.0722168,89.0
591,0.72256565,1.1713791,0.66950226,2.4256349,0.57242435,-0.04885254,89.0
592,0.44594765,0.6745224,0.431633,2.4256349,0.57242435,-0.04885254,89.0
593,0.44594765,0.6745224,0.431633,1.8277222,0.4725952,0.027612304,89.0
594,0.351326,-0.122154236,0.33566284,1.8277222,0.4725952,0.027612304,89.0
595,0.351326,-0.122154236,0.33566284,0.76677245,0.32391357,-0.03717041,89.0
596,0.044830322,-0.56614685,0.24215317,0.76677245,0.32391357,-0.03717041,89.0
597,0.044830322,-0.56614685,0.24215317,-0.14549561,0.22514649,0.043542482,89.0
598,-0.34204102,-0.65904236,0.48781586,-0.14549561,0.22514649,0.043542482,89.0
599,-0.34204102,-0.65904236,0.48781586,-0.21027832,0.13275146,0.15505372,89.0
600,-0.39385986,-0.8969269,1.483757,-0.21027832,0.13275146,0.15505372,89.0
601,-0.39385986,-0.8969269,1.483757,0.16142578,0.035046387,0.118945315,89.0
602,-0.47349834,-1.0328827,2.4250793,0.16142578,0.035046387,0.118945315,89.0
603,-0.47349834,-1.0328827,2.4250793,-0.22302246,-0.1985962,0.12000733,89.0
604,-0.47349834,-1.0328827,2.4250793,-0.22302246,-0.1985962,0.12000733,85.0
605,-1.0519676,-0.72869873,1.8598747,-0.22302246,-0.1985962,0.12000733,85.0
606,-1.0519676,-0.72869873,1.8598747,-1.3965454,-0.34940186,0.3982544,85.0
607,-1.8964691,-0.65934753,0.30600357,-1.3965454,-0.34940186,0.3982544,85.0
608,-1.8964691,-0.65934753,0.30600357,-2.2238526,-0.45135498,0.59260255,85.0
609,-2.6132698,-0.77809143,-0.34712982,-2.2238526,-0.45135498,0.59260255,85.0
610,-2.6132698,-0.77809143,-0.34712982,-2.5541382,-0.9515625,0.7306641,85.0
611,-2.95817,-0.20437622,-0.7251663,-2.5541382,-0.9515625,0.7306641,85.0
612,-2.95817,-0.20437622,-0.7251663,-3.0808961,-1.535669,0.8442993,85.0
613,-2.4802074,0.9659653,-2.5709763,-3.0808961,-1.535669,0.8442993,85.0
614,-2.4802074,0.9659653,-2.5709763,-3.245508,-2.1123414,1.2446778,85.0
615,-1.2799425,2.1936874,-4.20689,-3.245508,-2.1123414,1.2446778,85.0
616,-1.2799425,2.1936874,-4.20689,-2.4543092,-2.4320068,1.8394043,85.0
617,-0.42059708,3.3366547,-3.5616913,-2.4543092,-2.4320068,1.8394043,85.0
618,-0.42059708,3.3366547,-3.5616913,-2.5488281,-2.1038454,1.7268311,85.0
619,-0.84166527,3.6569443,-1.772377,-2.5488281,-2.1038454,1.7268311,85.0
620,-0.84166527,3.6569443,-1.772377,-2.7739747,-1.905249,1.6758546,85.0
621,-2.1470013,3.1788635,-0.8956108,-2.7739747,-1.905249,1.6758546,85.0
622,-2.1470013,3.1788635,-0.8956108,-3.1955934,-2.0624268,1.5569092,85.0
623,-3.04243,2.782402,-1.2586403,-3.1955934,-2.0624268,1.5569092,85.0
624,-3.04243,2.782402,-1.2586403,-3.2083375,-2.352356,1.9583496,85.0
625,-2.6853714,2.5402298,-1.8997116,-3.2083375,-2.352356,1.9583496,85.0
626,-2.6853714,2.5402298,-1.8997116,-3.344275,-2.252527,2.1919923,85.0
627,-1.6866264,2.1875534,-1.9032898,-3.344275,-2.252527,2.1919923,85.0
628,-1.6866264,2.1875534,-1.9032898,-3.511011,-1.8192261,2.2185426,85.0
629,-1.1473961,2.264862,-1.2728271,-3.511011,-1.8192261,2.2185426,85.0
630,-1.1473961,2.264862,-1.2728271,-3.5534914,-1.63125,2.1463258,85.0
631,-0.87572956,2.8047104,-0.61154747,-3.5534914,-1.63125,2.1463258,85.0
632,-0.87572956,2.8047104,-0.61154747,-3.4876466,-1.4751343,2.0645509,85.0
633,-0.14004898,2.8194275,-0.11702156,-3.4876466,-1.4751343,2.0645509,85.0
634,-0.14004898,2.8194275,-0.11702156,-3.0437257,-0.9696167,1.7916138,85.0
635,0.64983845,2.058693,0.42173958,-3.0437257,-0.9696167,1.7916138,85.0
636,0.64983845,2.058693,0.42173958,-2.1038454,-0.32072756,1.5707153,85.0
637,0.5831032,1.4648361,0.9541149,-2.1038454,-0.32072756,1.5707153,85.0
638,0.5831032,1.4648361,0.9541149,-1.0598878,0.17629395,1.4369019,85.0
639,-0.29944706,1.5156326,1.4812489,-1.0598878,0.17629395,1.4369019,85.0
640,-0.29944706,1.5156326,1.4812489,-0.021240234,0.25594482,1.5038086,85.0
641,-1.0510197,1.669281,1.6722794,-0.021240234,0.25594482,1.5038086,85.0
642,-1.0510197,1.669281,1.6722794,0.5607422,0.08602295,1.4730103,85.0
643,-1.0440502,1.6083832,0.8449669,0.5607422,0.08602295,1.4730103,85.0
644,-1.0440502,1.6083832,0.8449669,0.42905274,0.14655761,1.3827393,85.0
645,-0.64450455,1.3957748,-0.5180435,0.42905274,0.14655761,1.3827393,85.0
646,-0.64450455,1.3957748,-0.5180435,0.06796875,0.3971924,1.3976074,85.0
647,-0.4794464,0.9603729,-1.3385563,0.06796875,0.3971924,1.3976074,85.0
648,-0.4794464,0.9603729,-1.3385563,-0.35046387,0.5384399,1.4878784,85.0
649,-0.7474365,0.40720367,-1.2535229,-0.35046387,0.5384399,1.4878784,85.0
650,-0.7474365,0.40720367,-1.2535229,-0.4258667,0.6265869,1.5484132,85.0
651,-1.2554207,-0.056632996,-0.6337509,-0.4258667,0.6265869,1.5484132,85.0
652,-1.2554207,-0.056632996,-0.6337509,-0.27293703,0.68924564,1.4942505,85.0
653,-1.8450108,-0.38768005,-0.07748413,-0.27293703,0.68924564,1.4942505,85.0
654,-1.8450108,-0.38768005,-0.07748413,-0.08920898,0.811377,1.3657471,85.0
655,-2.4411812,-0.6008301,0.30509186,-0.08920898,0.811377,1.3657471,85.0
656,-2.4411812,-0.6008301,0.30509186,0.19328614,0.7869507,1.3115845,85.0
657,-2.7198753,-0.8075104,0.74342537,0.19328614,0.7869507,1.3115845,85.0
658,-2.7198753,-0.8075104,0.74342537,0.56605226,0.38763428,1.2351197,85.0
659,-2.1076145,-0.9981079,1.050539,0.56605226,0.38763428,1.2351197,85.0
660,-2.1076145,-0.9981079,1.050539,0.817749,0.03186035,1.0322754,85.0
661,-0.78902054,-0.9790039,0.92970276,0.817749,0.03186035,1.0322754,85.0
662,-0.78902054,-0.9790039,0.92970276,0.91014403,0.20178223,0.68924564,85.0
663,-0.052139282,-0.87773895,0.58291245,0.91014403,0.20178223,0.68924564,85.0
664,-0.052139282,-0.87773895,0.58291245,1.1140503,0.45135498,0.28568116,85.0
665,-0.6281986,-0.90083313,0.3595543,1.1140503,0.45135498,0.28568116,85.0
666,-0.6281986,-0.90083313,0.3595543,1.4623902,0.24107666,-0.038232423,85.0
667,-1.492012,-0.79319,0.2094078,1.4623902,0.24107666,-0.038232423,85.0
668,-1.492012,-0.79319,0.2094078,1.5781494,-0.52038574,-0.3812622,85.0
669,-1.0575256,-0.2787323,-0.05406952,1.5781494,-0.52038574,-0.3812622,85.0
670,-1.0575256,-0.2787323,-0.05406952,1.3338867,-1.1119263,-0.65419924,85.0
671,0.653553,0.46657562,-0.33782196,1.3338867,-1.1119263,-0.65419924,85.0
672,0.653553,0.46657562,-0.33782196,0.8336792,-1.2234375,-1.0004151,85.0
673,2.137577,1.1904602,-0.40814972,0.8336792,-1.2234375,-1.0004151,85.0
674,2.137577,1.1904602,-0.40814972,0.06903076,-1.2234375,-1.4379638,85.0
675,2.5558014,1.6682358,-0.27694702,0.06903076,-1.2234375,-1.4379638,85.0
676,2.5558014,1.6682358,-0.27694702,-0.78376466,-1.2945923,-1.8521484,85.0
677,2.2487068,1.6414642,-0.1548233,-0.78376466,-1.2945923,-1.8521484,85.0
678,2.2487068,1.6414642,-0.1548233,-1.3200806,-1.2744141,-2.1218994,85.0
679,1.6895657,1.2219849,-0.00182724,-1.3200806,-1.2744141,-2.1218994,85.0
680,1.6895657,1.2219849,-0.00182724,-1.4613281,-1.2117554,-2.2769532,85.0
681,0.9812908,0.8781128,0.24175262,-1.4613281,-1.2117554,-2.2769532,85.0
682,0.9812908,0.8781128,0.24175262,-1.4974365,-1.2754761,-2.3151855,85.0
683,0.34905815,0.829834,0.2698059,-1.4974365,-1.2754761,-2.3151855,85.0
684,0.34905815,0.829834,0.2698059,-1.5993897,-1.4039795,-2.3066895,85.0
685,0.1299305,0.77659607,-0.042930603,-1.5993897,-1.4039795,-2.3066895,85.0
686,0.1299305,0.77659607,-0.042930603,-1.5696534,-1.4284058,-2.2142944,85.0
687,0.2708645,0.51716614,-0.39120483,-1.5696534,-1.4284058,-2.2142944,85.0
688,0.2708645,0.51716614,-0.39120483,-1.3466309,-1.363623,-1.99552,85.0
689,0.4175949,0.28676605,-0.46722412,-1.3466309,-1.363623,-1.99552,85.0
690,0.4175949,0.28676605,-0.46722412,-1.080066,-1.2425537,-1.7618774,85.0
691,0.3903618,0.2898636,-0.2530403,-1.080066,-1.2425537,-1.7618774,85.0
692,0.3903618,0.2898636,-0.2530403,-0.8230591,-1.1140503,-1.531421,85.0
693,0.22821999,0.43886566,0.036556244,-0.8230591,-1.1140503,-1.531421,85.0
694,0.22821999,0.43886566,0.036556244,-0.5713623,-0.9547486,-1.2765381,85.0
695,-0.041202545,0.56305695,0.20882225,-0.5713623,-0.9547486,-1.2765381,85.0
696,-0.041202545,0.56305695,0.20882225,-0.37807617,-0.72216797,-0.94625247,85.0
697,-0.46787453,0.6011429,0.2594757,-0.37807617,-0.72216797,-0.94625247,85.0
698,-0.46787453,0.6011429,0.2594757,-0.3058594,-0.5033936,-0.5809204,85.0
699,-0.9628849,0.5778656,0.16959381,-0.3058594,-0.5033936,-0.5809204,85.0
700,-0.9628849,0.5778656,0.16959381,-0.32603762,-0.35789797,-0.17629395,85.0
701,-1.2716885,0.5157013,-0.025276184,-0.32603762,-0.35789797,-0.17629395,85.0
702,-1.2716885,0.5157013,-0.025276184,-0.42055663,-0.23045655,0.26337892,85.0
703,-1.4012127,0.43178558,-0.22437096,-0.42055663,-0.23045655,0.26337892,85.0
704,-1.4012127,0.43178558,-0.22437096,-0.53950197,0.10195313,0.63720703,85.0
705,-1.689146,0.41571808,-0.3524456,-0.53950197,0.10195313,0.63720703,85.0
706,-1.689146,0.41571808,-0.3524456,-0.7072998,0.3525879,0.9791748,85.0
707,-2.2722893,0.5530777,-0.4695778,-0.7072998,0.3525879,0.9791748,85.0
708,-2.2722893,0.5530777,-0.4695778,-0.9791748,0.5703003,1.2956543,85.0
709,-2.8907452,0.65081024,-0.6592312,-0.9791748,0.5703003,1.2956543,85.0
710,-2.8907452,0.65081024,-0.6592312,-1.2383057,0.7168579,1.5845215,85.0
711,-3.0821648,0.41030884,-0.6191807,-1.2383057,0.7168579,1.5845215,85.0
712,-3.0821648,0.41030884,-0.6191807,-1.2075074,0.61278075,1.8330323,85.0
713,-2.546627,-0.03983307,-0.12708282,-1.2075074,0.61278075,1.8330323,85.0
714,-2.546627,-0.03983307,-0.12708282,-0.8889038,0.6425171,1.9710938,85.0
715,-1.5399761,-0.25847626,0.6733341,-0.8889038,0.6425171,1.9710938,85.0
716,-1.5399761,-0.25847626,0.6733341,-0.36533204,0.80181885,1.9551636,85.0
717,-0.611681,-0.07267761,1.4199429,-0.36533204,0.80181885,1.9551636,85.0
718,-0.611681,-0.07267761,1.4199429,0.11469727,0.71579593,1.7767457,85.0
719,-0.611681,-0.07267761,1.4199429,0.11469727,0.71579593,1.7767457,86.0
720,0.1948719,0.35328674,1.5587921,0.11469727,0.71579593,1.7767457,86.0
721,0.1948719,0.35328674,1.5587921,0.38975832,0.5607422,1.5271729,86.0
722,1.1200581,0.8321991,1.0030518,0.38975832,0.5607422,1.5271729,86.0
723,1.1200581,0.8321991,1.0030518,0.38232422,0.39400634,1.4092896,86.0
724,2.1506615,1.2813492,0.26143646,0.38232422,0.39400634,1.4092896,86.0
725,2.1506615,1.2813492,0.26143646,0.014868164,0.2177124,1.2860962,86.0
726,3.0678425,1.6022263,-0.28267288,0.014868164,0.2177124,1.2860962,86.0
727,3.0678425,1.6022263,-0.28267288,-0.61278075,0.20072022,1.1384766,86.0
728,3.4054089,1.6171417,-0.4860649,-0.61278075,0.20072022,1.1384766,86.0
729,3.4054089,1.6171417,-0.4860649,-1.0524536,0.093457036,0.9600586,86.0
730,3.0006218,1.5389786,-0.20939636,-1.0524536,0.093457036,0.9600586,86.0
731,3.0006218,1.5389786,-0.20939636,-2.0401247,0.021240234,0.8708496,86.0
732,2.3161106,1.5585022,0.29453278,-2.0401247,0.021240234,0.8708496,86.0
733,2.3161106,1.5585022,0.29453278,-3.1488647,0.1359375,0.9303223,86.0
734,1.5765324,0.76940155,0.37244034,-3.1488647,0.1359375,0.9303223,86.0
735,1.5765324,0.76940155,0.37244034,-2.6571534,0.07965088,0.73703617,86.0
736,0.94340324,-0.59471893,0.03138733,-2.6571534,0.07965088,0.73703617,86.0
737,0.94340324,-0.59471893,0.03138733,-1.3020264,-0.19541016,1.0142212,86.0
738,0.7567253,-0.6916046,-0.10454178,-1.3020264,-0.19541016,1.0142212,86.0
739,0.7567253,-0.6916046,-0.10454178,-1.0248413,-0.27506104,1.3285767,86.0
740,0.9860687,0.21846771,0.106674194,-1.0248413,-0.27506104,1.3285767,86.0
741,0.9860687,0.21846771,0.106674194,-1.2860962,0.013806152,1.2446778,86.0
742,1.0432491,0.60917664,0.37429047,-1.2860962,0.013806152,1.2446778,86.0
743,1.0432491,0.60917664,0.37429047,-1.089624,0.18691407,1.2287476,86.0
744,0.6472206,0.53891754,0.58716583,-1.089624,0.18691407,1.2287476,86.0
745,0.6472206,0.53891754,0.58716583,-0.8442993,0.14974366,1.2563599,86.0
746,0.24397278,0.6112976,0.6588211,-0.8442993,0.14974366,1.2563599,86.0
747,0.24397278,0.6112976,0.6588211,-0.94412845,0.17947999,1.2372437,86.0
748,0.11406326,0.63866425,0.5206604,-0.94412845,0.17947999,1.2372437,86.0
749,0.11406326,0.63866425,0.5206604,-1.0131592,0.32391357,1.2096313,86.0
750,-0.08662987,0.40314484,0.327137,-1.0131592,0.32391357,1.2096313,86.0
751,-0.08662987,0.40314484,0.327137,-0.97492677,0.50870365,1.1119263,86.0
752,-0.69148445,0.13119507,0.29578018,-0.97492677,0.50870365,1.1119263,86.0
753,-0.69148445,0.13119507,0.29578018,-0.8931519,0.5671143,1.0067872,86.0
754,-1.5353775,-0.0341568,0.30712128,-0.8931519,0.5671143,1.0067872,86.0
755,-1.5353775,-0.0341568,0.30712128,-0.78164065,0.6425171,0.8963379,86.0
756,-2.4400826,-0.27279663,0.22432327,-0.78164065,0.6425171,0.8963379,86.0
757,-2.4400826,-0.27279663,0.22432327,-0.4704712,0.92076415,0.7880127,86.0
758,-3.3003693,-0.6764374,0.4379158,-0.4704712,0.92076415,0.7880127,86.0
759,-3.3003693,-0.6764374,0.4379158,0.0361084,0.5851685,0.6669434,86.0
760,-3.197216,-0.94789886,0.8188362,0.0361084,0.5851685,0.6669434,86.0
761,-3.197216,-0.94789886,0.8188362,0.4725952,-0.41949463,0.47471926,86.0
762,-1.2700043,-0.7084503,0.5767479,0.4725952,-0.41949463,0.47471926,86.0
763,-1.2700043,-0.7084503,0.5767479,0.66269535,-0.58304447,0.09664307,86.0
764,1.215662,-0.12615967,-0.04660797,0.66269535,-0.58304447,0.09664307,86.0
765,1.215662,-0.12615967,-0.04660797,0.9366943,-0.1720459,-0.40462646,86.0
766,2.2051716,0.3575287,-0.22667694,0.9366943,-0.1720459,-0.40462646,86.0
767,2.2051716,0.3575287,-0.22667694,1.3083985,-0.043542482,-0.903772,86.0
768,1.5766258,0.65711975,0.008171082,1.3083985,-0.043542482,-0.903772,86.0
769,1.5766258,0.65711975,0.008171082,1.3052124,-0.41949463,-1.263794,86.0
770,0.8137417,0.77716064,0.054668427,1.3052124,-0.41949463,-1.263794,86.0
771,0.8137417,0.77716064,0.054668427,1.0906861,-0.7147339,-1.5346069,86.0
772,0.7337456,0.7232895,-0.21141815,1.0906861,-0.7147339,-1.5346069,86.0
773,0.7337456,0.7232895,-0.21141815,0.84748536,-0.8230591,-1.7756836,86.0
774,0.9103241,0.6923752,-0.35764694,0.84748536,-0.8230591,-1.7756836,86.0
775,0.9103241,0.6923752,-0.35764694,0.5809204,-0.9409424,-1.9434814,86.0
776,0.77685547,0.8217392,-0.2423172,0.5809204,-0.9409424,-1.9434814,86.0
777,0.77685547,0.8217392,-0.2423172,0.18479005,-1.0768799,-2.0571167,86.0
778,0.3775158,0.9670105,-0.0862236,0.18479005,-1.0768799,-2.0571167,86.0
779,0.3775158,0.9670105,-0.0862236,-0.4715332,-1.268042,-2.266333,86.0
780,0.09325981,0.989624,0.09989166,-0.4715332,-1.268042,-2.266333,86.0
781,0.09325981,0.989624,0.09989166,-1.4645141,-1.3094605,-2.4999757,86.0
782,-0.051050186,0.85194397,0.3549614,-1.4645141,-1.3094605,-2.4999757,86.0
783,-0.051050186,0.85194397,0.3549614,-2.2291627,-1.1522827,-2.546704,86.0
784,-0.4496174,0.5936966,0.5286484,-2.2291627,-1.1522827,-2.546704,86.0
785,-0.4496174,0.5936966,0.5286484,-2.701758,-1.0184692,-2.6008668,86.0
786,-1.10746,0.112068176,0.44486618,-2.701758,-1.0184692,-2.6008668,86.0
787,-1.10746,0.112068176,0.44486618,-2.698572,-0.9696167,-2.6858277,86.0
788,-1.5697327,-0.5548248,0.19070816,-2.698572,-0.9696167,-2.6858277,86.0
789,-1.5697327,-0.5548248,0.19070816,-2.179248,-0.96218264,-2.5955567,86.0
790,-1.6142578,-0.9694061,-0.008590698,-2.179248,-0.96218264,-2.5955567,86.0
791,-1.6142578,-0.9694061,-0.008590698,-1.4071655,-0.8867798,-2.3013794,86.0
792,-1.4516487,-0.9123764,-0.0331192,-1.4071655,-0.8867798,-2.3013794,86.0
793,-1.4516487,-0.9123764,-0.0331192,-0.6595093,-0.8612915,-2.0358765,86.0
794,-1.2319374,-0.5912399,0.06154251,-0.6595093,-0.8612915,-2.0358765,86.0
795,-1.2319374,-0.5912399,0.06154251,-0.04248047,-0.814563,-1.6397461,86.0
796,-1.0881252,-0.22064972,0.17921448,-0.04248047,-0.814563,-1.6397461,86.0
797,-1.0881252,-0.22064972,0.17921448,0.35152587,-0.63933104,-1.1883911,86.0
798,-1.2136898,0.11123657,0.24210358,0.35152587,-0.63933104,-1.1883911,86.0
799,-1.2136898,0.11123657,0.24210358,0.50870365,-0.47790527,-0.63826907,86.0
800,-1.4803638,0.3240204,0.21066284,0.50870365,-0.47790527,-0.63826907,86.0
801,-1.4803638,0.3240204,0.21066284,0.544812,-0.4343628,0.010620117,86.0
802,-1.5940819,0.33382416,0.12672043,0.544812,-0.4343628,0.010620117,86.0
803,-1.5940819,0.33382416,0.12672043,0.45560303,-0.3164795,0.5628662,86.0
804,-1.563034,0.35350037,0.024681091,0.45560303,-0.3164795,0.5628662,86.0
805,-1.563034,0.35350037,0.024681091,0.3079834,-0.10195313,1.0513916,86.0
806,-1.4807243,0.66967773,5.187988E-4,0.3079834,-0.10195313,1.0513916,86.0
807,-1.4807243,0.66967773,5.187988E-4,0.19541016,-0.16142578,1.4347779,86.0
808,-1.4807243,0.66967773,5.187988E-4,0.19541016,-0.16142578,1.4347779,86.0
809,-1.0690384,1.0725632,0.084861755,0.19541016,-0.16142578,1.4347779,86.0
810,-1.0690384,1.0725632,0.084861755,0.028674318,-0.1901001,1.5760254,86.0
811,-0.38343048,1.188385,0.06612015,0.028674318,-0.1901001,1.5760254,86.0
812,-0.38343048,1.188385,0.06612015,-0.17629395,0.09770508,1.6015137,86.0
813,-0.13980103,1.032608,-0.082798004,-0.17629395,0.09770508,1.6015137,86.0
814,-0.13980103,1.032608,-0.082798004,-0.37701416,0.42799073,1.6131958,86.0
815,-0.5612564,0.7666702,-0.08971405,-0.37701416,0.42799073,1.6131958,86.0
816,-0.5612564,0.7666702,-0.08971405,-0.38551027,0.4725952,1.6790406,86.0
817,-0.90291023,0.49710083,0.19474411,-0.38551027,0.4725952,1.6790406,86.0
818,-0.90291023,0.49710083,0.19474411,-0.1539917,0.32391357,1.7427613,86.0
819,-0.37965202,0.38978577,0.6093979,-0.1539917,0.32391357,1.7427613,86.0
820,-0.37965202,0.38978577,0.6093979,-0.0021240234,0.16779785,1.8213501,86.0
821,0.900259,0.4595108,0.87636185,-0.0021240234,0.16779785,1.8213501,86.0
822,0.900259,0.4595108,0.87636185,-0.13062744,0.10407715,1.8011719,86.0
823,2.2230015,0.584919,0.8285179,-0.13062744,0.10407715,1.8011719,86.0
824,2.2230015,0.584919,0.8285179,-0.36745605,0.08071289,1.7523193,86.0
825,3.0463448,0.6868553,0.5530968,-0.36745605,0.08071289,1.7523193,86.0
826,3.0463448,0.6868553,0.5530968,-0.6552612,0.14655761,1.6578003,86.0
827,3.2152119,0.75149536,0.2673416,-0.6552612,0.14655761,1.6578003,86.0
828,3.2152119,0.75149536,0.2673416,-0.94625247,0.2793091,1.5983276,86.0
829,2.8483543,0.74542236,0.12815475,-0.94625247,0.2793091,1.5983276,86.0
830,2.8483543,0.74542236,0.12815475,-1.1193603,0.41099855,1.5728394,86.0
831,2.1563072,0.59565735,0.12671661,-1.1193603,0.41099855,1.5728394,86.0
832,2.1563072,0.59565735,0.12671661,-1.1459106,0.44073486,1.4942505,86.0
833,1.4069176,0.3238144,0.25532913,-1.1459106,0.44073486,1.4942505,86.0
834,1.4069176,0.3238144,0.25532913,-1.0705079,0.41099855,1.5239868,86.0
835,0.8696861,0.09011841,0.4990387,-1.0705079,0.41099855,1.5239868,86.0
836,0.8696861,0.09011841,0.4990387,-0.99510497,0.35046387,1.5972656,86.0
837,0.61369324,0.0031280518,0.7320938,-0.99510497,0.35046387,1.5972656,86.0
838,0.61369324,0.0031280518,0.7320938,-0.96643066,0.38869628,1.6843506,86.0
839,0.51257324,-0.007522583,0.8903847,-0.96643066,0.38869628,1.6843506,86.0
840,0.51257324,-0.007522583,0.8903847,-0.9324463,0.39294434,1.718335,86.0
841,0.54086876,-0.009227753,0.9857216,-0.9324463,0.39294434,1.718335,86.0
842,0.54086876,-0.009227753,0.9857216,-0.9717407,0.44710693,1.8330323,86.0
843,0.55841446,-0.08616638,0.95137024,-0.9717407,0.44710693,1.8330323,86.0
844,0.55841446,-0.08616638,0.95137024,-0.991919,0.5957886,1.7926759,86.0
845,0.39307022,-0.30407715,0.8749161,-0.991919,0.5957886,1.7926759,86.0
846,0.39307022,-0.30407715,0.8749161,-0.811377,0.74659425,1.7863038,86.0
847,0.040287018,-0.6689682,0.910614,-0.811377,0.74659425,1.7863038,86.0
848,0.040287018,-0.6689682,0.910614,-0.43861085,0.77102053,1.6960328,86.0
849,-0.32808495,-1.09412,0.9884529,-0.43861085,0.77102053,1.6960328,86.0
850,-0.32808495,-1.09412,0.9884529,0.025488282,0.8867798,1.5728394,86.0
851,-0.7270794,-1.4470367,0.9936447,0.025488282,0.8867798,1.5728394,86.0
852,-0.7270794,-1.4470367,0.9936447,0.6287109,0.9430664,1.3328247,86.0
853,-1.1734848,-1.5470352,0.9702835,0.6287109,0.9430664,1.3328247,86.0
854,-1.1734848,-1.5470352,0.9702835,1.2436157,0.75615233,1.0397094,86.0
855,-1.1453667,-1.2920685,0.8558426,1.2436157,0.75615233,1.0397094,86.0
856,-1.1453667,-1.2920685,0.8558426,1.628064,0.05522461,0.62764895,86.0
857,-0.07695007,-0.7484894,0.23519897,1.628064,0.05522461,0.62764895,86.0
858,-0.07695007,-0.7484894,0.23519897,1.6928467,-0.24320069,0.16248779,86.0
859,1.1833992,-0.16673279,-0.81145096,1.6928467,-0.24320069,0.16248779,86.0
860,1.1833992,-0.16673279,-0.81145096,1.7459472,0.16992188,-0.36851808,86.0
861,0.97351456,0.17771149,-1.4969864,1.7459472,0.16992188,-0.36851808,86.0
862,0.97351456,0.17771149,-1.4969864,1.8001099,0.19116211,-0.8772217,86.0
863,-0.41747665,0.27976227,-1.5158997,1.8001099,0.19116211,-0.8772217,86.0
864,-0.41747665,0.27976227,-1.5158997,1.7385132,-0.5809204,-1.2754761,86.0
865,-0.9082489,0.24878693,-1.3277969,1.7385132,-0.5809204,-1.2754761,86.0
866,-0.9082489,0.24878693,-1.3277969,1.7268311,-1.1905152,-1.5101807,86.0
867,0.11612511,0.3248825,-1.2531929,1.7268311,-1.1905152,-1.5101807,86.0
868,0.11612511,0.3248825,-1.2531929,1.5845215,-1.2181275,-1.7278931,86.0
869,1.2162762,0.6657181,-1.0994797,1.5845215,-1.2181275,-1.7278931,86.0
870,1.2162762,0.6657181,-1.0994797,1.2170655,-1.2404298,-1.992334,86.0
871,1.4232044,1.0235367,-0.8370552,1.2170655,-1.2404298,-1.992334,86.0
872,1.4232044,1.0235367,-0.8370552,0.73703617,-1.4220337,-2.2174804,86.0
873,1.1036758,1.0572319,-0.6849022,0.73703617,-1.4220337,-2.2174804,86.0
874,1.1036758,1.0572319,-0.6849022,0.31435546,-1.4677002,-2.3119996,86.0
875,0.6659851,0.75891113,-0.66685486,0.31435546,-1.4677002,-2.3119996,86.0
876,0.6659851,0.75891113,-0.66685486,-0.016992187,-1.4103516,-2.3884645,86.0
877,0.079870224,0.39328766,-0.6966171,-0.016992187,-1.4103516,-2.3884645,86.0
878,0.079870224,0.39328766,-0.6966171,-0.26019287,-1.356189,-2.4075806,86.0
879,-0.5945034,0.13673782,-0.732563,-0.26019287,-1.356189,-2.4075806,86.0
880,-0.5945034,0.13673782,-0.732563,-0.33028564,-1.3402588,-2.3651001,86.0
881,-1.0528965,-0.04460144,-0.7080116,-0.33028564,-1.3402588,-2.3651001,86.0
882,-1.0528965,-0.04460144,-0.7080116,-0.22089843,-1.3434448,-2.2281005,86.0
883,-1.1435261,-0.19636536,-0.6116371,-0.22089843,-1.3434448,-2.2281005,86.0
884,-1.1435261,-0.19636536,-0.6116371,-0.022302246,-1.2871583,-2.0454347,86.0
885,-1.0960941,-0.3145752,-0.43039703,-0.022302246,-1.2871583,-2.0454347,86.0
886,-1.0960941,-0.3145752,-0.43039703,0.17629395,-1.1310425,-1.8011719,86.0
887,-1.3447094,-0.38353348,-0.18973923,0.17629395,-1.1310425,-1.8011719,86.0
888,-1.3447094,-0.38353348,-0.18973923,0.29523927,-0.9420044,-1.5537232,86.0
889,-1.9293327,-0.3119316,-0.047885895,0.29523927,-0.9420044,-1.5537232,86.0
890,-1.9293327,-0.3119316,-0.047885895,0.28674316,-0.90908206,-1.26167,86.0
891,-2.3627663,-0.009433746,-0.16786194,0.28674316,-0.90908206,-1.26167,86.0
892,-2.3627663,-0.009433746,-0.16786194,0.09664307,-0.8336792,-0.8708496,86.0
893,-2.4767246,0.3487625,-0.50102615,0.09664307,-0.8336792,-0.8708496,86.0
894,-2.4767246,0.3487625,-0.50102615,-0.15823975,-0.45347902,-0.47790527,86.0
895,-2.6741524,0.4744568,-0.701149,-0.15823975,-0.45347902,-0.47790527,86.0
896,-2.6741524,0.4744568,-0.701149,-0.35683593,-0.1083252,-0.08071289,86.0
897,-3.0270176,0.35588455,-0.5682564,-0.35683593,-0.1083252,-0.08071289,86.0
898,-3.0270176,0.35588455,-0.5682564,-0.5628662,-0.10938721,0.31329346,86.0
899,-2.9144115,0.14601135,-0.23491669,-0.5628662,-0.10938721,0.31329346,86.0
900,-2.9144115,0.14601135,-0.23491669,-0.69349366,-0.14337158,0.6839356,86.0
901,-2.0859718,0.02671051,0.13850784,-0.69349366,-0.14337158,0.6839356,86.0
902,-2.0859718,0.02671051,0.13850784,-0.7540283,0.10195313,0.9303223,86.0
903,-0.9562893,0.15751266,0.49150848,-0.7540283,0.10195313,0.9303223,86.0
904,-0.9562893,0.15751266,0.49150848,-0.7327881,0.012744141,0.98236084,86.0
905,0.37913322,0.35615158,0.6348953,-0.7327881,0.012744141,0.98236084,86.0
906,0.37913322,0.35615158,0.6348953,-0.6053467,-0.029736329,0.9685547,86.0
907,1.6166496,0.41271973,0.36239624,-0.6053467,-0.029736329,0.9685547,86.0
908,1.6166496,0.41271973,0.36239624,-0.44710693,0.4630371,0.8952759,86.0
909,1.7275238,0.46800613,-0.10173416,-0.44710693,0.4630371,0.8952759,86.0
910,1.7275238,0.46800613,-0.10173416,-0.3536499,1.0513916,0.7688965,86.0
911,0.48731613,0.48644257,-0.20563126,-0.3536499,1.0513916,0.7688965,86.0
912,0.48731613,0.48644257,-0.20563126,-0.13381349,1.0248413,0.76677245,86.0
913,-0.62361145,0.32048798,0.22326279,-0.13381349,1.0248413,0.76677245,86.0
914,-0.62361145,0.32048798,0.22326279,0.22302246,0.5607422,0.97386473,86.0
915,-0.068237305,0.158844,0.79120636,0.22302246,0.5607422,0.97386473,86.0
916,-0.068237305,0.158844,0.79120636,0.3706421,0.1901001,1.1905152,86.0
917,1.8511848,0.22613525,1.0412178,0.3706421,0.1901001,1.1905152,86.0
918,1.8511848,0.22613525,1.0412178,0.18054199,0.15823975,1.2754761,86.0
919,3.581705,0.4948883,0.8742943,0.18054199,0.15823975,1.2754761,86.0
920,3.581705,0.4948883,0.8742943,-0.2357666,0.2516968,1.1958252,86.0
921,4.1961613,0.75457764,0.49717712,-0.2357666,0.2516968,1.1958252,86.0
922,4.1961613,0.75457764,0.49717712,-0.6903076,0.43011475,1.0747559,86.0
923,3.723421,0.8174324,0.21336746,-0.6903076,0.43011475,1.0747559,86.0
924,3.723421,0.8174324,0.21336746,-1.0057251,0.61702883,1.0216553,86.0
925,3.723421,0.8174324,0.21336746,-1.0057251,0.61702883,1.0216553,86.0
926,2.6341438,0.601017,0.20593643,-1.0057251,0.61702883,1.0216553,86.0
927,2.6341438,0.601017,0.20593643,-1.1076783,0.64995116,1.0322754,86.0
928,1.5577793,0.17834473,0.39161682,-1.1076783,0.64995116,1.0322754,86.0
929,1.5577793,0.17834473,0.39161682,-1.0365235,0.5766724,1.0460815,86.0
930,0.88560295,-0.17616272,0.6030388,-1.0365235,0.5766724,1.0460815,86.0
931,0.88560295,-0.17616272,0.6030388,-0.903772,0.5331299,1.1512207,86.0
932,0.56578255,-0.31186676,0.7696495,-0.903772,0.5331299,1.1512207,86.0
933,0.56578255,-0.31186676,0.7696495,-0.7540283,0.5363159,1.2351197,86.0
934,0.37067986,-0.28489304,0.91778183,-0.7540283,0.5363159,1.2351197,86.0
935,0.37067986,-0.28489304,0.91778183,-0.6924316,0.51826173,1.3105224,86.0
936,0.23353004,-0.24853134,1.0733986,-0.6924316,0.51826173,1.3105224,86.0
937,0.23353004,-0.24853134,1.0733986,-0.64570314,0.5246338,1.4305298,86.0
938,0.16385078,-0.2992897,1.1823158,-0.64570314,0.5246338,1.4305298,86.0
939,0.16385078,-0.2992897,1.1823158,-0.56180423,0.5384399,1.4581422,86.0
940,0.0532856,-0.35702515,1.1510506,-0.56180423,0.5384399,1.4581422,86.0
941,0.0532856,-0.35702515,1.1510506,-0.56180423,0.6945557,1.448584,86.0
942,-0.30912971,-0.40639496,0.9053879,-0.56180423,0.6945557,1.448584,86.0
943,-0.30912971,-0.40639496,0.9053879,-0.5766724,0.7083618,1.3222046,86.0
944,-0.8182392,-0.48871613,0.51465607,-0.5766724,0.7083618,1.3222046,86.0
945,-0.8182392,-0.48871613,0.51465607,-0.52675784,0.7508423,1.2287476,86.0
946,-1.3356457,-0.6353607,0.33971405,-0.52675784,0.7508423,1.2287476,86.0
947,-1.3356457,-0.6353607,0.33971405,-0.3090454,0.85704345,1.1098022,86.0
948,-1.8378639,-0.8116913,0.67435837,-0.3090454,0.85704345,1.1098022,86.0
949,-1.8378639,-0.8116913,0.67435837,-0.020178223,0.7051758,0.94625247,86.0
950,-1.8634567,-0.9268303,1.2258263,-0.020178223,0.7051758,0.94625247,86.0
951,-1.8634567,-0.9268303,1.2258263,0.33878174,0.10407715,0.7763306,86.0
952,-0.68076706,-0.8695297,1.1465073,0.33878174,0.10407715,0.7763306,86.0
953,-0.68076706,-0.8695297,1.1465073,0.45454103,-0.4704712,0.48640138,86.0
954,1.2545204,-0.7840042,0.037334442,0.45454103,-0.4704712,0.48640138,86.0
955,1.2545204,-0.7840042,0.037334442,0.74659425,0.0031860352,0.09133301,86.0
956,1.7366371,-0.9140091,-1.1200714,0.74659425,0.0031860352,0.09133301,86.0
957,1.7366371,-0.9140091,-1.1200714,1.3434448,0.6552612,-0.36851808,86.0
958,-0.25286674,-1.0230408,-1.3700066,1.3434448,0.6552612,-0.36851808,86.0
959,-0.25286674,-1.0230408,-1.3700066,1.8340943,0.087084964,-0.6988037,86.0
960,-2.364109,-0.7134628,-1.1223335,1.8340943,0.087084964,-0.6988037,86.0
961,-2.364109,-0.7134628,-1.1223335,2.0178223,-1.0312134,-0.8262451,86.0
962,-1.9408474,0.02002716,-1.0960732,2.0178223,-1.0312134,-0.8262451,86.0
963,-1.9408474,0.02002716,-1.0960732,1.6992188,-1.5218629,-0.99935305,86.0
964,0.389534,0.84552765,-1.1627579,1.6992188,-1.5218629,-0.99935305,86.0
965,0.389534,0.84552765,-1.1627579,1.0343994,-1.4761963,-1.3859253,86.0
966,2.2647038,1.4534454,-0.9787903,1.0343994,-1.4761963,-1.3859253,86.0
967,2.2647038,1.4534454,-0.9787903,0.2262085,-1.5112427,-1.7714356,86.0
968,2.7063065,1.6517448,-0.68741226,0.2262085,-1.5112427,-1.7714356,86.0
969,2.7063065,1.6517448,-0.68741226,-0.58410645,-1.5154908,-2.076233,86.0
970,2.138422,1.354599,-0.5796051,-0.58410645,-1.5154908,-2.076233,86.0
971,2.138422,1.354599,-0.5796051,-1.1342286,-1.3986695,-2.355542,86.0
972,1.0898151,0.78525543,-0.6051254,-1.1342286,-1.3986695,-2.355542,86.0
973,1.0898151,0.78525543,-0.6051254,-1.3285767,-1.2552979,-2.521216,86.0
974,0.22365761,0.466362,-0.42720413,-1.3285767,-1.2552979,-2.521216,86.0
975,0.22365761,0.466362,-0.42720413,-1.2999023,-1.2351197,-2.5488281,86.0
976,-0.7882614,-0.04683304,-0.35460663,-1.2999023,-1.2351197,-2.5488281,86.0
977,-0.7882614,-0.04683304,-0.35460663,-0.8889038,-1.2531738,-2.4012086,86.0
978,-1.0396309,-0.14661026,-0.15210342,-0.8889038,-1.2531738,-2.4012086,86.0
979,-1.0396309,-0.14661026,-0.15210342,-0.68499756,-1.2202514,-2.3024414,86.0
980,-0.9522362,-0.29277802,-0.036197662,-0.68499756,-1.2202514,-2.3024414,86.0
981,-0.9522362,-0.29277802,-0.036197662,-0.07115479,-1.0588257,-1.9509156,86.0
982,-1.0169525,-0.35238647,0.030735016,-0.07115479,-1.0588257,-1.9509156,86.0
983,-1.0169525,-0.35238647,0.030735016,0.11469727,-0.98129886,-1.7947998,86.0
984,-1.4861698,-0.26706314,0.1674118,0.11469727,-0.98129886,-1.7947998,86.0
985,-1.4861698,-0.26706314,0.1674118,0.47790527,-0.6860596,-1.2988404,86.0
986,-1.7291584,-0.2305069,0.15989304,0.47790527,-0.6860596,-1.2988404,86.0
987,-1.7291584,-0.2305069,0.15989304,0.5140137,-0.62340087,-1.1066163,86.0
988,-2.7653465,0.15907669,0.07483673,0.5140137,-0.62340087,-1.1066163,86.0
989,-2.7653465,0.15907669,0.07483673,0.40144044,-0.45135498,-0.45347902,86.0
990,-2.647665,0.20591354,-0.009479523,0.40144044,-0.45135498,-0.45347902,86.0
991,-2.647665,0.20591354,-0.009479523,0.29630128,-0.34940186,-0.2548828,86.0
992,-3.0873585,0.3533516,-0.13673401,0.29630128,-0.34940186,-0.2548828,86.0
993,-3.0873585,0.3533516,-0.13673401,-0.13062744,-0.07115479,0.29417726,86.0
994,-2.7044563,0.3553505,-0.08843994,-0.13062744,-0.07115479,0.29417726,86.0
995,-2.7044563,0.3553505,-0.08843994,-0.2803711,-0.03717041,0.45666504,86.0
996,-2.3352928,0.34121704,0.028968811,-0.2803711,-0.03717041,0.45666504,86.0
997,-2.3352928,0.34121704,0.028968811,-0.6149048,0.0541626,0.81031495,86.0
998,-1.5871048,0.32661438,0.097270966,-0.6149048,0.0541626,0.81031495,86.0
999,-1.5871048,0.32661438,0.097270966,-0.68712157,0.20921631,0.8867798,86.0
1000,-0.3977108,0.12388992,0.24895859,-0.68712157,0.20921631,0.8867798,86.0
1001,-0.3977108,0.12388992,0.24895859,-0.63720703,0.39400634,0.98129886,86.0
1002,0.11209297,0.14437485,0.295578,-0.63720703,0.39400634,0.98129886,86.0
1003,0.11209297,0.14437485,0.295578,-0.56605226,0.36108398,1.0078491,86.0
1004,1.3007584,0.10745621,0.15169907,-0.56605226,0.36108398,1.0078491,86.0
1005,1.3007584,0.10745621,0.15169907,-0.3154175,0.7391602,1.0312134,86.0
1006,1.434761,0.14980698,-0.018325806,-0.3154175,0.7391602,1.0312134,86.0
1007,1.434761,0.14980698,-0.018325806,-0.21240234,0.996167,1.0184692,86.0
1008,1.0338802,0.1399765,-0.18507004,-0.21240234,0.996167,1.0184692,86.0
1009,1.0338802,0.1399765,-0.18507004,0.04141846,1.2128174,1.0237793,86.0
1010,0.086919785,0.079460144,0.01637268,0.04141846,1.2128174,1.0237793,86.0
1011,0.086919785,0.079460144,0.01637268,0.3706421,0.9197022,1.1501588,86.0
1012,-0.07737541,0.09251022,0.44493484,0.3706421,0.9197022,1.1501588,86.0
1013,-0.07737541,0.09251022,0.44493484,0.56605226,0.55755615,1.3126465,86.0
1014,1.024746,0.25031662,0.79260635,0.56605226,0.55755615,1.3126465,86.0
1015,1.024746,0.25031662,0.79260635,0.45135498,0.3727661,1.3689331,86.0
1016,3.3415756,0.6410217,0.7611122,0.45135498,0.3727661,1.3689331,86.0
1017,3.3415756,0.6410217,0.7611122,-0.24638672,0.1996582,1.2096313,86.0
1018,3.543684,0.7369652,0.49933243,-0.24638672,0.1996582,1.2096313,86.0
1019,3.543684,0.7369652,0.49933243,-0.5246338,0.20072022,1.1490967,86.0
1020,4.0780754,0.8760948,0.0016517639,-0.5246338,0.20072022,1.1490967,86.0
1021,4.0780754,0.8760948,0.0016517639,-0.9420044,0.362146,1.002539,86.0
1022,3.8678322,0.717453,-0.2793045,-0.9420044,0.362146,1.002539,86.0
1023,3.8678322,0.717453,-0.2793045,-1.1119263,0.5957886,0.80819094,86.0
1024,3.8678322,0.717453,-0.2793045,-1.1119263,0.5957886,0.80819094,86.0
1025,2.89954,0.39687347,-0.16630173,-1.1119263,0.5957886,0.80819094,86.0
1026,2.89954,0.39687347,-0.16630173,-1.1310425,0.7327881,0.6956177,86.0
1027,1.6136131,0.07578659,0.21841049,-1.1310425,0.7327881,0.6956177,86.0
1028,1.6136131,0.07578659,0.21841049,-1.0651978,0.6945557,0.6839356,86.0
1029,0.6422825,-0.2704277,0.62438583,-1.0651978,0.6945557,0.6839356,86.0
1030,0.6422825,-0.2704277,0.62438583,-0.80606693,0.6881836,0.8230591,86.0
1031,0.16604805,-0.56482697,0.9302597,-0.80606693,0.6881836,0.8230591,86.0
1032,0.16604805,-0.56482697,0.9302597,-0.44923097,0.7051758,1.0290893,86.0
1033,-0.038230896,-0.61398315,1.1142998,-0.44923097,0.7051758,1.0290893,86.0
1034,-0.038230896,-0.61398315,1.1142998,-0.21983643,0.6903076,1.2255615,86.0
1035,-0.11940193,-0.5026016,1.0129356,-0.21983643,0.6903076,1.2255615,86.0
1036,-0.11940193,-0.5026016,1.0129356,-0.08283692,0.80606693,1.3742431,86.0
1037,-0.31380844,-0.47738647,0.6430397,-0.08283692,0.80606693,1.3742431,86.0
1038,-0.31380844,-0.47738647,0.6430397,-0.033984374,0.99085695,1.4209718,86.0
1039,-0.8110199,-0.6641617,0.2839737,-0.033984374,0.99085695,1.4209718,86.0
1040,-0.8110199,-0.6641617,0.2839737,0.07327881,1.1692749,1.3253907,86.0
1041,-1.5264893,-0.94846725,0.25365448,0.07327881,1.1692749,1.3253907,86.0
1042,-1.5264893,-0.94846725,0.25365448,0.26550293,1.1140503,1.1151123,86.0
1043,-2.0869503,-0.9669037,0.2634201,0.26550293,1.1140503,1.1151123,86.0
1044,-2.0869503,-0.9669037,0.2634201,0.31435546,0.8666016,0.77526855,86.0
1045,-1.990324,-0.62571716,-0.04663849,0.31435546,0.8666016,0.77526855,86.0
1046,-1.990324,-0.62571716,-0.04663849,0.45454103,0.7540283,0.41418457,86.0
1047,-1.3793068,-0.25097656,-0.21190643,0.45454103,0.7540283,0.41418457,86.0
1048,-1.3793068,-0.25097656,-0.21190643,0.8400513,0.70942384,0.035046387,86.0
1049,-0.57346535,0.05871582,0.13195038,0.8400513,0.70942384,0.035046387,86.0
1050,-0.57346535,0.05871582,0.13195038,0.94731444,0.19222413,-0.3058594,86.0
1051,0.4326954,0.27287292,0.074920654,0.94731444,0.19222413,-0.3058594,86.0
1052,0.4326954,0.27287292,0.074920654,0.67650145,0.098767094,-0.53100586,86.0
1053,0.97390366,0.12506104,-0.69348145,0.67650145,0.098767094,-0.53100586,86.0
1054,0.97390366,0.12506104,-0.69348145,0.62552494,0.5564942,-0.6202149,86.0
1055,-0.03788185,-0.33332825,-1.1369896,0.62552494,0.5564942,-0.6202149,86.0
1056,-0.03788185,-0.33332825,-1.1369896,0.71791995,0.32178956,-0.61065674,86.0
1057,-1.6188068,-0.65695953,-0.92964935,0.71791995,0.32178956,-0.61065674,86.0
1058,-1.6188068,-0.65695953,-0.92964935,0.8379273,-0.72004396,-0.50233155,86.0
1059,-1.4806175,-0.539238,-0.72603226,0.8379273,-0.72004396,-0.50233155,86.0
1060,-1.4806175,-0.539238,-0.72603226,0.81881106,-1.363623,-0.43754885,86.0
1061,0.4993801,-0.12353897,-0.83558655,0.81881106,-1.363623,-0.43754885,86.0
1062,0.4993801,-0.12353897,-0.83558655,0.5564942,-1.3030884,-0.5851685,86.0
1063,2.3054848,0.27157593,-0.8979988,0.5564942,-1.3030884,-0.5851685,86.0
1064,2.3054848,0.27157593,-0.8979988,0.3727661,-1.1267945,-1.0067872,86.0
1065,2.70895,0.50549316,-0.625515,0.3727661,-1.1267945,-1.0067872,86.0
1066,2.70895,0.50549316,-0.625515,0.26868898,-1.1299804,-1.2499878,86.0
1067,2.1488247,0.57260895,-0.25559998,0.26868898,-1.1299804,-1.2499878,86.0
1068,2.1488247,0.57260895,-0.25559998,0.098767094,-1.2351197,-1.4761963,86.0
1069,1.4970264,0.4655075,-0.26876068,0.098767094,-1.2351197,-1.4761963,86.0
1070,1.4970264,0.4655075,-0.26876068,-0.033984374,-1.1968873,-1.7140869,86.0
1071,0.9353409,0.26368713,-0.58239365,-0.033984374,-1.1968873,-1.7140869,86.0
1072,0.9353409,0.26368713,-0.58239365,-0.008496094,-1.0673218,-1.8680786,86.0
1073,0.2239933,0.12279129,-0.70319366,-0.008496094,-1.0673218,-1.8680786,86.0
1074,0.2239933,0.12279129,-0.70319366,0.13062744,-1.1108643,-1.9434814,86.0
1075,-0.4967823,0.13348389,-0.6800232,0.13062744,-1.1108643,-1.9434814,86.0
1076,-0.4967823,0.13348389,-0.6800232,0.14124756,-1.2266235,-1.9339234,86.0
1077,-0.94940376,0.21308517,-0.7588005,0.14124756,-1.2266235,-1.9339234,86.0
1078,-0.94940376,0.21308517,-0.7588005,0.11682129,-1.1236085,-1.8818848,86.0
1079,-1.283596,0.20022964,-0.7563667,0.11682129,-1.1236085,-1.8818848,86.0
1080,-1.283596,0.20022964,-0.7563667,0.14230958,-0.9632446,-1.7533814,86.0
1081,-1.8093472,0.10178375,-0.70991516,0.14230958,-0.9632446,-1.7533814,86.0
1082,-1.8093472,0.10178375,-0.70991516,0.016992187,-0.80394286,-1.5802735,86.0
1083,-2.5947075,0.031341553,-0.8484993,0.016992187,-0.80394286,-1.5802735,86.0
1084,-2.5947075,0.031341553,-0.8484993,-0.22196046,-0.48640138,-1.3487549,86.0
1085,-3.5928917,-0.01008606,-0.8797264,-0.22196046,-0.48640138,-1.3487549,86.0
1086,-3.5928917,-0.01008606,-0.8797264,-0.37807617,-0.2527588,-0.9674927,86.0
1087,-4.489559,-0.08401108,-0.44125748,-0.37807617,-0.2527588,-0.9674927,86.0
1088,-4.489559,-0.08401108,-0.44125748,-0.39294434,-0.34090576,-0.5246338,86.0
1089,-4.578926,-0.14501953,0.24394226,-0.39294434,-0.34090576,-0.5246338,86.0
1090,-4.578926,-0.14501953,0.24394226,-0.36108398,-0.631897,-0.11469727,86.0
1091,-3.4177418,0.069480896,0.73244476,-0.36108398,-0.631897,-0.11469727,86.0
1092,-3.4177418,0.069480896,0.73244476,-0.45135498,-0.64570314,0.3069214,86.0
1093,-1.6497326,0.56729126,0.8051567,-0.45135498,-0.64570314,0.3069214,86.0
1094,-1.6497326,0.56729126,0.8051567,-0.7423462,-0.33134767,0.5586182,86.0
1095,-0.26465797,0.8623886,0.6978226,-0.7423462,-0.33134767,0.5586182,86.0
1096,-0.26465797,0.8623886,0.6978226,-0.8581055,-0.14124756,0.71579593,86.0
1097,0.6844406,0.73202515,0.7277641,-0.8581055,-0.14124756,0.71579593,86.0
1098,0.6844406,0.73202515,0.7277641,-0.6956177,-0.2803711,0.8496094,86.0
1099,1.7002754,0.5375252,0.77568054,-0.6956177,-0.2803711,0.8496094,86.0
1100,1.7002754,0.5375252,0.77568054,-0.5692383,-0.26656494,0.9133301,86.0
1101,2.5706463,0.4938507,0.50346756,-0.5692383,-0.26656494,0.9133301,86.0
1102,2.5706463,0.4938507,0.50346756,-0.542688,0.35577393,0.8612915,86.0
1103,2.2284164,0.39144135,0.09067917,-0.542688,0.35577393,0.8612915,86.0
1104,2.2284164,0.39144135,0.09067917,-0.37382814,1.0418335,0.7657105,86.0
1105,0.3889103,0.18545532,0.11845398,-0.37382814,1.0418335,0.7657105,86.0
1106,0.3889103,0.18545532,0.11845398,-0.04885254,0.9228882,0.91120607,86.0
1107,-1.2109184,0.0902977,0.6176529,-0.04885254,0.9228882,0.91120607,86.0
1108,-1.2109184,0.0902977,0.6176529,0.27399904,0.1539917,1.2340577,86.0
1109,-0.6262665,0.12050629,1.0102844,0.27399904,0.1539917,1.2340577,86.0
1110,-0.6262665,0.12050629,1.0102844,0.26125488,-0.25700685,1.4358399,86.0
1111,-0.6262665,0.12050629,1.0102844,-0.1083252,-0.20603028,1.4772583,86.0
1112,1.6710815,0.25350952,0.9692879,-0.1083252,-0.20603028,1.4772583,86.0
1113,4.8499527,0.754467,0.6371498,-0.1083252,-0.20603028,1.4772583,86.0
1114,4.8499527,0.754467,0.6371498,-0.5883545,-0.04141846,1.3275146,86.0
1115,4.8499527,0.754467,0.6371498,-1.0036011,0.26975098,1.1406006,86.0
1116,4.8499527,0.754467,0.6371498,-1.2776002,0.5140137,1.0503296,86.0
1117,2.9412537,0.548275,0.5903206,-1.2776002,0.5140137,1.0503296,86.0
1118,2.9412537,0.548275,0.5903206,-1.4645141,0.38444826,1.0322754,86.0
1119,1.6505985,0.19659424,0.7005272,-1.4645141,0.38444826,1.0322754,86.0
1120,1.6505985,0.19659424,0.7005272,-1.4252198,0.16673584,1.080066,86.0
1121,1.6505985,0.19659424,0.7005272,-1.4252198,0.16673584,1.080066,85.0
1122,1.5021687,-0.34108734,1.0001678,-1.4252198,0.16673584,1.080066,85.0
1123,1.5021687,-0.34108734,1.0001678,-1.1299804,0.16992188,1.1055542,85.0
1124,1.8494396,-0.8046837,1.4376335,-1.1299804,0.16992188,1.1055542,85.0
1125,1.8494396,-0.8046837,1.4376335,-0.7051758,0.40144044,1.1586548,85.0
1126,1.8872414,-0.9375458,1.7486191,-0.7051758,0.40144044,1.1586548,85.0
1127,1.8872414,-0.9375458,1.7486191,-0.25063476,0.4970215,1.2021973,85.0
1128,1.6315212,-0.7958145,1.6892624,-0.25063476,0.4970215,1.2021973,85.0
1129,1.6315212,-0.7958145,1.6892624,0.15080567,0.5171997,1.1947632,85.0
1130,1.3367481,-0.61665726,1.34272,0.15080567,0.5171997,1.1947632,85.0
1131,1.3367481,-0.61665726,1.34272,0.51188964,0.76358646,1.1873292,85.0
1132,0.7306652,-0.4774475,1.0309525,0.51188964,0.76358646,1.1873292,85.0
1133,0.7306652,-0.4774475,1.0309525,0.70198977,0.90270996,1.1639649,85.0
1134,-0.18670845,-0.32198334,0.8659744,0.70198977,0.90270996,1.1639649,85.0
1135,-0.18670845,-0.32198334,0.8659744,0.71367186,0.7604004,1.1501588,85.0
1136,-0.87218094,-0.21791458,0.6606369,0.71367186,0.7604004,1.1501588,85.0
1137,-0.87218094,-0.21791458,0.6606369,0.60216063,0.65632325,1.1374146,85.0
1138,-1.232729,-0.31756973,0.3507614,0.60216063,0.65632325,1.1374146,85.0
1139,-1.232729,-0.31756973,0.3507614,0.5140137,0.7540283,1.1151123,85.0
1140,-1.7816792,-0.5911255,0.12577438,0.5140137,0.7540283,1.1151123,85.0
1141,-1.7816792,-0.5911255,0.12577438,0.4354248,0.71579593,0.9855469,85.0
1142,-2.3005257,-0.8170662,0.011924744,0.4354248,0.71579593,0.9855469,85.0
1143,-2.3005257,-0.8170662,0.011924744,0.39188233,-0.09133301,0.7720825,85.0
1144,-1.5890656,-0.9466591,-0.5187187,0.39188233,-0.09133301,0.7720825,85.0
1145,-1.5890656,-0.9466591,-0.5187187,0.5522461,-0.55968016,0.49383545,85.0
1146,-0.08692551,-1.2221107,-1.4171219,0.5522461,-0.55968016,0.49383545,85.0
1147,-0.08692551,-1.2221107,-1.4171219,1.0949341,0.16567384,-0.08920898,85.0
1148,-0.16791725,-1.5806885,-1.55439,1.0949341,0.16567384,-0.08920898,85.0
1149,-0.16791725,-1.5806885,-1.55439,1.8776368,0.4354248,-0.6552612,85.0
1150,-0.16791725,-1.5806885,-1.55439,2.3980224,-0.6595093,-1.0641358,85.0
1151,-1.9271317,-1.4361191,-0.9348068,2.3980224,-0.6595093,-1.0641358,85.0
1152,0.4869938,1.3071709,-1.9117851,2.3980224,-0.6595093,-1.0641358,85.0
1153,0.4869938,1.3071709,-1.9117851,2.443689,-1.454956,-1.2574219,85.0
1154,0.4869938,1.3071709,-1.9117851,2.0358765,-1.4124756,-1.5972656,85.0
1155,0.4869938,1.3071709,-1.9117851,1.2021973,-1.4804443,-2.0348146,85.0
1156,1.1238728,1.8166351,-1.6501541,1.2021973,-1.4804443,-2.0348146,85.0
1157,1.1238728,1.8166351,-1.6501541,0.28780517,-1.7087768,-2.360852,85.0
1158,1.0297623,1.7086563,-1.380146,0.28780517,-1.7087768,-2.360852,85.0
1159,1.0297623,1.7086563,-1.380146,-0.37382814,-1.7671875,-2.5902467,85.0
1160,0.7644596,1.1792526,-1.2075119,-0.37382814,-1.7671875,-2.5902467,85.0
1161,0.7644596,1.1792526,-1.2075119,-0.7954468,-1.6896607,-2.7984009,85.0
1162,0.35596466,0.58441925,-0.9981384,-0.7954468,-1.6896607,-2.7984009,85.0
1163,0.35596466,0.58441925,-0.9981384,-0.93138427,-1.63125,-2.89292,85.0
1164,-0.15283775,0.12239075,-0.75837326,-0.93138427,-1.63125,-2.89292,85.0
1165,-0.15283775,0.12239075,-0.75837326,-0.8219971,-1.5866455,-2.8387573,85.0
1166,-0.5715389,-0.16123962,-0.5580673,-0.8219971,-1.5866455,-2.8387573,85.0
1167,-0.5715389,-0.16123962,-0.5580673,-0.6138428,-1.5494751,-2.701758,85.0
1168,-0.76727676,-0.3285637,-0.3936348,-0.6138428,-1.5494751,-2.701758,85.0
1169,-0.76727676,-0.3285637,-0.3936348,-0.33771974,-1.448584,-2.4882934,85.0
1170,-0.8763695,-0.48921967,-0.18336487,-0.33771974,-1.448584,-2.4882934,85.0
1171,-0.8763695,-0.48921967,-0.18336487,0.038232423,-1.2128174,-2.1898682,85.0
1172,-1.2403412,-0.62997437,0.09197998,0.038232423,-1.2128174,-2.1898682,85.0
1173,-1.2403412,-0.62997437,0.09197998,0.38763428,-1.0269654,-1.8500245,85.0
1174,-1.7993526,-0.5783081,0.3330803,0.38763428,-1.0269654,-1.8500245,85.0
1175,-1.7993526,-0.5783081,0.3330803,0.54375,-1.0428956,-1.454956,85.0
1176,-2.1913986,-0.348732,0.39335632,0.54375,-1.0428956,-1.454956,85.0
1177,-2.1913986,-0.348732,0.39335632,0.58198243,-0.8581055,-0.98448485,85.0
1178,-2.5127983,-0.07990265,0.4309311,0.58198243,-0.8581055,-0.98448485,85.0
1179,-2.5127983,-0.07990265,0.4309311,0.5543701,-0.541626,-0.5065796,85.0
1180,-3.1069565,0.34047318,0.59248734,0.5543701,-0.541626,-0.5065796,85.0
1181,-3.1069565,0.34047318,0.59248734,0.2782471,-0.53737795,0.06265869,85.0
1182,-3.6076965,0.81425095,0.47446442,0.2782471,-0.53737795,0.06265869,85.0
1183,-3.6076965,0.81425095,0.47446442,-0.33665773,-0.8358032,0.45772704,85.0
1184,-3.0681648,0.89120865,-0.063251495,-0.33665773,-0.8358032,0.45772704,85.0
1185,-3.0681648,0.89120865,-0.063251495,-0.991919,-0.91757816,0.70305175,85.0
1186,-1.481266,0.56915283,-0.43743134,-0.991919,-0.91757816,0.70305175,85.0
1187,-1.481266,0.56915283,-0.43743134,-1.44115,-0.4248047,1.0174073,85.0
1188,-0.17539215,0.14253998,-0.09633255,-1.44115,-0.4248047,1.0174073,85.0
1189,-0.17539215,0.14253998,-0.09633255,-1.6631104,-0.05628662,1.0609497,85.0
1190,0.33451653,-0.10790253,0.64712906,-1.6631104,-0.05628662,1.0609497,85.0
1191,0.33451653,-0.10790253,0.64712906,-1.5834595,-0.06265869,1.0163453,85.0
1192,0.6913681,-0.054096222,0.9717064,-1.5834595,-0.06265869,1.0163453,85.0
1193,0.6913681,-0.054096222,0.9717064,-1.2542359,0.30267334,1.1469727,85.0
1194,0.79691696,0.07707214,0.7423439,-1.2542359,0.30267334,1.1469727,85.0
1195,0.79691696,0.07707214,0.7423439,-0.92501223,0.98129886,1.270166,85.0
1196,0.10249901,0.0054092407,0.49087143,-0.92501223,0.98129886,1.270166,85.0
1197,0.10249901,0.0054092407,0.49087143,-0.47896728,1.2584839,1.44115,85.0
1198,-0.73176956,-0.17455673,0.5182228,-0.47896728,1.2584839,1.44115,85.0
1199,-0.73176956,-0.17455673,0.5182228,0.06265869,1.0503296,1.8829468,85.0
1200,-0.4585476,-0.2283287,0.6220131,0.06265869,1.0503296,1.8829468,85.0
1201,-0.4585476,-0.2283287,0.6220131,0.42374268,0.8995239,2.2026124,85.0
1202,1.0149498,-0.14007187,0.6507225,0.42374268,0.8995239,2.2026124,85.0
1203,1.0149498,-0.14007187,0.6507225,0.54693604,0.84111327,2.3024414,85.0
1204,1.0149498,-0.14007187,0.6507225,0.5299439,0.7625244,2.2365968,85.0
1205,2.7511215,0.036247253,0.62901306,0.5299439,0.7625244,2.2365968,85.0
1206,5.371063,0.7070503,0.32309723,0.5299439,0.7625244,2.2365968,85.0
1207,5.371063,0.7070503,0.32309723,0.2899292,0.74871826,2.071985,85.0
1208,5.371063,0.7070503,0.32309723,-0.032922365,0.87615967,1.8680786,85.0
1209,5.128443,0.7984009,-0.10780716,-0.032922365,0.87615967,1.8680786,85.0
1210,5.128443,0.7984009,-0.10780716,-0.16992188,1.2181275,1.6801026,85.0
1211,4.140705,0.6333618,-0.36320877,-0.16992188,1.2181275,1.6801026,85.0
1212,4.140705,0.6333618,-0.36320877,-0.1731079,1.44115,1.5707153,85.0
1213,2.7300682,0.35803223,-0.21029282,-0.1731079,1.44115,1.5707153,85.0
1214,2.7300682,0.35803223,-0.21029282,-0.13062744,1.3668091,1.5643433,85.0
1215,1.6543541,0.018665314,0.25073624,-0.13062744,1.3668091,1.5643433,85.0
1216,1.6543541,0.018665314,0.25073624,-0.021240234,1.179895,1.6620483,85.0
1217,1.2485809,-0.28650665,0.733963,-0.021240234,1.179895,1.6620483,85.0
1218,1.2485809,-0.28650665,0.733963,0.07646485,1.075818,1.7576294,85.0
1219,1.1436653,-0.33002472,0.99258804,0.07646485,1.075818,1.7576294,85.0
1220,1.1436653,-0.33002472,0.99258804,-0.050976563,1.0237793,1.7778076,85.0
1221,1.1436653,-0.33002472,0.99258804,-0.050976563,1.0237793,1.7778076,85.0
1222,0.9927883,-0.19377899,0.9720993,-0.050976563,1.0237793,1.7778076,85.0
1223,0.9927883,-0.19377899,0.9720993,-0.26337892,0.87191164,1.7236451,85.0
1224,0.8564129,-0.18079376,0.8161926,-0.26337892,0.87191164,1.7236451,85.0
1225,0.8564129,-0.18079376,0.8161926,-0.42055663,0.8028809,1.5770874,85.0
1226,0.6366081,-0.32138062,0.70380783,-0.42055663,0.8028809,1.5770874,85.0
1227,0.6366081,-0.32138062,0.70380783,-0.53737795,0.9228882,1.3986695,85.0
1228,0.020223618,-0.5446167,0.72042084,-0.53737795,0.9228882,1.3986695,85.0
1229,0.020223618,-0.5446167,0.72042084,-0.6159668,0.9218262,1.1193603,85.0
1230,-0.80781937,-0.7881851,0.6776924,-0.6159668,0.9218262,1.1193603,85.0
1231,-0.80781937,-0.7881851,0.6776924,-0.6042847,0.71579593,0.81031495,85.0
1232,-1.2462673,-0.98204803,0.4713173,-0.6042847,0.71579593,0.81031495,85.0
1233,-1.2462673,-0.98204803,0.4713173,-0.40037844,0.5214478,0.48427734,85.0
1234,-1.2723808,-1.0055618,0.33768463,-0.40037844,0.5214478,0.48427734,85.0
1235,-1.2723808,-1.0055618,0.33768463,-0.07646485,0.5968506,0.078588866,85.0
1236,-1.4255333,-0.7245674,0.44709015,-0.07646485,0.5968506,0.078588866,85.0
1237,-1.4255333,-0.7245674,0.44709015,0.1083252,0.37701416,-0.3695801,85.0
1238,-1.3142796,-0.27149963,0.3138504,0.1083252,0.37701416,-0.3695801,85.0
1239,-1.3142796,-0.27149963,0.3138504,0.18160401,-0.3345337,-0.7688965,85.0
1240,-0.30277824,-0.07192612,-0.5879936,0.18160401,-0.3345337,-0.7688965,85.0
1241,-0.30277824,-0.07192612,-0.5879936,0.47896728,-0.12850343,-1.1331666,85.0
1242,0.20415306,-0.18482208,-1.493515,0.47896728,-0.12850343,-1.1331666,85.0
1243,0.20415306,-0.18482208,-1.493515,0.98236084,0.42905274,-1.5558472,85.0
1244,-1.0575027,-0.31314087,-1.5226822,0.98236084,0.42905274,-1.5558472,85.0
1245,-1.0575027,-0.31314087,-1.5226822,1.5622193,0.095581055,-1.7119629,85.0
1246,-2.7374325,-0.09755707,-1.1397171,1.5622193,0.095581055,-1.7119629,85.0
1247,-2.7374325,-0.09755707,-1.1397171,1.7363892,-0.70198977,-1.7374512,85.0
1248,-2.7374325,-0.09755707,-1.1397171,1.5707153,-1.3073364,-1.8319702,85.0
1249,-2.7562904,0.42807007,-1.1632996,1.5707153,-1.3073364,-1.8319702,85.0
1250,1.0729351,1.5812263,-1.4242554,1.5707153,-1.3073364,-1.8319702,85.0
1251,1.0729351,1.5812263,-1.4242554,1.3349488,-1.3360108,-1.9668458,85.0
1252,1.0729351,1.5812263,-1.4242554,0.9515625,-1.3285767,-2.2036743,85.0
1253,1.0729351,1.5812263,-1.4242554,0.3079834,-1.4135376,-2.441565,85.0
1254,0.64247894,1.5633469,-1.0947151,0.3079834,-1.4135376,-2.441565,85.0
1255,0.64247894,1.5633469,-1.0947151,-0.26550293,-1.5558472,-2.5859985,85.0
1256,0.28181648,1.2420197,-1.1690598,-0.26550293,-1.5558472,-2.5859985,85.0
1257,0.28181648,1.2420197,-1.1690598,-0.6159668,-1.6333741,-2.6752076,85.0
1258,0.3475113,0.68115234,-1.2425003,-0.6159668,-1.6333741,-2.6752076,85.0
1259,0.3475113,0.68115234,-1.2425003,-0.6467652,-1.5261109,-2.6486573,85.0
1260,0.52606773,0.123916626,-0.9784851,-0.6467652,-1.5261109,-2.6486573,85.0
1261,0.52606773,0.123916626,-0.9784851,-0.4333008,-1.3264526,-2.6380372,85.0
1262,0.41643524,-0.21451569,-0.46403885,-0.4333008,-1.3264526,-2.6380372,85.0
1263,0.41643524,-0.21451569,-0.46403885,-0.23789063,-1.1140503,-2.4574952,85.0
1264,-0.120025635,-0.4365692,-0.06351471,-0.23789063,-1.1140503,-2.4574952,85.0
1265,-0.120025635,-0.4365692,-0.06351471,0.08814698,-0.9834229,-2.247217,85.0
1266,-0.7820072,-0.5764046,0.031536102,0.08814698,-0.9834229,-2.247217,85.0
1267,-0.7820072,-0.5764046,0.031536102,0.3717041,-1.0407715,-1.9541016,85.0
1268,-1.0751896,-0.515995,-0.13569641,0.3717041,-1.0407715,-1.9541016,85.0
1269,-1.0751896,-0.515995,-0.13569641,0.4800293,-1.0099732,-1.5431031,85.0
1270,-0.97691345,-0.34946442,-0.31040192,0.4800293,-1.0099732,-1.5431031,85.0
1271,-0.97691345,-0.34946442,-0.31040192,0.49383545,-0.81987303,-1.2064453,85.0
1272,-0.9975357,-0.18533325,-0.28002167,0.49383545,-0.81987303,-1.2064453,85.0
1273,-0.9975357,-0.18533325,-0.28002167,0.42799073,-0.5256958,-0.8028809,85.0
1274,-1.473383,-0.05594635,-0.17464066,0.42799073,-0.5256958,-0.8028809,85.0
1275,-1.473383,-0.05594635,-0.17464066,0.23682861,-0.27506104,-0.35152587,85.0
1276,-2.1145096,-0.012176514,-0.18257141,0.23682861,-0.27506104,-0.35152587,85.0
1277,-2.1145096,-0.012176514,-0.18257141,-0.0021240234,-0.07327881,0.14868164,85.0
1278,-2.4388237,-0.14152908,-0.24219894,-0.0021240234,-0.07327881,0.14868164,85.0
1279,-2.4388237,-0.14152908,-0.24219894,-0.15930176,0.11682129,0.65844727,85.0
1280,-2.3665142,-0.3507614,-0.16530228,-0.15930176,0.11682129,0.65844727,85.0
1281,-2.3665142,-0.3507614,-0.16530228,-0.19116211,0.36745605,1.1278565,85.0
1282,-2.2647686,-0.36336136,-0.008049011,-0.19116211,0.36745605,1.1278565,85.0
1283,-2.2647686,-0.36336136,-0.008049011,-0.26444092,0.72323,1.4804443,85.0
1284,-2.2975693,-0.23384094,0.1464653,-0.26444092,0.72323,1.4804443,85.0
1285,-2.2975693,-0.23384094,0.1464653,-0.270813,0.72004396,1.6514282,85.0
1286,-1.7219772,-0.26759338,0.3666458,-0.270813,0.72004396,1.6514282,85.0
1287,-1.7219772,-0.26759338,0.3666458,-0.052038576,0.26656494,1.6992188,85.0
1288,-0.07210159,-0.27113342,0.47670364,-0.052038576,0.26656494,1.6992188,85.0
1289,-0.07210159,-0.27113342,0.47670364,0.121069334,0.43967286,1.6811646,85.0
1290,1.3103733,0.05722809,0.3071823,0.121069334,0.43967286,1.6811646,85.0
1291,1.3103733,0.05722809,0.3071823,0.14974366,1.0917481,1.5144287,85.0
1292,1.0112152,0.51361847,0.07917023,0.14974366,1.0917481,1.5144287,85.0
1293,1.0112152,0.51361847,0.07917023,0.13381349,1.2489258,1.3731812,85.0
1294,-0.13881683,0.68833923,0.018024445,0.13381349,1.2489258,1.3731812,85.0
1295,-0.13881683,0.68833923,0.018024445,0.2177124,0.7497803,1.360437,85.0
1296,-0.15535164,0.5463257,0.06826401,0.2177124,0.7497803,1.360437,85.0
1297,-0.15535164,0.5463257,0.06826401,0.23258057,0.3812622,1.3838013,85.0
1298,-0.15535164,0.5463257,0.06826401,-0.032922365,0.32922363,1.4369019,85.0
1299,1.2904892,0.39816666,0.19317245,-0.032922365,0.32922363,1.4369019,85.0
1300,5.3083057,0.65782547,0.47029495,-0.032922365,0.32922363,1.4369019,85.0
1301,5.3083057,0.65782547,0.47029495,-0.4343628,0.28674316,1.3774292,85.0
1302,5.3083057,0.65782547,0.47029495,-0.6796875,0.26975098,1.2627319,85.0
1303,5.3083057,0.65782547,0.47029495,-0.87191164,0.41524658,1.1374146,85.0
1304,4.642935,0.5656662,0.34065247,-0.87191164,0.41524658,1.1374146,85.0
1305,4.642935,0.5656662,0.34065247,-0.9802368,0.5936646,1.0662597,85.0
1306,3.6569138,0.32133102,0.42033768,-0.9802368,0.5936646,1.0662597,85.0
1307,3.6569138,0.32133102,0.42033768,-0.9505005,0.6488892,1.0620117,85.0
1308,2.7102852,0.020141602,0.65296936,-0.9505005,0.6488892,1.0620117,85.0
1309,2.7102852,0.020141602,0.65296936,-0.73597413,0.5649902,1.1448487,85.0
1310,2.1501617,-0.17175293,0.8070564,-0.73597413,0.5649902,1.1448487,85.0
1311,2.1501617,-0.17175293,0.8070564,-0.4333008,0.5713623,1.2276856,85.0
1312,1.8969479,-0.23937988,0.7303734,-0.4333008,0.5713623,1.2276856,85.0
1313,1.8969479,-0.23937988,0.7303734,-0.08602295,0.60959476,1.2563599,85.0
1314,1.6914711,-0.18682861,0.6068077,-0.08602295,0.60959476,1.2563599,85.0
1315,1.6914711,-0.18682861,0.6068077,0.07540283,0.6488892,1.3328247,85.0
1316,1.385746,-0.061767578,0.731102,0.07540283,0.6488892,1.3328247,85.0
1317,1.385746,-0.061767578,0.731102,0.16142578,0.70198977,1.3784913,85.0
1318,0.9613323,0.046813965,1.0296822,0.16142578,0.70198977,1.3784913,85.0
1319,0.9613323,0.046813965,1.0296822,0.115759276,0.70305175,1.3986695,85.0
1320,0.44649506,0.10335541,1.1463165,0.115759276,0.70305175,1.3986695,85.0
1321,0.44649506,0.10335541,1.1463165,0.115759276,0.70305175,1.3986695,84.0
1322,0.44649506,0.10335541,1.1463165,-0.081774905,0.76677245,1.4007934,84.0
1323,-0.17675209,0.048797607,0.93886566,-0.081774905,0.76677245,1.4007934,84.0
1324,-0.17675209,0.048797607,0.93886566,-0.34940186,0.7327881,1.3275146,84.0
1325,-0.6969433,-0.13539124,0.5995407,-0.34940186,0.7327881,1.3275146,84.0
1326,-0.6969433,-0.13539124,0.5995407,-0.51826173,0.54906005,1.2181275,84.0
1327,-0.849535,-0.38965988,0.404171,-0.51826173,0.54906005,1.2181275,84.0
1328,-0.849535,-0.38965988,0.404171,-0.542688,0.47578126,1.0726318,84.0
1329,-0.8906517,-0.5854454,0.39519882,-0.542688,0.47578126,1.0726318,84.0
1330,-0.8906517,-0.5854454,0.39519882,-0.5915405,0.5734863,0.7986328,84.0
1331,-1.2637424,-0.67264175,0.41800308,-0.5915405,0.5734863,0.7986328,84.0
1332,-1.2637424,-0.67264175,0.41800308,-0.5320679,0.5129517,0.48109132,84.0
1333,-1.596138,-0.8471451,0.29642487,-0.5320679,0.5129517,0.48109132,84.0
1334,-1.596138,-0.8471451,0.29642487,-0.18160401,0.0998291,0.17735596,84.0
1335,-1.3314381,-1.1511154,-0.138031,-0.18160401,0.0998291,0.17735596,84.0
1336,-1.3314381,-1.1511154,-0.138031,0.4959595,0.035046387,-0.16461182,84.0
1337,-1.1646366,-1.2343559,-0.77119064,0.4959595,0.035046387,-0.16461182,84.0
1338,-1.1646366,-1.2343559,-0.77119064,1.1395386,0.2442627,-0.5607422,84.0
1339,-1.9713211,-0.8289757,-1.2639847,1.1395386,0.2442627,-0.5607422,84.0
1340,-1.9713211,-0.8289757,-1.2639847,1.449646,-0.107263185,-0.9303223,84.0
1341,-2.747797,-0.14968109,-1.4809265,1.449646,-0.107263185,-0.9303223,84.0
1342,-2.747797,-0.14968109,-1.4809265,1.538855,-0.94412845,-1.1597168,84.0
1343,-1.9068928,0.5084152,-1.5383301,1.538855,-0.94412845,-1.1597168,84.0
1344,-1.9068928,0.5084152,-1.5383301,1.3126465,-1.4061035,-1.4528321,84.0
1345,0.1664772,1.1013947,-1.4404297,1.3126465,-1.4061035,-1.4528321,84.0
1346,0.1664772,1.1013947,-1.4404297,0.76677245,-1.3466309,-1.8139161,84.0
1347,1.7606716,1.4484863,-1.1248779,0.76677245,-1.3466309,-1.8139161,84.0
1348,1.7606716,1.4484863,-1.1248779,0.21983643,-1.2765381,-2.2036743,84.0
1349,2.186552,1.3078003,-0.7309799,0.21983643,-1.2765381,-2.2036743,84.0
1350,2.186552,1.3078003,-0.7309799,-0.13168946,-1.2468017,-2.4766114,84.0
1351,1.8426132,0.7870102,-0.47362518,-0.13168946,-1.2468017,-2.4766114,84.0
1352,1.8426132,0.7870102,-0.47362518,-0.22089843,-1.2255615,-2.6921997,84.0
1353,1.2423649,0.21449661,-0.36576462,-0.22089843,-1.2255615,-2.6921997,84.0
1354,1.2423649,0.21449661,-0.36576462,0.057348635,-1.1724609,-2.8812377,84.0
1355,0.58628654,-0.057540894,-0.30021667,0.057348635,-1.1724609,-2.8812377,84.0
1356,0.58628654,-0.057540894,-0.30021667,0.25700685,-1.1246704,-2.9184082,84.0
1357,-0.047315598,0.008155823,-0.30716705,0.25700685,-1.1246704,-2.9184082,84.0
1358,-0.047315598,0.008155823,-0.30716705,0.3090454,-1.1395386,-2.9120362,84.0
1359,-0.48387337,0.105587006,-0.39640427,0.3090454,-1.1395386,-2.9120362,84.0
1360,-0.48387337,0.105587006,-0.39640427,0.40993652,-1.1342286,-2.7707887,84.0
1361,-0.67855453,0.0295372,-0.44449234,0.40993652,-1.1342286,-2.7707887,84.0
1362,-0.67855453,0.0295372,-0.44449234,0.5872925,-1.0503296,-2.538208,84.0
1363,-0.8783417,-0.13326645,-0.35025787,0.5872925,-1.0503296,-2.538208,84.0
1364,-0.8783417,-0.13326645,-0.35025787,0.63614506,-0.9600586,-2.3194337,84.0
1365,-1.1558113,-0.19490814,-0.2573433,0.63614506,-0.9600586,-2.3194337,84.0
1366,-1.1558113,-0.19490814,-0.2573433,0.58410645,-0.9505005,-2.0008302,84.0
1367,-1.4136009,-0.18301392,-0.29924774,0.58410645,-0.9505005,-2.0008302,84.0
1368,-1.4136009,-0.18301392,-0.29924774,0.4980835,-0.79969484,-1.6185058,84.0
1369,-1.736826,-0.19238281,-0.3683052,0.4980835,-0.79969484,-1.6185058,84.0
1370,-1.736826,-0.19238281,-0.3683052,0.49171144,-0.45666504,-1.1459106,84.0
1371,-2.3713703,-0.30986023,-0.23374176,0.49171144,-0.45666504,-1.1459106,84.0
1372,-2.3713703,-0.30986023,-0.23374176,0.47578126,-0.16567384,-0.634021,84.0
1373,-3.1383076,-0.43135834,0.027069092,0.47578126,-0.16567384,-0.634021,84.0
1374,-3.1383076,-0.43135834,0.027069092,0.2814331,-0.3079834,-0.13275146,84.0
1375,-3.2443123,-0.3576584,0.10168457,0.2814331,-0.3079834,-0.13275146,84.0
1376,-3.2443123,-0.3576584,0.10168457,-0.023364259,-0.5150757,0.37807617,84.0
1377,-2.238943,-0.1604805,-0.09709549,-0.023364259,-0.5150757,0.37807617,84.0
1378,-2.238943,-0.1604805,-0.09709549,-0.33028564,-0.37489015,0.6605713,84.0
1379,-0.94657516,0.08040619,-0.24593735,-0.33028564,-0.37489015,0.6605713,84.0
1380,-0.94657516,0.08040619,-0.24593735,-0.6244629,0.08071289,0.811377,84.0
1381,-0.30861664,0.2766571,-0.08541107,-0.6244629,0.08071289,0.811377,84.0
1382,-0.30861664,0.2766571,-0.08541107,-0.81031495,0.15505372,0.901648,84.0
1383,0.048088074,0.2552147,0.110271454,-0.81031495,0.15505372,0.901648,84.0
1384,0.048088074,0.2552147,0.110271454,-0.89102787,0.23895264,1.0142212,84.0
1385,0.55874634,0.024291992,0.04504013,-0.89102787,0.23895264,1.0142212,84.0
1386,0.55874634,0.024291992,0.04504013,-0.77526855,0.78164065,1.1352905,84.0
1387,0.4699707,-0.21829987,0.001964569,-0.77526855,0.78164065,1.1352905,84.0
1388,0.4699707,-0.21829987,0.001964569,-0.4248047,1.4039795,1.2860962,84.0
1389,-0.6694946,-0.40127563,0.2742386,-0.4248047,1.4039795,1.2860962,84.0
1390,-0.6694946,-0.40127563,0.2742386,0.16779785,1.5908936,1.5494751,84.0
1391,-1.7997551,-0.4652214,0.7653389,0.16779785,1.5908936,1.5494751,84.0
1392,-1.7997551,-0.4652214,0.7653389,0.76464844,1.2117554,1.8001099,84.0
1393,-1.4008636,-0.41941833,1.0884438,0.76464844,1.2117554,1.8001099,84.0
1394,-1.4008636,-0.41941833,1.0884438,1.178833,0.724292,1.8744507,84.0
1395,0.6204109,-0.1667862,0.9661789,1.178833,0.724292,1.8744507,84.0
1396,0.6204109,-0.1667862,0.9661789,1.1692749,0.5076416,1.814978,84.0
1397,0.6204109,-0.1667862,0.9661789,0.6775635,0.45454103,1.6567383,84.0
1398,2.942337,0.39002228,0.4659233,0.6775635,0.45454103,1.6567383,84.0
1399,5.456337,1.5315247,-0.62711334,0.6775635,0.45454103,1.6567383,84.0
1400,5.456337,1.5315247,-0.62711334,-0.008496094,0.57242435,1.4294678,84.0
1401,5.456337,1.5315247,-0.62711334,-0.6000366,0.81243896,1.170337,84.0
1402,5.456337,1.5315247,-0.62711334,-0.86341554,0.9600586,1.0906861,84.0
1403,4.520111,1.422535,-0.7837105,-0.86341554,0.9600586,1.0906861,84.0
1404,2.639368,-0.10510254,0.5776596,-0.86341554,0.9600586,1.0906861,84.0
1405,2.639368,-0.10510254,0.5776596,-1.0248413,0.8262451,0.93350834,84.0
1406,2.639368,-0.10510254,0.5776596,-1.2446778,0.69349366,0.85385746,84.0
1407,2.639368,-0.10510254,0.5776596,-0.8230591,0.55968016,0.8708496,84.0
1408,2.2776928,-0.59952545,0.7361641,-0.8230591,0.55968016,0.8708496,84.0
1409,2.2776928,-0.59952545,0.7361641,-0.54587406,0.35577393,1.2117554,84.0
1410,2.2456036,-0.28662872,0.89052963,-0.54587406,0.35577393,1.2117554,84.0
1411,2.2456036,-0.28662872,0.89052963,-0.54587406,0.35577393,1.2117554,83.0
1412,2.2456036,-0.28662872,0.89052963,-0.72960204,0.36002198,1.2181275,83.0
1413,2.3619366,0.035820007,1.0111542,-0.72960204,0.36002198,1.2181275,83.0
1414,2.3619366,0.035820007,1.0111542,-0.66588134,0.48109132,1.2563599,83.0
1415,2.1514149,0.029964447,0.99505615,-0.66588134,0.48109132,1.2563599,83.0
1416,2.1514149,0.029964447,0.99505615,-0.4959595,0.68287355,1.2850342,83.0
1417,1.2924824,-0.016239166,0.84023285,-0.4959595,0.68287355,1.2850342,83.0
1418,1.2924824,-0.016239166,0.84023285,-0.4258667,0.8602295,1.2298096,83.0
1419,0.10905838,-0.12586975,0.6240425,-0.4258667,0.8602295,1.2298096,83.0
1420,0.10905838,-0.12586975,0.6240425,-0.3982544,0.89846194,1.3126465,83.0
1421,-0.79881287,-0.44210052,0.5256386,-0.3982544,0.89846194,1.3126465,83.0
1422,-0.79881287,-0.44210052,0.5256386,-0.1444336,0.727478,1.3349488,83.0
1423,-1.0514889,-0.7444,0.5827904,-0.1444336,0.727478,1.3349488,83.0
1424,-1.0514889,-0.7444,0.5827904,0.06903076,0.5883545,1.2489258,83.0
1425,-0.9987221,-0.8319206,0.5558319,0.06903076,0.5883545,1.2489258,83.0
1426,-0.9987221,-0.8319206,0.5558319,0.24001466,0.7827026,1.0471436,83.0
1427,-1.3150177,-0.8298683,0.48531342,0.24001466,0.7827026,1.0471436,83.0
1428,-1.3150177,-0.8298683,0.48531342,0.4609131,0.62764895,0.7317261,83.0
1429,-1.6513672,-0.8548126,0.3622856,0.4609131,0.62764895,0.7317261,83.0
1430,-1.6513672,-0.8548126,0.3622856,0.72216797,-0.012744141,0.3525879,83.0
1431,-1.2282467,-0.82048416,-0.22002411,0.72216797,-0.012744141,0.3525879,83.0
1432,-1.2282467,-0.82048416,-0.22002411,0.9451904,-0.1731079,-0.11363526,83.0
1433,-0.7450981,-0.6854515,-1.076519,0.9451904,-0.1731079,-0.11363526,83.0
1434,-0.7450981,-0.6854515,-1.076519,1.2436157,0.052038576,-0.59260255,83.0
1435,-1.2616787,-0.44450378,-1.4986649,1.2436157,0.052038576,-0.59260255,83.0
1436,-1.2616787,-0.44450378,-1.4986649,1.4984986,-0.32709962,-1.0407715,83.0
1437,-1.9648609,-0.054992676,-1.4257736,1.4984986,-0.32709962,-1.0407715,83.0
1438,-1.9648609,-0.054992676,-1.4257736,1.5133667,-1.0556396,-1.3317627,83.0
1439,-1.4639912,0.42515564,-1.3377876,1.5133667,-1.0556396,-1.3317627,83.0
1440,-1.4639912,0.42515564,-1.3377876,1.264856,-1.3678712,-1.5983276,83.0
1441,-0.06396675,0.89222336,-1.262577,1.264856,-1.3678712,-1.5983276,83.0
1442,-0.06396675,0.89222336,-1.262577,0.80394286,-1.4082276,-1.8691406,83.0
1443,-0.06396675,0.89222336,-1.262577,0.20603028,-1.5239868,-2.1505737,83.0
1444,1.0569324,1.2398148,-0.95417786,0.20603028,-1.5239868,-2.1505737,83.0
1445,2.0376358,1.0275574,-0.76416016,0.20603028,-1.5239868,-2.1505737,83.0
1446,2.0376358,1.0275574,-0.76416016,-0.33028564,-1.5802735,-2.3789062,83.0
1447,2.0376358,1.0275574,-0.76416016,-0.72216797,-1.5165528,-2.5817506,83.0
1448,2.0376358,1.0275574,-0.76416016,-0.73703617,-1.3381348,-2.7006958,83.0
1449,1.3734684,0.51444244,-0.73088455,-0.73703617,-1.3381348,-2.7006958,83.0
1450,1.3734684,0.51444244,-0.73088455,-0.4895874,-1.2829102,-2.7304323,83.0
1451,0.7085533,0.21557236,-0.5492363,-0.4895874,-1.2829102,-2.7304323,83.0
1452,0.7085533,0.21557236,-0.5492363,-0.17947999,-1.2361816,-2.5552003,83.0
1453,0.31053162,0.072971344,-0.36783218,-0.17947999,-1.2361816,-2.5552003,83.0
1454,0.31053162,0.072971344,-0.36783218,0.035046387,-1.1990112,-2.3916504,83.0
1455,0.13420486,-0.032627106,-0.26949692,0.035046387,-1.1990112,-2.3916504,83.0
1456,0.13420486,-0.032627106,-0.26949692,0.26019287,-1.0545777,-2.1293335,83.0
1457,-0.09486961,-0.14958954,-0.25947952,0.26019287,-1.0545777,-2.1293335,83.0
1458,-0.09486961,-0.14958954,-0.25947952,0.41949463,-0.9260742,-1.8139161,83.0
1459,-0.48667526,-0.17792511,-0.26369858,0.41949463,-0.9260742,-1.8139161,83.0
1460,-0.48667526,-0.17792511,-0.26369858,0.4598511,-0.77314454,-1.4783204,83.0
1461,-0.9900112,-0.10902786,-0.25312424,0.4598511,-0.77314454,-1.4783204,83.0
1462,-0.9900112,-0.10902786,-0.25312424,0.38657227,-0.5384399,-1.088562,83.0
1463,-1.6089649,-0.08666229,-0.24921417,0.38657227,-0.5384399,-1.088562,83.0
1464,-1.6089649,-0.08666229,-0.24921417,0.33771974,-0.2814331,-0.68499756,83.0
1465,-2.2879295,-0.119197845,-0.24342728,0.33771974,-0.2814331,-0.68499756,83.0
1466,-2.2879295,-0.119197845,-0.24342728,0.21558838,-0.087084964,-0.18372802,83.0
1467,-2.8032322,-0.17185974,-0.22243881,0.21558838,-0.087084964,-0.18372802,83.0
1468,-2.8032322,-0.17185974,-0.22243881,0.045666505,0.046728518,0.30373535,83.0
1469,-2.964302,-0.2375946,-0.16608429,0.045666505,0.046728518,0.30373535,83.0
1470,-2.964302,-0.2375946,-0.16608429,-0.060534667,0.14549561,0.7349121,83.0
1471,-2.7575378,-0.22374344,-0.10897827,-0.060534667,0.14549561,0.7349121,83.0
1472,-2.7575378,-0.22374344,-0.10897827,-0.16992188,0.2357666,1.0715698,83.0
1473,-2.2985592,-0.08253479,-0.06544113,-0.16992188,0.2357666,1.0715698,83.0
1474,-2.2985592,-0.08253479,-0.06544113,-0.32922363,0.4354248,1.2552979,83.0
1475,-1.6746998,0.047073364,0.11356354,-0.32922363,0.4354248,1.2552979,83.0
1476,-1.6746998,0.047073364,0.11356354,-0.38763428,0.44604492,1.3105224,83.0
1477,-0.995924,0.12440491,0.273674,-0.38763428,0.44604492,1.3105224,83.0
1478,-0.995924,0.12440491,0.273674,-0.34727785,0.362146,1.3126465,83.0
1479,0.7471924,0.12861252,0.7641678,-0.34727785,0.362146,1.3126465,83.0
1480,0.7471924,0.12861252,0.7641678,-0.1901001,0.48640138,1.2468017,83.0
1481,1.2737064,0.21321869,0.6415329,-0.1901001,0.48640138,1.2468017,83.0
1482,1.2737064,0.21321869,0.6415329,-0.16142578,0.75615233,1.173523,83.0
1483,0.95181465,0.3318901,0.37537003,-0.16142578,0.75615233,1.173523,83.0
1484,0.95181465,0.3318901,0.37537003,0.05522461,1.2298096,1.0386475,83.0
1485,0.3264656,0.3042221,0.26581192,0.05522461,1.2298096,1.0386475,83.0
1486,0.3264656,0.3042221,0.26581192,0.20390625,1.0705079,1.0375855,83.0
1487,-0.74339294,0.27196503,0.5562401,0.20390625,1.0705079,1.0375855,83.0
1488,-0.74339294,0.27196503,0.5562401,0.52250975,0.28568116,1.0768799,83.0
1489,-0.74339294,0.27196503,0.5562401,0.452417,0.13381349,1.0768799,83.0
1490,-0.105005264,0.31586456,0.50525665,0.452417,0.13381349,1.0768799,83.0
1491,5.2964764,1.6545334,0.08466339,0.452417,0.13381349,1.0768799,83.0
1492,5.2964764,1.6545334,0.08466339,-0.22408448,-0.021240234,1.0131592,83.0
1493,5.2964764,1.6545334,0.08466339,-0.51932377,-0.007434082,0.95581055,83.0
1494,5.2964764,1.6545334,0.08466339,-1.2223755,0.21240234,0.7189819,83.0
1495,4.2371807,1.3236237,0.06772995,-1.2223755,0.21240234,0.7189819,83.0
1496,3.0098,0.4919548,0.5543175,-1.2223755,0.21240234,0.7189819,83.0
1497,3.0098,0.4919548,0.5543175,-1.3859253,0.29205322,0.6701294,83.0
1498,3.0098,0.4919548,0.5543175,-1.4942505,0.34090576,0.6669434,83.0
1499,3.0098,0.4919548,0.5543175,-1.3986695,0.29311523,0.70942384,83.0
1500,1.9542027,-0.23849106,0.95910263,-1.3986695,0.29311523,0.70942384,83.0
1501,1.9542027,-0.23849106,0.95910263,-1.0089111,0.20390625,0.9515625,83.0
1502,1.6876545,-0.24391556,0.9680519,-1.0089111,0.20390625,0.9515625,83.0
1503,1.6876545,-0.24391556,0.9680519,-0.8612915,0.21134034,0.998291,83.0
1504,1.6400166,-0.26844788,1.0164108,-0.8612915,0.21134034,0.998291,83.0
1505,1.6400166,-0.26844788,1.0164108,-0.5097656,0.3419678,1.1437867,83.0
1506,1.4999523,-0.13618088,0.92245483,-0.5097656,0.3419678,1.1437867,83.0
1507,1.4999523,-0.13618088,0.92245483,-0.4248047,0.39188233,1.1586548,83.0
1508,1.279747,-0.030281067,0.8953476,-0.4248047,0.39188233,1.1586548,83.0
1509,1.279747,-0.030281067,0.8953476,-0.26868898,0.44498292,1.176709,83.0
1510,1.0515327,-0.0661087,0.8490181,-0.26868898,0.44498292,1.176709,83.0
1511,1.0515327,-0.0661087,0.8490181,-0.087084964,0.53100586,1.171399,83.0
1512,0.81975365,-0.120269775,0.82182693,-0.087084964,0.53100586,1.171399,83.0
1513,0.81975365,-0.120269775,0.82182693,-0.010620117,0.634021,1.1522827,83.0
1514,0.42927742,-0.1272583,0.7624397,-0.010620117,0.634021,1.1522827,83.0
1515,0.42927742,-0.1272583,0.7624397,0.004248047,0.6701294,1.1204224,83.0
1516,0.42927742,-0.1272583,0.7624397,0.004248047,0.6701294,1.1204224,81.0
1517,-0.39180756,-0.22462082,0.5072174,0.004248047,0.6701294,1.1204224,81.0
1518,-0.39180756,-0.22462082,0.5072174,0.06584473,0.6180908,0.99935305,81.0
1519,-0.44719887,-0.25019073,0.33238602,0.06584473,0.6180908,0.99935305,81.0
1520,-0.44719887,-0.25019073,0.33238602,0.08071289,0.631897,0.9568726,81.0
1521,-1.2026691,-0.4618988,0.1696434,0.08071289,0.631897,0.9568726,81.0
1522,-1.2026691,-0.4618988,0.1696434,0.14124756,0.5968506,0.68712157,81.0
1523,-1.1794567,-0.5050812,0.15858841,0.14124756,0.5968506,0.68712157,81.0
1524,-1.1794567,-0.5050812,0.15858841,0.23258057,0.5501221,0.5968506,81.0
1525,-1.3947258,-0.7521515,0.3326683,0.23258057,0.5501221,0.5968506,81.0
1526,-1.3947258,-0.7521515,0.3326683,0.4428589,0.010620117,0.2347046,81.0
1527,-0.97504616,-0.70246506,0.13393402,0.4428589,0.010620117,0.2347046,81.0
1528,-0.97504616,-0.70246506,0.13393402,0.52675784,0.020178223,0.10620117,81.0
1529,-0.5294266,-0.66049194,-0.4197693,0.52675784,0.020178223,0.10620117,81.0
1530,-0.5294266,-0.66049194,-0.4197693,0.7434082,0.2262085,-0.16354981,81.0
1531,-0.95524216,-0.62812805,-0.95716476,0.7434082,0.2262085,-0.16354981,81.0
1532,-0.95524216,-0.62812805,-0.95716476,1.0110352,0.1359375,-0.44179687,81.0
1533,-1.8498497,-0.61180496,-1.1118393,1.0110352,0.1359375,-0.44179687,81.0
1534,-1.8498497,-0.61180496,-1.1118393,1.270166,-0.40037844,-0.631897,81.0
1535,-1.8498497,-0.61180496,-1.1118393,1.3105224,-1.0152832,-0.8219971,81.0
1536,-1.8316498,-0.4225502,-1.0629196,1.3105224,-1.0152832,-0.8219971,81.0
1537,1.6063595,1.1187477,-1.2355881,1.3105224,-1.0152832,-0.8219971,81.0
1538,1.6063595,1.1187477,-1.2355881,1.09281,-1.0460815,-1.1193603,81.0
1539,1.6063595,1.1187477,-1.2355881,0.7688965,-0.9388184,-1.4698242,81.0
1540,1.6063595,1.1187477,-1.2355881,0.36745605,-1.0598878,-1.7374512,81.0
1541,1.4083309,1.0884705,-0.9322548,0.36745605,-1.0598878,-1.7374512,81.0
1542,1.4083309,1.0884705,-0.9322548,0.038232423,-1.1852051,-1.9477295,81.0
1543,1.3225994,0.73417664,-1.0150528,0.038232423,-1.1852051,-1.9477295,81.0
1544,1.3225994,0.73417664,-1.0150528,-0.13168946,-1.0991821,-2.1951783,81.0
1545,0.79164886,0.51888275,-0.8652153,-0.13168946,-1.0991821,-2.1951783,81.0
1546,0.79164886,0.51888275,-0.8652153,-0.18585205,-1.0864381,-2.247217,81.0
1547,0.29953003,0.37335968,-0.76052094,-0.18585205,-1.0864381,-2.247217,81.0
1548,0.29953003,0.37335968,-0.76052094,-0.25700685,-1.0641358,-2.2312868,81.0
1549,-0.17206955,0.23587036,-0.6492615,-0.25700685,-1.0641358,-2.2312868,81.0
1550,-0.17206955,0.23587036,-0.6492615,-0.14761963,-1.1140503,-2.1930542,81.0
1551,-0.34098816,0.06958008,-0.57767487,-0.14761963,-1.1140503,-2.1930542,81.0
1552,-0.34098816,0.06958008,-0.57767487,0.0,-1.0991821,-2.0273805,81.0
1553,-0.24110031,-0.048290253,-0.51854706,0.0,-1.0991821,-2.0273805,81.0
1554,-0.24110031,-0.048290253,-0.51854706,0.0637207,-0.9717407,-1.8436524,81.0
1555,-0.19345474,-0.11365509,-0.43473434,0.0637207,-0.9717407,-1.8436524,81.0
1556,-0.19345474,-0.11365509,-0.43473434,0.11363526,-0.79332274,-1.627002,81.0
1557,-0.37780952,-0.1793747,-0.30490494,0.11363526,-0.79332274,-1.627002,81.0
1558,-0.37780952,-0.1793747,-0.30490494,0.20178223,-0.631897,-1.3402588,81.0
1559,-0.7018089,-0.25198364,-0.1264801,0.20178223,-0.631897,-1.3402588,81.0
1560,-0.7018089,-0.25198364,-0.1264801,0.30373535,-0.48640138,-0.994043,81.0
1561,-0.9991913,-0.30742264,0.036815643,0.30373535,-0.48640138,-0.994043,81.0
1562,-0.9991913,-0.30742264,0.036815643,0.33984375,-0.28780517,-0.62340087,81.0
1563,-1.3267326,-0.314003,0.055858612,0.33984375,-0.28780517,-0.62340087,81.0
1564,-1.3267326,-0.314003,0.055858612,0.27612305,-0.04991455,-0.23895264,81.0
1565,-1.655283,-0.24812317,-0.14133453,0.27612305,-0.04991455,-0.23895264,81.0
1566,-1.655283,-0.24812317,-0.14133453,0.13806152,0.06159668,0.1444336,81.0
1567,-1.7476406,-0.10523987,-0.4806099,0.13806152,0.06159668,0.1444336,81.0
1568,-1.7476406,-0.10523987,-0.4806099,-0.027612304,0.23045655,0.5501221,81.0
1569,-1.6353931,0.06580734,-0.6512108,-0.027612304,0.23045655,0.5501221,81.0
1570,-1.6353931,0.06580734,-0.6512108,-0.2166504,0.5894165,0.79013675,81.0
1571,-1.6978645,0.28688812,-0.47714615,-0.2166504,0.5894165,0.79013675,81.0
1572,-1.6978645,0.28688812,-0.47714615,-0.36639404,0.7858887,1.0970582,81.0
1573,-1.8933258,0.53040314,-0.04455948,-0.36639404,0.7858887,1.0970582,81.0
1574,-1.8933258,0.53040314,-0.04455948,-0.4800293,0.8326172,1.358313,81.0
1575,-1.7288933,0.5578537,0.44142532,-0.4800293,0.8326172,1.358313,81.0
1576,-1.7288933,0.5578537,0.44142532,-0.54375,0.6074707,1.4910644,81.0
1577,-0.7619705,0.43816376,0.61402893,-0.54375,0.6074707,1.4910644,81.0
1578,-0.7619705,0.43816376,0.61402893,-0.67225343,0.35577393,1.4921265,81.0
1579,0.68987465,0.48523712,0.26882172,-0.67225343,0.35577393,1.4921265,81.0
1580,0.68987465,0.48523712,0.26882172,-0.80819094,0.57454836,1.3997315,81.0
1581,1.362606,0.638237,-0.11483765,-0.80819094,0.57454836,1.3997315,81.0
1582,1.362606,0.638237,-0.11483765,-0.7688965,1.1427246,1.2043213,81.0
1583,0.37566757,0.69252396,0.09350586,-0.7688965,1.1427246,1.2043213,81.0
1584,0.37566757,0.69252396,0.09350586,-0.67437744,1.2138795,0.998291,81.0
1585,-1.1772861,0.69296265,0.68218994,-0.67437744,1.2138795,0.998291,81.0
1586,-1.1772861,0.69296265,0.68218994,-0.56817627,0.6117188,0.994043,81.0
