,accx,accy,accz,gyrox,gyroy,gyroz,heart rate
0,walk,walk,walk,walk,walk,walk,walk
1,6.3991947,18.605225,123.534546,0.0,0.0,0.0,0.0
2,6.3991947,18.605225,123.534546,-0.90270996,0.05522461,0.28674316,0.0
3,6.3991947,18.605225,123.534546,-0.3982544,0.124255374,0.22727051,0.0
4,4.991951,14.516615,98.401276,-0.3982544,0.124255374,0.22727051,0.0
5,3.9833193,11.347973,78.32655,-0.3982544,0.124255374,0.22727051,0.0
6,3.9833193,11.347973,78.32655,0.23258057,0.13806152,0.1996582,0.0
7,3.239756,9.078684,62.542603,0.23258057,0.13806152,0.1996582,0.0
8,3.239756,9.078684,62.542603,0.32603762,0.1178833,0.13062744,0.0
9,2.6262898,7.393465,50.114906,0.32603762,0.1178833,0.13062744,0.0
10,2.6262898,7.393465,50.114906,0.15080567,0.13487549,0.11682129,0.0
11,2.6262898,7.393465,50.114906,-0.033984374,0.08920898,0.13168946,0.0
12,2.101715,5.9916515,40.25099,-0.033984374,0.08920898,0.13168946,0.0
13,1.6894774,4.7401237,32.37496,-0.033984374,0.08920898,0.13168946,0.0
14,1.6894774,4.7401237,32.37496,-0.16779785,0.0180542,0.2166504,0.0
15,1.3702345,3.7039757,25.966438,-0.16779785,0.0180542,0.2166504,0.0
16,1.3702345,3.7039757,25.966438,-0.24213867,0.0541626,0.24744873,0.0
17,1.0787678,2.9594822,20.653946,-0.24213867,0.0541626,0.24744873,0.0
18,1.0787678,2.9594822,20.653946,-0.14549561,0.027612304,0.15823975,0.0
19,0.822731,2.4156685,16.363144,-0.14549561,0.027612304,0.15823975,0.0
20,0.822731,2.4156685,16.363144,-0.1720459,0.010620117,0.17416993,0.0
21,0.6055236,1.8726349,13.075912,-0.1720459,0.010620117,0.17416993,0.0
22,0.6055236,1.8726349,13.075912,-0.14549561,0.014868164,0.10089111,0.0
23,0.51443577,1.337328,10.619034,-0.14549561,0.014868164,0.10089111,0.0
24,0.51443577,1.337328,10.619034,0.023364259,0.0031860352,0.12531738,0.0
25,0.6346321,0.9590111,8.659485,0.023364259,0.0031860352,0.12531738,0.0
26,0.6346321,0.9590111,8.659485,0.16248779,-0.020178223,0.41312256,0.0
27,0.678421,0.7474098,6.972641,0.16248779,-0.020178223,0.41312256,0.0
28,0.678421,0.7474098,6.972641,0.60216063,-0.07752686,0.9165161,0.0
29,0.678421,0.7474098,6.972641,0.60216063,-0.07752686,0.9165161,79.0
30,0.3501587,0.72701645,5.560028,0.60216063,-0.07752686,0.9165161,79.0
31,0.3501587,0.72701645,5.560028,0.45029297,0.03717041,0.057348635,79.0
32,0.19539785,1.1987762,4.421631,0.45029297,0.03717041,0.057348635,79.0
33,0.19539785,1.1987762,4.421631,-0.90695804,0.17841797,-0.42161867,79.0
34,0.21852541,1.0314941,3.5009918,-0.90695804,0.17841797,-0.42161867,79.0
35,0.21852541,1.0314941,3.5009918,-0.21452637,0.050976563,0.20072022,79.0
36,0.07250118,0.16788292,2.8073425,-0.21452637,0.050976563,0.20072022,79.0
37,0.07250118,0.16788292,2.8073425,0.1901001,-0.010620117,-0.04885254,79.0
38,0.07250118,0.16788292,2.8073425,-0.0031860352,0.022302246,0.040356446,79.0
39,0.083415985,-0.115522385,2.2898254,-0.0031860352,0.022302246,0.040356446,79.0
40,0.14168406,0.08249664,1.8434906,-0.0031860352,0.022302246,0.040356446,79.0
41,0.14168406,0.08249664,1.8434906,0.08071289,0.029736329,0.021240234,79.0
42,0.12446785,0.23868942,1.4496765,0.08071289,0.029736329,0.021240234,79.0
43,0.12446785,0.23868942,1.4496765,0.04248047,0.028674318,0.008496094,79.0
44,0.11915398,0.21824646,1.1544495,0.04248047,0.028674318,0.008496094,79.0
45,0.11915398,0.21824646,1.1544495,-0.016992187,0.033984374,0.014868164,79.0
46,0.11190033,0.067726135,0.9380493,-0.016992187,0.033984374,0.014868164,79.0
47,0.11190033,0.067726135,0.9380493,0.0361084,0.027612304,0.040356446,79.0
48,0.08720112,-0.07012367,0.7768707,0.0361084,0.027612304,0.040356446,79.0
49,0.08720112,-0.07012367,0.7768707,0.021240234,0.04248047,0.007434082,79.0
50,0.08314037,-0.12018585,0.624588,0.021240234,0.04248047,0.007434082,79.0
51,0.08314037,-0.12018585,0.624588,0.0541626,0.04141846,0.0180542,79.0
52,0.087911606,-0.030071259,0.47624207,0.0541626,0.04141846,0.0180542,79.0
53,0.087911606,-0.030071259,0.47624207,0.057348635,0.045666505,0.0,79.0
54,0.07014656,0.109256744,0.35232544,0.057348635,0.045666505,0.0,79.0
55,0.07014656,0.109256744,0.35232544,-0.0063720704,0.06265869,-0.023364259,79.0
56,0.07014656,0.109256744,0.35232544,0.0031860352,0.06584473,-0.020178223,79.0
57,0.04903698,0.11406708,0.27304077,0.0031860352,0.06584473,-0.020178223,79.0
58,0.020748138,0.03162384,0.2434082,0.0031860352,0.06584473,-0.020178223,79.0
59,0.020748138,0.03162384,0.2434082,0.047790527,0.06584473,-0.0063720704,79.0
60,-0.032754898,0.025640488,0.21939087,0.047790527,0.06584473,-0.0063720704,79.0
61,-0.032754898,0.025640488,0.21939087,0.045666505,0.06159668,0.0021240234,79.0
62,-0.1183424,0.059892654,0.18395996,0.045666505,0.06159668,0.0021240234,79.0
63,-0.1183424,0.059892654,0.18395996,0.058410645,0.0541626,0.023364259,79.0
64,-0.18777752,0.045289993,0.14627075,0.058410645,0.0541626,0.023364259,79.0
65,-0.18777752,0.045289993,0.14627075,0.11151123,0.040356446,0.043542482,79.0
66,-0.2021265,0.022743225,0.08010864,0.11151123,0.040356446,0.043542482,79.0
67,-0.2021265,0.022743225,0.08010864,0.15823975,0.032922365,0.050976563,79.0
68,-0.1867013,0.057964325,0.0012664795,0.15823975,0.032922365,0.050976563,79.0
69,-0.1867013,0.057964325,0.0012664795,0.15611573,-0.0010620117,0.021240234,79.0
70,-0.14805508,0.16191101,-0.028640747,0.15611573,-0.0010620117,0.021240234,79.0
71,-0.14805508,0.16191101,-0.028640747,0.046728518,-0.019116212,-0.07752686,79.0
72,-0.026903152,0.23765945,0.0016174316,0.046728518,-0.019116212,-0.07752686,79.0
73,-0.026903152,0.23765945,0.0016174316,-0.07646485,0.016992187,-0.12531738,79.0
74,0.07324076,0.23985863,-0.037994385,-0.07646485,0.016992187,-0.12531738,79.0
75,0.07324076,0.23985863,-0.037994385,-0.022302246,0.07646485,-0.058410645,79.0
76,0.036424637,0.27305222,-0.2511902,-0.022302246,0.07646485,-0.058410645,79.0
77,0.036424637,0.27305222,-0.2511902,0.07327881,0.10620117,-0.008496094,79.0
78,-0.007078171,0.30353737,-0.47251892,0.07327881,0.10620117,-0.008496094,79.0
79,-0.007078171,0.30353737,-0.47251892,0.16567384,0.14655761,-0.019116212,79.0
80,0.05445671,0.28699493,-0.4462433,0.16567384,0.14655761,-0.019116212,79.0
81,0.05445671,0.28699493,-0.4462433,0.2177124,0.15930176,-0.09239502,79.0
82,0.05445671,0.28699493,-0.4462433,0.2166504,0.21134034,-0.17947999,79.0
83,0.16555023,0.3279972,-0.18305969,0.2166504,0.21134034,-0.17947999,79.0
84,0.2059145,0.52332306,0.09994507,0.2166504,0.21134034,-0.17947999,79.0
85,0.2059145,0.52332306,0.09994507,0.11469727,0.23045655,-0.32497558,79.0
86,0.1531353,0.77498245,0.28756714,0.11469727,0.23045655,-0.32497558,79.0
87,0.1531353,0.77498245,0.28756714,-0.14230958,0.27293703,-0.4067505,79.0
88,0.05787182,0.78310776,0.3538208,-0.14230958,0.27293703,-0.4067505,79.0
89,0.05787182,0.78310776,0.3538208,-0.34090576,0.31966552,-0.39188233,79.0
90,-0.08485508,0.40240097,0.28649902,-0.34090576,0.31966552,-0.39188233,79.0
91,-0.08485508,0.40240097,0.28649902,-0.30054933,0.31116945,-0.25594482,79.0
92,-0.2802496,-0.028263092,0.13145447,-0.30054933,0.31116945,-0.25594482,79.0
93,-0.2802496,-0.028263092,0.13145447,-0.032922365,0.24532472,-0.12000733,79.0
94,-0.42466354,-0.091362,0.024459839,-0.032922365,0.24532472,-0.12000733,79.0
95,-0.42466354,-0.091362,0.024459839,0.06265869,0.17629395,-0.07646485,79.0
96,-0.43593454,0.12513924,0.046722412,0.06265869,0.17629395,-0.07646485,79.0
97,-0.43593454,0.12513924,0.046722412,0.021240234,0.15505372,0.015930176,79.0
98,-0.41493416,0.25204086,0.16572571,0.021240234,0.15505372,0.015930176,79.0
99,-0.41493416,0.25204086,0.16572571,0.023364259,0.1263794,0.14761963,79.0
100,-0.46320963,0.09531021,0.2318573,0.023364259,0.1263794,0.14761963,79.0
101,-0.46320963,0.09531021,0.2318573,0.033984374,0.10513916,0.3175415,79.0
102,-0.5219469,-0.22990417,0.16886902,0.033984374,0.10513916,0.3175415,79.0
103,-0.5219469,-0.22990417,0.16886902,0.20603028,0.07965088,0.45878908,79.0
104,-0.4755411,-0.44905853,0.058898926,0.20603028,0.07965088,0.45878908,79.0
105,-0.4755411,-0.44905853,0.058898926,0.36533204,0.09239502,0.59897465,79.0
106,-0.3379159,-0.47039032,-0.039367676,0.36533204,0.09239502,0.59897465,79.0
107,-0.3379159,-0.47039032,-0.039367676,0.36320803,0.090270996,0.6701294,79.0
108,-0.21952724,-0.4914379,-0.121398926,0.36320803,0.090270996,0.6701294,79.0
109,-0.21952724,-0.4914379,-0.121398926,0.2793091,0.027612304,0.65419924,79.0
110,-0.07808781,-0.6059551,-0.07852173,0.2793091,0.027612304,0.65419924,79.0
111,-0.07808781,-0.6059551,-0.07852173,0.1901001,-0.038232423,0.542688,79.0
112,0.22042751,-0.74765396,0.14701843,0.1901001,-0.038232423,0.542688,79.0
113,0.22042751,-0.74765396,0.14701843,0.1529297,-0.029736329,0.51188964,79.0
114,0.55818987,-0.87086487,0.3466797,0.1529297,-0.029736329,0.51188964,79.0
115,0.55818987,-0.87086487,0.3466797,0.15611573,0.0053100586,0.5140137,79.0
116,0.6814642,-0.87381744,0.31784058,0.15611573,0.0053100586,0.5140137,79.0
117,0.6814642,-0.87381744,0.31784058,0.23364258,0.0361084,0.50445557,79.0
118,0.6546807,-0.66054153,0.17774963,0.23364258,0.0361084,0.50445557,79.0
119,0.6546807,-0.66054153,0.17774963,0.20072022,0.08814698,0.44073486,79.0
120,0.6128316,-0.40389824,0.083969116,0.20072022,0.08814698,0.44073486,79.0
121,0.6128316,-0.40389824,0.083969116,0.021240234,0.15080567,0.37807617,79.0
122,0.49730873,-0.33174896,-0.019256592,0.021240234,0.15080567,0.37807617,79.0
123,0.49730873,-0.33174896,-0.019256592,-0.07434082,0.15717773,0.32816163,79.0
124,0.32331085,-0.45418167,-0.14480591,-0.07434082,0.15717773,0.32816163,79.0
125,0.32331085,-0.45418167,-0.14480591,-0.090270996,0.14761963,0.29736328,79.0
126,0.18987465,-0.5432644,-0.22767639,-0.090270996,0.14761963,0.29736328,79.0
127,0.18987465,-0.5432644,-0.22767639,-0.090270996,0.14761963,0.29736328,79.0
128,0.18987465,-0.5432644,-0.22767639,-0.093457036,0.12956543,0.29630128,79.0
129,0.08389473,-0.47421074,-0.23143005,-0.093457036,0.12956543,0.29630128,79.0
130,0.08389473,-0.47421074,-0.23143005,-0.06159668,0.10407715,0.32391357,79.0
131,-0.0014638901,-0.37807465,-0.17312622,-0.06159668,0.10407715,0.32391357,79.0
132,-0.0014638901,-0.37807465,-0.17312622,-0.033984374,0.06584473,0.3345337,79.0
133,-0.00809288,-0.3594303,-0.060531616,-0.033984374,0.06584473,0.3345337,79.0
134,-0.00809288,-0.3594303,-0.060531616,-0.028674318,0.04141846,0.3154175,79.0
135,0.07207775,-0.4071617,0.0921936,-0.028674318,0.04141846,0.3154175,79.0
136,0.07207775,-0.4071617,0.0921936,-0.053100586,0.016992187,0.2803711,79.0
137,0.1798544,-0.4775734,0.23890686,-0.053100586,0.016992187,0.2803711,79.0
138,0.1798544,-0.4775734,0.23890686,-0.07646485,0.0063720704,0.24532472,79.0
139,0.29285812,-0.5100002,0.36380005,-0.07646485,0.0063720704,0.24532472,79.0
140,0.29285812,-0.5100002,0.36380005,-0.08496094,0.009558106,0.22196046,79.0
141,0.36600018,-0.4374199,0.43092346,-0.08496094,0.009558106,0.22196046,79.0
142,0.36600018,-0.4374199,0.43092346,-0.10089111,0.021240234,0.2081543,79.0
143,0.35371304,-0.2713089,0.37521362,-0.10089111,0.021240234,0.2081543,79.0
144,0.35371304,-0.2713089,0.37521362,-0.12531738,0.04248047,0.18797608,79.0
145,0.30007267,-0.11179924,0.24423218,-0.12531738,0.04248047,0.18797608,79.0
146,0.30007267,-0.11179924,0.24423218,-0.16461182,0.060534667,0.15611573,79.0
147,0.25548744,-0.057676315,0.16049194,-0.16461182,0.060534667,0.15611573,79.0
148,0.25548744,-0.057676315,0.16049194,-0.17416993,0.07646485,0.14974366,79.0
149,0.20525646,-0.08631325,0.14019775,-0.17416993,0.07646485,0.14974366,79.0
150,0.20525646,-0.08631325,0.14019775,-0.14337158,0.07752686,0.115759276,79.0
151,0.1489706,-0.1066246,0.1424408,-0.14337158,0.07752686,0.115759276,79.0
152,0.1489706,-0.1066246,0.1424408,-0.11257324,0.06903076,0.09133301,79.0
153,0.11453724,-0.070858,0.13565063,-0.11257324,0.06903076,0.09133301,79.0
154,0.11453724,-0.070858,0.13565063,-0.11469727,0.060534667,0.060534667,79.0
155,0.10912228,-0.0061016083,0.08317566,-0.11469727,0.060534667,0.060534667,79.0
156,0.10912228,-0.0061016083,0.08317566,-0.13168946,0.04885254,0.028674318,79.0
157,0.11105251,0.04594803,-0.010040283,-0.13168946,0.04885254,0.028674318,79.0
158,0.11105251,0.04594803,-0.010040283,-0.1263794,0.03717041,-0.016992187,79.0
159,0.13061428,0.0463295,-0.066711426,-0.1263794,0.03717041,-0.016992187,79.0
160,0.13061428,0.0463295,-0.066711426,-0.118945315,0.022302246,-0.06584473,79.0
161,0.13265324,-0.011899948,-0.05281067,-0.118945315,0.022302246,-0.06584473,79.0
162,0.13265324,-0.011899948,-0.05281067,-0.11151123,0.0053100586,-0.093457036,79.0
163,0.08242893,-0.029453278,-0.0054779053,-0.11151123,0.0053100586,-0.093457036,79.0
164,0.08242893,-0.029453278,-0.0054779053,-0.13487549,-0.022302246,-0.14018555,79.0
165,0.023767471,0.012630463,0.010116577,-0.13487549,-0.022302246,-0.14018555,79.0
166,0.023767471,0.012630463,0.010116577,-0.19116211,-0.046728518,-0.17629395,79.0
167,-0.027153015,0.0029392242,-0.007843018,-0.19116211,-0.046728518,-0.17629395,79.0
168,-0.027153015,0.0029392242,-0.007843018,-0.15823975,-0.08814698,-0.20072022,79.0
169,-0.093011856,-0.036014557,-0.019821167,-0.15823975,-0.08814698,-0.20072022,79.0
170,-0.093011856,-0.036014557,-0.019821167,-0.07646485,-0.13487549,-0.20390625,79.0
171,-0.1341505,-0.025283813,0.020965576,-0.07646485,-0.13487549,-0.20390625,79.0
172,-0.1341505,-0.025283813,0.020965576,-0.014868164,-0.16461182,-0.20178223,79.0
173,-0.12732792,0.012439728,0.09371948,-0.014868164,-0.16461182,-0.20178223,79.0
174,-0.12732792,0.012439728,0.09371948,0.010620117,-0.18054199,-0.18903808,79.0
175,-0.117316246,0.038627625,0.12211609,0.010620117,-0.18054199,-0.18903808,79.0
176,-0.117316246,0.038627625,0.12211609,0.004248047,-0.16567384,-0.18691407,79.0
177,-0.12684822,0.02472496,0.077545166,0.004248047,-0.16567384,-0.18691407,79.0
178,-0.12684822,0.02472496,0.077545166,0.009558106,-0.15186767,-0.18372802,79.0
179,-0.16460133,0.008487701,0.015670776,0.009558106,-0.15186767,-0.18372802,79.0
180,-0.16460133,0.008487701,0.015670776,0.04141846,-0.14974366,-0.16142578,79.0
181,-0.2050085,0.07850647,0.017242432,0.04141846,-0.14974366,-0.16142578,79.0
182,-0.2050085,0.07850647,0.017242432,0.020178223,-0.13062744,-0.14974366,79.0
183,-0.2332573,0.18175125,0.026168823,0.020178223,-0.13062744,-0.14974366,79.0
184,-0.2332573,0.18175125,0.026168823,-0.032922365,-0.093457036,-0.14018555,79.0
185,-0.25166893,0.25856018,-0.0854187,-0.032922365,-0.093457036,-0.14018555,79.0
186,-0.25166893,0.25856018,-0.0854187,-0.033984374,-0.059472658,-0.09451904,79.0
187,-0.32184315,0.35493088,-0.3184662,-0.033984374,-0.059472658,-0.09451904,79.0
188,-0.32184315,0.35493088,-0.3184662,-0.0063720704,-0.046728518,-0.057348635,79.0
189,-0.41565323,0.42700005,-0.4660797,-0.0063720704,-0.046728518,-0.057348635,79.0
190,-0.41565323,0.42700005,-0.4660797,0.022302246,-0.043542482,-0.0541626,79.0
191,-0.4068508,0.37360764,-0.40066528,0.022302246,-0.043542482,-0.0541626,79.0
192,-0.4068508,0.37360764,-0.40066528,0.04141846,-0.047790527,-0.083898924,79.0
193,-0.26583672,0.25382996,-0.20664978,0.04141846,-0.047790527,-0.083898924,79.0
194,-0.26583672,0.25382996,-0.20664978,0.040356446,-0.046728518,-0.12213135,79.0
195,-0.080088615,0.18248367,-0.032043457,0.040356446,-0.046728518,-0.12213135,79.0
196,-0.080088615,0.18248367,-0.032043457,0.027612304,-0.046728518,-0.16142578,79.0
197,0.07544327,0.13652611,0.05732727,0.027612304,-0.046728518,-0.16142578,79.0
198,0.07544327,0.13652611,0.05732727,-0.015930176,-0.052038576,-0.1985962,79.0
199,0.22153664,0.09122658,0.078201294,-0.015930176,-0.052038576,-0.1985962,79.0
200,0.22153664,0.09122658,0.078201294,-0.095581055,-0.06159668,-0.2516968,79.0
201,0.36149406,0.022529602,0.034301758,-0.095581055,-0.06159668,-0.2516968,79.0
202,0.36149406,0.022529602,0.034301758,-0.16779785,-0.05628662,-0.29417726,79.0
203,0.44979095,-0.0771904,-0.058059692,-0.16779785,-0.05628662,-0.29417726,79.0
204,0.44979095,-0.0771904,-0.058059692,-0.23258057,-0.060534667,-0.35471192,79.0
205,0.5028744,-0.1467247,-0.22775269,-0.23258057,-0.060534667,-0.35471192,79.0
206,0.5028744,-0.1467247,-0.22775269,-0.38338622,-0.0722168,-0.47365722,79.0
207,0.54585457,-0.18255234,-0.4540863,-0.38338622,-0.0722168,-0.47365722,79.0
208,0.54585457,-0.18255234,-0.4540863,-0.61702883,-0.07965088,-0.6605713,79.0
209,0.58581734,-0.20192528,-0.67411804,-0.61702883,-0.07965088,-0.6605713,79.0
210,0.58581734,-0.20192528,-0.67411804,-0.8878418,-0.09664307,-0.90058595,79.0
211,0.6291151,-0.14532852,-0.87002563,-0.8878418,-0.09664307,-0.90058595,79.0
212,0.6291151,-0.14532852,-0.87002563,-1.1629028,-0.09664307,-1.1490967,79.0
213,0.67680264,-0.09381485,-0.9335785,-1.1629028,-0.09664307,-1.1490967,79.0
214,0.67680264,-0.09381485,-0.9335785,-1.449646,-0.08283692,-1.4061035,79.0
215,0.7123165,-0.08368111,-0.7425842,-1.449646,-0.08283692,-1.4061035,79.0
216,0.7123165,-0.08368111,-0.7425842,-1.5431031,-0.1083252,-1.5515991,79.0
217,0.6453171,0.03763199,-0.34169006,-1.5431031,-0.1083252,-1.5515991,79.0
218,0.6453171,0.03763199,-0.34169006,-1.4092896,-0.15505372,-1.6429322,79.0
219,4.6789856,2.1640778,-4.7949677,-1.4092896,-0.15505372,-1.6429322,79.0
220,4.6789856,2.1640778,-4.7949677,-1.2510499,-0.2527588,-1.6567383,79.0
221,-0.49940205,0.3254013,1.6525726,-1.2510499,-0.2527588,-1.6567383,79.0
222,-0.49940205,0.3254013,1.6525726,-1.0864381,-0.36320803,-1.6896607,79.0
223,-0.3533554,0.7131901,7.6285706,-1.0864381,-0.36320803,-1.6896607,79.0
224,-0.3533554,0.7131901,7.6285706,-1.0864381,-0.36320803,-1.6896607,78.0
225,-0.3533554,0.7131901,7.6285706,-0.86766356,-0.4619751,-1.7077149,78.0
226,-0.16744995,0.9882889,0.9144592,-0.86766356,-0.4619751,-1.7077149,78.0
227,-0.16744995,0.9882889,0.9144592,-0.64570314,-0.4970215,-1.6397461,78.0
228,-4.4570436,-1.7562923,6.5200195,-0.64570314,-0.4970215,-1.6397461,78.0
229,-4.4570436,-1.7562923,6.5200195,-0.50233155,-0.50870365,-1.5059327,78.0
230,0.44030952,1.9530354,-0.2690277,-0.50233155,-0.50870365,-1.5059327,78.0
231,0.44030952,1.9530354,-0.2690277,-0.3536499,-0.54587406,-1.3699951,78.0
232,-0.28279877,1.8676891,-0.48780823,-0.3536499,-0.54587406,-1.3699951,78.0
233,-0.28279877,1.8676891,-0.48780823,-0.24532472,-0.6117188,-1.2149414,78.0
234,-0.8718319,1.6143532,-0.69750977,-0.24532472,-0.6117188,-1.2149414,78.0
235,-0.8718319,1.6143532,-0.69750977,-0.11363526,-0.68287355,-1.0991821,78.0
236,-1.1834393,1.2453632,-0.8435669,-0.11363526,-0.68287355,-1.0991821,78.0
237,-1.1834393,1.2453632,-0.8435669,0.087084964,-0.7678345,-0.9366943,78.0
238,-1.3634024,1.0117207,-0.99697876,0.087084964,-0.7678345,-0.9366943,78.0
239,-1.3634024,1.0117207,-0.99697876,0.26125488,-0.83686525,-0.85598147,78.0
240,-1.4951773,0.9405899,-1.1247864,0.26125488,-0.83686525,-0.85598147,78.0
241,-1.4951773,0.9405899,-1.1247864,0.30161133,-0.8644776,-0.8219971,78.0
242,-1.5291495,0.7669735,-1.110672,0.30161133,-0.8644776,-0.8219971,78.0
243,-1.5291495,0.7669735,-1.110672,0.3164795,-0.85491943,-0.82730716,78.0
244,-1.4388471,0.4813633,-0.95544434,0.3164795,-0.85491943,-0.82730716,78.0
245,-1.4388471,0.4813633,-0.95544434,0.29417726,-0.7986328,-0.84536135,78.0
246,-1.3107824,0.30865097,-0.8273773,0.29417726,-0.7986328,-0.84536135,78.0
247,-1.3107824,0.30865097,-0.8273773,0.17629395,-0.6860596,-0.85385746,78.0
248,-1.2534847,0.29579735,-0.808609,0.17629395,-0.6860596,-0.85385746,78.0
249,-1.2534847,0.29579735,-0.808609,0.03717041,-0.5564942,-0.8379273,78.0
250,-1.2870898,0.3432045,-0.79940796,0.03717041,-0.5564942,-0.8379273,78.0
251,-1.2870898,0.3432045,-0.79940796,-0.07646485,-0.4343628,-0.8092529,78.0
252,-1.3312712,0.33431625,-0.6710663,-0.07646485,-0.4343628,-0.8092529,78.0
253,-1.3312712,0.33431625,-0.6710663,-0.1444336,-0.31435546,-0.77314454,78.0
254,-1.2970729,0.27035713,-0.3935089,-0.1444336,-0.31435546,-0.77314454,78.0
255,-1.2970729,0.27035713,-0.3935089,-0.13806152,-0.23151855,-0.6988037,78.0
256,-1.1942377,0.25077057,-9.1552734E-5,-0.13806152,-0.23151855,-0.6988037,78.0
257,-1.1942377,0.25077057,-9.1552734E-5,-0.13699952,-0.18160401,-0.5968506,78.0
258,-1.0230293,0.2498951,0.42868042,-0.13699952,-0.18160401,-0.5968506,78.0
259,-1.0230293,0.2498951,0.42868042,-0.1529297,-0.15080567,-0.4895874,78.0
260,-0.6846466,0.20620155,0.8079529,-0.1529297,-0.15080567,-0.4895874,78.0
261,-0.6846466,0.20620155,0.8079529,-0.13062744,-0.09451904,-0.32391357,78.0
262,-0.19797373,0.115169525,1.101593,-0.13062744,-0.09451904,-0.32391357,78.0
263,-0.19797373,0.115169525,1.101593,-0.059472658,-0.04991455,-0.07540283,78.0
264,0.28592014,0.061117172,1.1968689,-0.059472658,-0.04991455,-0.07540283,78.0
265,0.28592014,0.061117172,1.1968689,0.012744141,-0.029736329,0.1996582,78.0
266,0.6108527,0.14391327,1.0744476,0.012744141,-0.029736329,0.1996582,78.0
267,0.6108527,0.14391327,1.0744476,-0.0010620117,-0.02442627,0.45666504,78.0
268,0.77798843,0.29542923,0.8682556,-0.0010620117,-0.02442627,0.45666504,78.0
269,0.77798843,0.29542923,0.8682556,0.013806152,-0.04991455,0.6488892,78.0
270,0.8930087,0.36102486,0.66256714,0.013806152,-0.04991455,0.6488892,78.0
271,0.8930087,0.36102486,0.66256714,0.06265869,-0.11151123,0.7742066,78.0
272,1.0116358,0.23986816,0.43193054,0.06265869,-0.11151123,0.7742066,78.0
273,1.0116358,0.23986816,0.43193054,0.14761963,-0.16567384,0.811377,78.0
274,1.1380682,0.023841858,0.13287354,0.14761963,-0.16567384,0.811377,78.0
275,1.1380682,0.023841858,0.13287354,0.25594482,-0.2262085,0.83049315,78.0
276,1.1823292,-0.10344887,-0.22375488,0.25594482,-0.2262085,0.83049315,78.0
277,1.1823292,-0.10344887,-0.22375488,0.29311523,-0.25594482,0.81668705,78.0
278,1.0955338,-0.18604279,-0.56266785,0.29311523,-0.25594482,0.81668705,78.0
279,1.0955338,-0.18604279,-0.56266785,0.29948732,-0.24213867,0.7805786,78.0
280,0.93630266,-0.3872242,-0.87413025,0.29948732,-0.24213867,0.7805786,78.0
281,0.93630266,-0.3872242,-0.87413025,0.362146,-0.22833252,0.74447024,78.0
282,0.732111,-0.6077881,-1.1478271,0.362146,-0.22833252,0.74447024,78.0
283,0.732111,-0.6077881,-1.1478271,0.45135498,-0.2262085,0.6966797,78.0
284,0.5461011,-0.6312256,-1.3320923,0.45135498,-0.2262085,0.6966797,78.0
285,0.5461011,-0.6312256,-1.3320923,0.44604492,-0.1901001,0.60959476,78.0
286,0.39430237,-0.5390148,-1.3887634,0.44604492,-0.1901001,0.60959476,78.0
287,0.39430237,-0.5390148,-1.3887634,0.3695801,-0.18903808,0.49064943,78.0
288,0.21345234,-0.5234604,-1.294693,0.3695801,-0.18903808,0.49064943,78.0
289,0.21345234,-0.5234604,-1.294693,0.4056885,-0.24320069,0.3069214,78.0
290,0.03659439,-0.54855347,-1.0464935,0.4056885,-0.24320069,0.3069214,78.0
291,0.03659439,-0.54855347,-1.0464935,0.3079834,-0.30267334,0.12319336,78.0
292,-0.12675476,-0.523756,-0.7484436,0.3079834,-0.30267334,0.12319336,78.0
293,-0.12675476,-0.523756,-0.7484436,0.16992188,-0.33240968,-0.0722168,78.0
294,-0.2816286,-0.45850563,-0.5539856,0.16992188,-0.33240968,-0.0722168,78.0
295,-0.2816286,-0.45850563,-0.5539856,0.08920898,-0.33984375,-0.15823975,78.0
296,-0.45905542,-0.39922714,-0.51963806,0.08920898,-0.33984375,-0.15823975,78.0
297,-0.45905542,-0.39922714,-0.51963806,0.1539917,-0.38232422,-0.20496826,78.0
298,-0.67350674,-0.399374,-0.42469788,0.1539917,-0.38232422,-0.20496826,78.0
299,-0.67350674,-0.399374,-0.42469788,0.2442627,-0.45347902,-0.23682861,78.0
300,-0.80225754,-0.40928268,-0.11557007,0.2442627,-0.45347902,-0.23682861,78.0
301,-0.80225754,-0.40928268,-0.11557007,0.11469727,-0.47684327,-0.3355957,78.0
302,-0.74477243,-0.46102142,0.22616577,0.11469727,-0.47684327,-0.3355957,78.0
303,-0.74477243,-0.46102142,0.22616577,-0.06584473,-0.42268068,-0.40144044,78.0
304,-0.6121998,-0.535944,0.299057,-0.06584473,-0.42268068,-0.40144044,78.0
305,-0.6121998,-0.535944,0.299057,-0.06478272,-0.362146,-0.35046387,78.0
306,-0.6249409,-0.4546814,0.09359741,-0.06478272,-0.362146,-0.35046387,78.0
307,-0.6249409,-0.4546814,0.09359741,-0.0361084,-0.3090454,-0.2899292,78.0
308,-0.77794313,-0.20372391,-0.11805725,-0.0361084,-0.3090454,-0.2899292,78.0
309,-0.77794313,-0.20372391,-0.11805725,-0.118945315,-0.23364258,-0.2793091,78.0
310,-0.8775425,-0.05023575,-0.14315796,-0.118945315,-0.23364258,-0.2793091,78.0
311,-0.8775425,-0.05023575,-0.14315796,-0.20921631,-0.14974366,-0.2888672,78.0
312,-0.78266144,-0.060001373,-0.0388031,-0.20921631,-0.14974366,-0.2888672,78.0
313,-0.78266144,-0.060001373,-0.0388031,-0.23151855,-0.0722168,-0.30161133,78.0
314,-0.50322914,-0.045913696,0.0065307617,-0.23151855,-0.0722168,-0.30161133,78.0
315,-0.50322914,-0.045913696,0.0065307617,-0.25063476,0.0053100586,-0.3334717,78.0
316,-0.18717813,0.060926437,-0.03137207,-0.25063476,0.0053100586,-0.3334717,78.0
317,-0.18717813,0.060926437,-0.03137207,-0.3058594,0.06690674,-0.3440918,78.0
318,0.058521748,0.17503548,-0.030395508,-0.3058594,0.06690674,-0.3440918,78.0
319,0.058521748,0.17503548,-0.030395508,-0.33771974,0.10301514,-0.362146,78.0
320,0.23451233,0.19399643,0.07148743,-0.33771974,0.10301514,-0.362146,78.0
321,0.23451233,0.19399643,0.07148743,-0.3334717,0.12956543,-0.37382814,78.0
322,0.3331666,0.22375107,0.20605469,-0.3334717,0.12956543,-0.37382814,78.0
323,0.3331666,0.22375107,0.20605469,-0.37382814,0.14974366,-0.3462158,78.0
324,0.31997585,0.31868553,0.23812866,-0.37382814,0.14974366,-0.3462158,78.0
325,0.31997585,0.31868553,0.23812866,-0.42692873,0.16354981,-0.3175415,78.0
326,0.20419836,0.3788376,0.15180969,-0.42692873,0.16354981,-0.3175415,78.0
327,0.20419836,0.3788376,0.15180969,-0.38338622,0.14974366,-0.26444092,78.0
328,0.0691452,0.38364792,0.10707092,-0.38338622,0.14974366,-0.26444092,78.0
329,0.0691452,0.38364792,0.10707092,-0.38338622,0.14974366,-0.26444092,78.0
330,0.0691452,0.38364792,0.10707092,-0.29948732,0.12213135,-0.21983643,78.0
331,6.775856E-4,0.3449421,0.16012573,-0.29948732,0.12213135,-0.21983643,78.0
332,6.775856E-4,0.3449421,0.16012573,-0.2262085,0.078588866,-0.18266602,78.0
333,0.026299,0.23950386,0.2692566,-0.2262085,0.078588866,-0.18266602,78.0
334,0.026299,0.23950386,0.2692566,-0.16885987,0.039294433,-0.15611573,78.0
335,0.13876343,0.10929108,0.37158203,-0.16885987,0.039294433,-0.15611573,78.0
336,0.13876343,0.10929108,0.37158203,-0.13062744,0.020178223,-0.11151123,78.0
337,0.25343037,0.06298065,0.41371155,-0.13062744,0.020178223,-0.11151123,78.0
338,0.25343037,0.06298065,0.41371155,-0.12000733,0.011682129,-0.0637207,78.0
339,0.27927017,0.11759758,0.37705994,-0.12000733,0.011682129,-0.0637207,78.0
340,0.27927017,0.11759758,0.37705994,-0.10195313,0.011682129,-0.027612304,78.0
341,0.24177551,0.16937065,0.3006897,-0.10195313,0.011682129,-0.027612304,78.0
342,0.24177551,0.16937065,0.3006897,-0.081774905,0.013806152,0.013806152,78.0
343,0.17740488,0.15978813,0.20498657,-0.081774905,0.013806152,0.013806152,78.0
344,0.17740488,0.15978813,0.20498657,-0.021240234,0.015930176,0.06478272,78.0
345,0.10439968,0.17861176,0.061813354,-0.021240234,0.015930176,0.06478272,78.0
346,0.10439968,0.17861176,0.061813354,0.06159668,0.032922365,0.10620117,78.0
347,0.052770138,0.22631073,-0.1426239,0.06159668,0.032922365,0.10620117,78.0
348,0.052770138,0.22631073,-0.1426239,0.15186767,0.06903076,0.13912354,78.0
349,0.04288721,0.24458694,-0.30563354,0.15186767,0.06903076,0.13912354,78.0
350,0.04288721,0.24458694,-0.30563354,0.19222413,0.090270996,0.15080567,78.0
351,0.052058697,0.22052383,-0.35287476,0.19222413,0.090270996,0.15080567,78.0
352,0.052058697,0.22052383,-0.35287476,0.15505372,0.12213135,0.11257324,78.0
353,0.06927109,0.15414047,-0.37464905,0.15505372,0.12213135,0.11257324,78.0
354,0.06927109,0.15414047,-0.37464905,0.12000733,0.15717773,0.08814698,78.0
355,0.06258249,0.077949524,-0.46568298,0.12000733,0.15717773,0.08814698,78.0
356,0.06258249,0.077949524,-0.46568298,0.098767094,0.17947999,0.0722168,78.0
357,0.011027813,0.04014206,-0.5668335,0.098767094,0.17947999,0.0722168,78.0
358,0.011027813,0.04014206,-0.5668335,0.06690674,0.17523193,0.06265869,78.0
359,-0.08174133,-0.035490036,-0.5386963,0.06690674,0.17523193,0.06265869,78.0
360,-0.08174133,-0.035490036,-0.5386963,0.013806152,0.115759276,0.008496094,78.0
361,-0.1329956,-0.26418304,-0.28019714,0.013806152,0.115759276,0.008496094,78.0
362,-0.1329956,-0.26418304,-0.28019714,-0.004248047,0.0063720704,-0.07752686,78.0
363,-0.106066704,-0.38239098,-0.049743652,-0.004248047,0.0063720704,-0.07752686,78.0
364,-0.106066704,-0.38239098,-0.049743652,-0.013806152,-0.045666505,-0.1359375,78.0
365,0.22732925,-0.6821461,0.65034485,-0.013806152,-0.045666505,-0.1359375,78.0
366,0.22732925,-0.6821461,0.65034485,-0.18372802,-0.13806152,-0.21452637,78.0
367,0.33857727,-0.57922554,0.73976135,-0.18372802,-0.13806152,-0.21452637,78.0
368,0.33857727,-0.57922554,0.73976135,-0.24532472,-0.124255374,-0.20921631,78.0
369,0.89263916,-0.54787827,0.97639465,-0.24532472,-0.124255374,-0.20921631,78.0
370,0.89263916,-0.54787827,0.97639465,-0.1901001,-0.0361084,-0.081774905,78.0
371,0.886487,-0.36009216,0.77601624,-0.1901001,-0.0361084,-0.081774905,78.0
372,0.886487,-0.36009216,0.77601624,-0.19541016,0.0,-0.014868164,78.0
373,0.83843756,0.18782997,0.16584778,-0.19541016,0.0,-0.014868164,78.0
374,0.83843756,0.18782997,0.16584778,-0.4056885,0.07540283,0.1539917,78.0
375,0.5743389,0.33612823,-0.016098022,-0.4056885,0.07540283,0.1539917,78.0
376,0.5743389,0.33612823,-0.016098022,-0.42799073,0.06690674,0.16142578,78.0
377,-0.012880325,0.50875854,-0.25308228,-0.42799073,0.06690674,0.16142578,78.0
378,-0.012880325,0.50875854,-0.25308228,-0.29948732,-0.03079834,0.17416993,78.0
379,-0.13787985,0.49536133,-0.22770691,-0.29948732,-0.03079834,0.17416993,78.0
380,-0.13787985,0.49536133,-0.22770691,-0.3058594,-0.06584473,0.17735596,78.0
381,-0.3172989,0.50862885,-0.24382019,-0.3058594,-0.06584473,0.17735596,78.0
382,-0.3172989,0.50862885,-0.24382019,-0.1985962,-0.19328614,0.11469727,78.0
383,-0.26328754,0.3946724,-0.1643219,-0.1985962,-0.19328614,0.11469727,78.0
384,-0.26328754,0.3946724,-0.1643219,-0.12850343,-0.2347046,0.10513916,78.0
385,-0.07842779,0.36343002,0.087387085,-0.12850343,-0.2347046,0.10513916,78.0
386,-0.07842779,0.36343002,0.087387085,-0.1985962,-0.28568116,0.028674318,78.0
387,-0.01879692,0.33112526,0.16844177,-0.1985962,-0.28568116,0.028674318,78.0
388,-0.01879692,0.33112526,0.16844177,-0.26762697,-0.26550293,0.007434082,78.0
389,0.10025787,0.15709877,0.28518677,-0.26762697,-0.26550293,0.007434082,78.0
390,0.10025787,0.15709877,0.28518677,-0.23151855,-0.24320069,-0.046728518,78.0
391,0.13241577,-0.12119484,0.30075073,-0.23151855,-0.24320069,-0.046728518,78.0
392,0.13241577,-0.12119484,0.30075073,-0.24957275,-0.22089843,-0.057348635,78.0
393,0.06027794,-0.208004,0.127182,-0.24957275,-0.22089843,-0.057348635,78.0
394,0.06027794,-0.208004,0.127182,-0.34090576,-0.18054199,-0.0998291,78.0
395,-0.076155186,-0.09650612,-0.22206116,-0.34090576,-0.18054199,-0.0998291,78.0
396,-0.076155186,-0.09650612,-0.22206116,-0.3727661,-0.15186767,-0.12319336,78.0
397,-0.25099993,0.08257294,-0.5061798,-0.3727661,-0.15186767,-0.12319336,78.0
398,-0.25099993,0.08257294,-0.5061798,-0.35577393,-0.14974366,-0.13275146,78.0
399,-0.41781616,0.22449493,-0.50923157,-0.35577393,-0.14974366,-0.13275146,78.0
400,-0.41781616,0.22449493,-0.50923157,-0.41312256,-0.13381349,-0.11257324,78.0
401,-0.5689697,0.16770554,-0.30700684,-0.41312256,-0.13381349,-0.11257324,78.0
402,-0.5689697,0.16770554,-0.30700684,-0.36639404,-0.16461182,-0.1731079,78.0
403,-0.6414795,-0.036525726,-0.0132751465,-0.36639404,-0.16461182,-0.1731079,78.0
404,-0.6414795,-0.036525726,-0.0132751465,-0.24320069,-0.1901001,-0.20496826,78.0
405,-0.5323734,-0.22408295,0.33554077,-0.24320069,-0.1901001,-0.20496826,78.0
406,-0.5323734,-0.22408295,0.33554077,-0.13168946,-0.18691407,-0.21983643,78.0
407,-0.42040586,-0.16770744,0.33544922,-0.13168946,-0.18691407,-0.21983643,78.0
408,-0.42040586,-0.16770744,0.33544922,-0.13487549,-0.16673584,-0.23364258,78.0
409,-0.26369286,-0.09467697,0.33688354,-0.13487549,-0.16673584,-0.23364258,78.0
410,-0.26369286,-0.09467697,0.33688354,-0.19116211,-0.098767094,-0.23258057,78.0
411,-0.11353016,-0.06885719,0.31781006,-0.19116211,-0.098767094,-0.23258057,78.0
412,-0.11353016,-0.06885719,0.31781006,-0.2548828,-0.0180542,-0.2262085,78.0
413,-0.041959286,-0.11391258,0.2566223,-0.2548828,-0.0180542,-0.2262085,78.0
414,-0.041959286,-0.11391258,0.2566223,-0.33240968,0.06265869,-0.21027832,78.0
415,-0.06920004,-0.15461922,0.10017395,-0.33240968,0.06265869,-0.21027832,78.0
416,-0.06920004,-0.15461922,0.10017395,-0.33771974,0.08920898,-0.23151855,78.0
417,-0.13643932,-0.12429428,-0.090164185,-0.33771974,0.08920898,-0.23151855,78.0
418,-0.13643932,-0.12429428,-0.090164185,-0.32391357,0.10938721,-0.19328614,78.0
419,-0.17937851,-0.03670311,-0.16879272,-0.32391357,0.10938721,-0.19328614,78.0
420,-0.17937851,-0.03670311,-0.16879272,-0.29630128,0.09770508,-0.15611573,78.0
421,-0.19484568,0.034395218,-0.09265137,-0.29630128,0.09770508,-0.15611573,78.0
422,-0.19484568,0.034395218,-0.09265137,-0.3164795,0.06903076,-0.12956543,78.0
423,-0.17258835,-0.041856766,0.06404114,-0.3164795,0.06903076,-0.12956543,78.0
424,-0.17258835,-0.041856766,0.06404114,-0.2548828,-0.0021240234,-0.14655761,78.0
425,-0.023141861,-0.23330307,0.20877075,-0.2548828,-0.0021240234,-0.14655761,78.0
426,-0.023141861,-0.23330307,0.20877075,-0.17416993,-0.07752686,-0.13062744,78.0
427,0.22577381,-0.33433533,0.3326416,-0.17416993,-0.07752686,-0.13062744,78.0
428,0.22577381,-0.33433533,0.3326416,-0.118945315,-0.10513916,-0.07752686,78.0
429,0.47609043,-0.27936935,0.47143555,-0.118945315,-0.10513916,-0.07752686,78.0
430,0.47609043,-0.27936935,0.47143555,-0.09664307,-0.083898924,0.011682129,78.0
431,0.6302743,-0.08979225,0.5411682,-0.09664307,-0.083898924,0.011682129,78.0
432,0.6302743,-0.08979225,0.5411682,-0.13168946,-0.035046387,0.11469727,78.0
433,0.58723974,0.10288429,0.38705444,-0.13168946,-0.035046387,0.11469727,78.0
434,0.58723974,0.10288429,0.38705444,-0.16992188,-0.0021240234,0.1901001,78.0
435,0.3751874,0.18411446,0.07054138,-0.16992188,-0.0021240234,0.1901001,78.0
436,0.3751874,0.18411446,0.07054138,-0.09770508,-0.026550293,0.23151855,78.0
437,0.14980793,0.27393913,-0.12937927,-0.09770508,-0.026550293,0.23151855,78.0
438,0.14980793,0.27393913,-0.12937927,-0.07752686,-0.032922365,0.26656494,78.0
439,0.14980793,0.27393913,-0.12937927,-0.07752686,-0.032922365,0.26656494,77.0
440,0.0044412613,0.40547943,-0.13716125,-0.07752686,-0.032922365,0.26656494,77.0
441,0.0044412613,0.40547943,-0.13716125,-0.06159668,-0.03717041,0.2548828,77.0
442,-0.07360792,0.44447708,-0.15003967,-0.06159668,-0.03717041,0.2548828,77.0
443,-0.07360792,0.44447708,-0.15003967,-0.04460449,-0.06690674,0.20072022,77.0
444,-0.042455673,0.30810738,-0.22163391,-0.04460449,-0.06690674,0.20072022,77.0
445,-0.042455673,0.30810738,-0.22163391,0.015930176,-0.06690674,0.15505372,77.0
446,0.082868576,0.06375885,-0.19711304,0.015930176,-0.06690674,0.15505372,77.0
447,0.082868576,0.06375885,-0.19711304,0.1709839,-0.08071289,0.13699952,77.0
448,0.20180511,-0.035686493,-0.00894165,0.1709839,-0.08071289,0.13699952,77.0
449,0.20180511,-0.035686493,-0.00894165,0.15930176,-0.06159668,0.081774905,77.0
450,0.27911997,0.016433716,0.19439697,0.15930176,-0.06159668,0.081774905,77.0
451,0.27911997,0.016433716,0.19439697,0.046728518,-0.020178223,0.03717041,77.0
452,0.284441,0.037927628,0.22767639,0.046728518,-0.020178223,0.03717041,77.0
453,0.284441,0.037927628,0.22767639,-0.009558106,0.008496094,0.0180542,77.0
454,0.2153945,-0.01682663,0.0796051,-0.009558106,0.008496094,0.0180542,77.0
455,0.2153945,-0.01682663,0.0796051,-0.0021240234,0.03186035,0.029736329,77.0
456,0.12919998,-0.027999878,-0.07485962,-0.0021240234,0.03186035,0.029736329,77.0
457,0.12919998,-0.027999878,-0.07485962,0.007434082,0.035046387,0.008496094,77.0
458,0.048098564,0.06057167,-0.12908936,0.007434082,0.035046387,0.008496094,77.0
459,0.048098564,0.06057167,-0.12908936,-0.0541626,0.04885254,-0.014868164,77.0
460,0.021327972,0.10276604,-0.1326294,-0.0541626,0.04885254,-0.014868164,77.0
461,0.021327972,0.10276604,-0.1326294,-0.03186035,0.05522461,-0.026550293,77.0
462,0.029257298,0.02540207,-0.11123657,-0.03186035,0.05522461,-0.026550293,77.0
463,0.029257298,0.02540207,-0.11123657,0.03717041,0.053100586,-0.04248047,77.0
464,0.04619646,-0.038784027,-0.06550598,0.03717041,0.053100586,-0.04248047,77.0
465,0.04619646,-0.038784027,-0.06550598,0.043542482,0.0541626,-0.039294433,77.0
466,0.06848812,-0.036483765,0.0020446777,0.043542482,0.0541626,-0.039294433,77.0
467,0.06848812,-0.036483765,0.0020446777,0.04248047,0.06159668,-0.040356446,77.0
468,0.072087765,0.010559082,0.020462036,0.04248047,0.06159668,-0.040356446,77.0
469,0.072087765,0.010559082,0.020462036,0.009558106,0.07540283,-0.045666505,77.0
470,0.064762115,0.056541443,-0.056655884,0.009558106,0.07540283,-0.045666505,77.0
471,0.064762115,0.056541443,-0.056655884,-0.025488282,0.083898924,-0.043542482,77.0
472,0.053482056,0.0975647,-0.13737488,-0.025488282,0.083898924,-0.043542482,77.0
473,0.053482056,0.0975647,-0.13737488,-0.07327881,0.081774905,-0.0031860352,77.0
474,0.028210163,0.105760574,-0.18406677,-0.07327881,0.081774905,-0.0031860352,77.0
475,0.028210163,0.105760574,-0.18406677,-0.083898924,0.0722168,0.022302246,77.0
476,-0.028787136,0.081373215,-0.23216248,-0.083898924,0.0722168,0.022302246,77.0
477,-0.028787136,0.081373215,-0.23216248,0.0,0.03186035,0.039294433,77.0
478,-0.118769646,0.14495659,-0.22262573,0.0,0.03186035,0.039294433,77.0
479,-0.118769646,0.14495659,-0.22262573,0.013806152,-0.0021240234,0.013806152,77.0
480,-0.15799189,0.23361588,-0.14576721,0.013806152,-0.0021240234,0.013806152,77.0
481,-0.15799189,0.23361588,-0.14576721,-0.050976563,-0.019116212,-0.02442627,77.0
482,-0.13098335,0.17899323,-0.07316589,-0.050976563,-0.019116212,-0.02442627,77.0
483,-0.13098335,0.17899323,-0.07316589,0.029736329,-0.04885254,-0.070092775,77.0
484,-0.064564705,0.08516312,-0.09133911,0.029736329,-0.04885254,-0.070092775,77.0
485,-0.064564705,0.08516312,-0.09133911,-0.03186035,-0.08071289,-0.10195313,77.0
486,-0.013211727,0.052944183,-0.020889282,-0.03186035,-0.08071289,-0.10195313,77.0
487,-0.013211727,0.052944183,-0.020889282,0.04885254,-0.09770508,-0.17947999,77.0
488,-0.013914108,0.09424782,0.12335205,0.04885254,-0.09770508,-0.17947999,77.0
489,-0.013914108,0.09424782,0.12335205,-0.13699952,-0.011682129,-0.19434814,77.0
490,-0.033579826,0.0073451996,0.13909912,-0.13699952,-0.011682129,-0.19434814,77.0
491,-0.033579826,0.0073451996,0.13909912,-0.05522461,-0.021240234,-0.22727051,77.0
492,-0.047225475,-0.13263702,0.17112732,-0.05522461,-0.021240234,-0.22727051,77.0
493,-0.047225475,-0.13263702,0.17112732,-0.06478272,-0.039294433,-0.23258057,77.0
494,-0.05311203,-0.17799759,0.20353699,-0.06478272,-0.039294433,-0.23258057,77.0
495,-0.05311203,-0.17799759,0.20353699,-0.10407715,-0.0180542,-0.2623169,77.0
496,-0.033065796,-0.22468567,0.15660095,-0.10407715,-0.0180542,-0.2623169,77.0
497,-0.033065796,-0.22468567,0.15660095,-0.016992187,-0.029736329,-0.22833252,77.0
498,-0.008996487,-0.21594238,0.082733154,-0.016992187,-0.029736329,-0.22833252,77.0
499,-0.008996487,-0.21594238,0.082733154,-0.007434082,-0.012744141,-0.20284425,77.0
500,-0.005683422,-0.15609169,0.04689026,-0.007434082,-0.012744141,-0.20284425,77.0
501,-0.005683422,-0.15609169,0.04689026,-0.0063720704,-0.009558106,-0.17947999,77.0
502,-0.055547714,-0.049423218,0.10862732,-0.0063720704,-0.009558106,-0.17947999,77.0
503,-0.055547714,-0.049423218,0.10862732,-0.043542482,-0.008496094,-0.1274414,77.0
504,-0.1472826,0.07085037,0.19642639,-0.043542482,-0.008496094,-0.1274414,77.0
505,-0.1472826,0.07085037,0.19642639,-0.07540283,0.004248047,-0.1274414,77.0
506,-0.24343681,0.1260891,0.12286377,-0.07540283,0.004248047,-0.1274414,77.0
507,-0.24343681,0.1260891,0.12286377,-0.043542482,-0.016992187,-0.098767094,77.0
508,-0.28240824,0.13943481,-0.054244995,-0.043542482,-0.016992187,-0.098767094,77.0
509,-0.28240824,0.13943481,-0.054244995,-0.025488282,-0.038232423,-0.087084964,77.0
510,-0.27927113,0.11621094,-0.13035583,-0.025488282,-0.038232423,-0.087084964,77.0
511,-0.27927113,0.11621094,-0.13035583,-0.03186035,-0.060534667,-0.0541626,77.0
512,-0.23645401,0.05983925,-0.117004395,-0.03186035,-0.060534667,-0.0541626,77.0
513,-0.23645401,0.05983925,-0.117004395,0.039294433,-0.10938721,-0.004248047,77.0
514,-0.17615032,0.05908966,-0.0549469,0.039294433,-0.10938721,-0.004248047,77.0
515,-0.17615032,0.05908966,-0.0549469,0.11469727,-0.14337158,0.050976563,77.0
516,-0.13341331,0.1452465,0.029418945,0.11469727,-0.14337158,0.050976563,77.0
517,-0.13341331,0.1452465,0.029418945,-0.0063720704,-0.11363526,0.021240234,77.0
518,-0.0792284,0.15034103,0.05307007,-0.0063720704,-0.11363526,0.021240234,77.0
519,-0.0792284,0.15034103,0.05307007,0.029736329,-0.1178833,0.06159668,77.0
520,-0.038211823,0.12729263,0.106552124,0.029736329,-0.1178833,0.06159668,77.0
521,-0.038211823,0.12729263,0.106552124,-0.010620117,-0.10301514,0.07540283,77.0
522,-0.020229816,0.13974953,0.17202759,-0.010620117,-0.10301514,0.07540283,77.0
523,-0.020229816,0.13974953,0.17202759,-0.06796875,-0.08496094,0.08071289,77.0
524,-4.491806E-4,0.08739662,0.035369873,-0.06796875,-0.08496094,0.08071289,77.0
525,-4.491806E-4,0.08739662,0.035369873,-0.029736329,-0.095581055,0.05628662,77.0
526,0.09739447,-0.04637909,-0.1940155,-0.029736329,-0.095581055,0.05628662,77.0
527,0.09739447,-0.04637909,-0.1940155,0.13168946,-0.081774905,0.0361084,77.0
528,0.09739447,-0.04637909,-0.1940155,0.13168946,-0.081774905,0.0361084,78.0
529,0.24192905,-0.10127449,-0.14302063,0.13168946,-0.081774905,0.0361084,78.0
530,0.24192905,-0.10127449,-0.14302063,0.033984374,-0.053100586,0.13806152,78.0
531,0.2863779,-0.03359413,0.09786987,0.033984374,-0.053100586,0.13806152,78.0
532,0.2863779,-0.03359413,0.09786987,0.090270996,0.029736329,0.02442627,78.0
533,0.19740057,0.036075592,0.17626953,0.090270996,0.029736329,0.02442627,78.0
534,0.19740057,0.036075592,0.17626953,0.035046387,0.0541626,0.047790527,78.0
535,0.06873608,0.07356262,0.01133728,0.035046387,0.0541626,0.047790527,78.0
536,0.06873608,0.07356262,0.01133728,-0.04991455,0.07115479,-0.014868164,78.0
537,0.0073447227,-0.027856827,-0.18763733,-0.04991455,0.07115479,-0.014868164,78.0
538,0.0073447227,-0.027856827,-0.18763733,0.0031860352,0.05522461,-0.023364259,78.0
539,0.022318363,-0.12665558,-0.19107056,0.0031860352,0.05522461,-0.023364259,78.0
540,0.022318363,-0.12665558,-0.19107056,0.039294433,0.060534667,-0.043542482,78.0
541,0.041890144,-0.08430672,-0.07298279,0.039294433,0.060534667,-0.043542482,78.0
542,0.041890144,-0.08430672,-0.07298279,0.0063720704,0.07540283,-0.05628662,78.0
543,0.03323126,-0.031448364,-0.041046143,0.0063720704,0.07540283,-0.05628662,78.0
544,0.03323126,-0.031448364,-0.041046143,-0.010620117,0.06903076,-0.06690674,78.0
545,0.033482075,-0.059547424,-0.0894928,-0.010620117,0.06903076,-0.06690674,78.0
546,0.033482075,-0.059547424,-0.0894928,0.015930176,0.06796875,-0.06796875,78.0
547,0.033426285,-0.06709671,-0.086517334,0.015930176,0.06796875,-0.06796875,78.0
548,0.033426285,-0.06709671,-0.086517334,-0.009558106,0.060534667,-0.06265869,78.0
549,0.025507927,-0.028774261,-0.05255127,-0.009558106,0.060534667,-0.06265869,78.0
550,0.025507927,-0.028774261,-0.05255127,-0.04991455,0.057348635,-0.06478272,78.0
551,0.0032920837,-0.050388336,-0.059783936,-0.04991455,0.057348635,-0.06478272,78.0
552,0.0032920837,-0.050388336,-0.059783936,-0.04885254,0.040356446,-0.09239502,78.0
553,-0.01586008,-0.102249146,-0.04219055,-0.04885254,0.040356446,-0.09239502,78.0
554,-0.01586008,-0.102249146,-0.04219055,-0.0010620117,0.019116212,-0.07327881,78.0
555,-0.024809837,-0.09056473,0.011077881,-0.0010620117,0.019116212,-0.07327881,78.0
556,-0.024809837,-0.09056473,0.011077881,0.052038576,-0.0021240234,-0.052038576,78.0
557,-0.01909113,-0.03520775,0.057876587,0.052038576,-0.0021240234,-0.052038576,78.0
558,-0.01909113,-0.03520775,0.057876587,0.028674318,0.0031860352,-0.039294433,78.0
559,0.0014266968,-0.0025672913,0.048614502,0.028674318,0.0031860352,-0.039294433,78.0
560,0.0014266968,-0.0025672913,0.048614502,0.0010620117,-0.0010620117,-0.03717041,78.0
561,0.032855034,0.021446228,-0.057113647,0.0010620117,-0.0010620117,-0.03717041,78.0
562,0.032855034,0.021446228,-0.057113647,-0.0010620117,-0.0180542,-0.02442627,78.0
563,0.056764603,-0.0058288574,-0.16152954,-0.0010620117,-0.0180542,-0.02442627,78.0
564,0.056764603,-0.0058288574,-0.16152954,-0.004248047,-0.039294433,-0.016992187,78.0
565,0.073646545,-0.0735836,-0.15281677,-0.004248047,-0.039294433,-0.016992187,78.0
566,0.073646545,-0.0735836,-0.15281677,0.029736329,-0.058410645,-0.008496094,78.0
567,0.04006958,-0.067913055,-0.06677246,0.029736329,-0.058410645,-0.008496094,78.0
568,0.04006958,-0.067913055,-0.06677246,0.033984374,-0.0637207,-0.009558106,78.0
569,-0.04171133,-0.0017166138,0.00592041,0.033984374,-0.0637207,-0.009558106,78.0
570,-0.04171133,-0.0017166138,0.00592041,0.028674318,-0.07646485,-0.004248047,78.0
571,-0.10943127,0.027421951,0.016937256,0.028674318,-0.07646485,-0.004248047,78.0
572,-0.10943127,0.027421951,0.016937256,0.04248047,-0.08814698,-0.02442627,78.0
573,-0.1396327,0.014661789,-0.014389038,0.04248047,-0.08814698,-0.02442627,78.0
574,-0.1396327,0.014661789,-0.014389038,0.06265869,-0.090270996,-0.047790527,78.0
575,-0.1459589,-0.007581711,-0.043945312,0.06265869,-0.090270996,-0.047790527,78.0
576,-0.1459589,-0.007581711,-0.043945312,0.06478272,-0.08920898,-0.06159668,78.0
577,-0.14182806,-0.031993866,-0.074035645,0.06478272,-0.08920898,-0.06159668,78.0
578,-0.14182806,-0.031993866,-0.074035645,0.10620117,-0.08814698,-0.09239502,78.0
579,-0.1293559,-0.048410416,-0.036895752,0.10620117,-0.08814698,-0.09239502,78.0
580,-0.1293559,-0.048410416,-0.036895752,0.14124756,-0.08071289,-0.115759276,78.0
581,-0.10839176,-0.02941513,0.11734009,0.14124756,-0.08071289,-0.115759276,78.0
582,-0.10839176,-0.02941513,0.11734009,0.115759276,-0.052038576,-0.10301514,78.0
583,-0.09025383,-0.016830444,0.22459412,0.115759276,-0.052038576,-0.10301514,78.0
584,-0.09025383,-0.016830444,0.22459412,0.15505372,-0.020178223,-0.10089111,78.0
585,-0.09293032,0.0049915314,0.17884827,0.15505372,-0.020178223,-0.10089111,78.0
586,-0.09293032,0.0049915314,0.17884827,0.2081543,-0.009558106,-0.0998291,78.0
587,-0.09410763,0.08256912,0.09005737,0.2081543,-0.009558106,-0.0998291,78.0
588,-0.09410763,0.08256912,0.09005737,0.11469727,0.0053100586,-0.09664307,78.0
589,-0.06354332,0.10664368,0.047164917,0.11469727,0.0053100586,-0.09664307,78.0
590,-0.06354332,0.10664368,0.047164917,-0.015930176,0.02442627,-0.06903076,78.0
591,-0.02051258,-0.0073127747,0.011276245,-0.015930176,0.02442627,-0.06903076,78.0
592,-0.02051258,-0.0073127747,0.011276245,0.06690674,0.028674318,-0.053100586,78.0
593,-0.0152134895,-0.043949127,-1.9836426E-4,0.06690674,0.028674318,-0.053100586,78.0
594,-0.0152134895,-0.043949127,-1.9836426E-4,0.040356446,0.04248047,-0.045666505,78.0
595,-0.03142166,0.03883934,-0.020523071,0.040356446,0.04248047,-0.045666505,78.0
596,-0.03142166,0.03883934,-0.020523071,0.015930176,0.060534667,-0.043542482,78.0
597,-0.018191338,0.055534363,-0.06562805,0.015930176,0.060534667,-0.043542482,78.0
598,-0.018191338,0.055534363,-0.06562805,0.053100586,0.06478272,-0.026550293,78.0
599,-0.024745941,0.059783936,-0.09741211,0.053100586,0.06478272,-0.026550293,78.0
600,-0.024745941,0.059783936,-0.09741211,-0.027612304,0.06690674,-0.04460449,78.0
601,-0.03062439,0.053930283,-0.10787964,-0.027612304,0.06690674,-0.04460449,78.0
602,-0.03062439,0.053930283,-0.10787964,0.07752686,0.0637207,-0.06478272,78.0
603,-0.0056638718,0.06506729,-0.095947266,0.07752686,0.0637207,-0.06478272,78.0
604,-0.0056638718,0.06506729,-0.095947266,0.043542482,0.07327881,-0.06796875,78.0
605,0.024924278,0.08363342,-0.07569885,0.043542482,0.07327881,-0.06796875,78.0
606,0.024924278,0.08363342,-0.07569885,-0.039294433,0.08602295,-0.057348635,78.0
607,0.031719208,-0.004796982,-0.07710266,-0.039294433,0.08602295,-0.057348635,78.0
608,0.031719208,-0.004796982,-0.07710266,0.039294433,0.0722168,-0.070092775,78.0
609,0.02920866,-0.05307007,-0.07385254,0.039294433,0.0722168,-0.070092775,78.0
610,0.02920866,-0.05307007,-0.07385254,0.060534667,0.07540283,-0.0722168,78.0
611,0.03042221,-0.014612198,-0.025238037,0.060534667,0.07540283,-0.0722168,78.0
612,0.03042221,-0.014612198,-0.025238037,0.012744141,0.083898924,-0.04141846,78.0
613,0.021017075,-0.012874603,0.08023071,0.012744141,0.083898924,-0.04141846,78.0
614,0.021017075,-0.012874603,0.08023071,0.0010620117,0.098767094,-0.058410645,78.0
615,8.587837E-4,-0.023824692,0.10708618,0.0010620117,0.098767094,-0.058410645,78.0
616,8.587837E-4,-0.023824692,0.10708618,0.046728518,0.107263185,-0.039294433,78.0
617,-0.013143539,0.024993896,0.02017212,0.046728518,0.107263185,-0.039294433,78.0
618,-0.013143539,0.024993896,0.02017212,0.09133301,0.0998291,-0.038232423,78.0
619,-0.005241394,0.10848427,-0.045944214,0.09133301,0.0998291,-0.038232423,78.0
620,-0.005241394,0.10848427,-0.045944214,-0.03079834,0.11257324,-0.033984374,78.0
621,-0.010735989,0.08454132,-0.044204712,-0.03079834,0.11257324,-0.033984374,78.0
622,-0.010735989,0.08454132,-0.044204712,0.0361084,0.09664307,-0.058410645,78.0
623,0.0028123856,0.05581665,0.0033569336,0.0361084,0.09664307,-0.058410645,78.0
624,0.0028123856,0.05581665,0.0033569336,-0.040356446,0.1178833,-0.083898924,78.0
625,0.015189171,-0.0049800873,0.07659912,-0.040356446,0.1178833,-0.083898924,78.0
626,0.015189171,-0.0049800873,0.07659912,-0.009558106,0.10089111,-0.025488282,78.0
627,-0.016925812,-0.07650757,0.1390686,-0.009558106,0.10089111,-0.025488282,78.0
628,-0.016925812,-0.07650757,0.1390686,0.06584473,0.115759276,-0.039294433,78.0
629,-0.0997591,0.022180557,0.21810913,0.06584473,0.115759276,-0.039294433,78.0
630,-0.0997591,0.022180557,0.21810913,0.060534667,0.10938721,-0.057348635,78.0
631,-0.0997591,0.022180557,0.21810913,0.060534667,0.10938721,-0.057348635,75.0
632,-0.14673805,0.2447815,0.34114075,0.060534667,0.10938721,-0.057348635,75.0
633,-0.14673805,0.2447815,0.34114075,0.060534667,0.14974366,-0.05628662,75.0
634,-0.13266134,0.3764515,0.4367218,0.060534667,0.14974366,-0.05628662,75.0
635,-0.13266134,0.3764515,0.4367218,0.05522461,0.2081543,-0.059472658,75.0
636,-0.10422516,0.263649,0.41700745,0.05522461,0.2081543,-0.059472658,75.0
637,-0.10422516,0.263649,0.41700745,0.10089111,0.2538208,-0.023364259,75.0
638,-0.10255718,0.024772644,0.26564026,0.10089111,0.2538208,-0.023364259,75.0
639,-0.10255718,0.024772644,0.26564026,0.22089843,0.26868898,0.010620117,75.0
640,-0.124623775,-0.13486862,0.09303284,0.22089843,0.26868898,0.010620117,75.0
641,-0.124623775,-0.13486862,0.09303284,0.32072756,0.26656494,0.04460449,75.0
642,-0.118900776,-0.1599102,3.3569336E-4,0.32072756,0.26656494,0.04460449,75.0
643,-0.118900776,-0.1599102,3.3569336E-4,0.35895997,0.27506104,0.08814698,75.0
644,-0.0697546,-0.12039757,-0.035980225,0.35895997,0.27506104,0.08814698,75.0
645,-0.0697546,-0.12039757,-0.035980225,0.4428589,0.3058594,0.11044922,75.0
646,-0.014336586,-0.077545166,-0.103897095,0.4428589,0.3058594,0.11044922,75.0
647,-0.014336586,-0.077545166,-0.103897095,0.43117675,0.3355957,0.11682129,75.0
648,0.00712204,-0.09713173,-0.23783875,0.43117675,0.3355957,0.11682129,75.0
649,0.00712204,-0.09713173,-0.23783875,0.41099855,0.34727785,0.1444336,75.0
650,-0.024661064,-0.19967651,-0.35302734,0.41099855,0.34727785,0.1444336,75.0
651,-0.024661064,-0.19967651,-0.35302734,0.41843262,0.3345337,0.15717773,75.0
652,-0.05739975,-0.27246094,-0.3700409,0.41843262,0.3345337,0.15717773,75.0
653,-0.05739975,-0.27246094,-0.3700409,0.40144044,0.33984375,0.16567384,75.0
654,-0.06980896,-0.2857666,-0.31356812,0.40144044,0.33984375,0.16567384,75.0
655,-0.06980896,-0.2857666,-0.31356812,0.40037844,0.3462158,0.18903808,75.0
656,-0.07215595,-0.25922966,-0.2796631,0.40037844,0.3462158,0.18903808,75.0
657,-0.07215595,-0.25922966,-0.2796631,0.35895997,0.34940186,0.22939454,75.0
658,-0.06959009,-0.24763107,-0.29833984,0.35895997,0.34940186,0.22939454,75.0
659,-0.06959009,-0.24763107,-0.29833984,0.37489015,0.33240968,0.25594482,75.0
660,-0.07450771,-0.22420311,-0.30488586,0.37489015,0.33240968,0.25594482,75.0
661,-0.07450771,-0.22420311,-0.30488586,0.35683593,0.31329346,0.30161133,75.0
662,-0.07984543,-0.16143036,-0.30281067,0.35683593,0.31329346,0.30161133,75.0
663,-0.07984543,-0.16143036,-0.30281067,0.36320803,0.28355715,0.33028564,75.0
664,-0.041793823,-0.13761711,-0.2957306,0.36320803,0.28355715,0.33028564,75.0
665,-0.041793823,-0.13761711,-0.2957306,0.33240968,0.26125488,0.3791382,75.0
666,0.018127441,-0.16924858,-0.25746155,0.33240968,0.26125488,0.3791382,75.0
667,0.018127441,-0.16924858,-0.25746155,0.3717041,0.22833252,0.4163086,75.0
668,0.09367657,-0.1652832,-0.1758728,0.3717041,0.22833252,0.4163086,75.0
669,0.09367657,-0.1652832,-0.1758728,0.38338622,0.20284425,0.43011475,75.0
670,0.18778324,-0.1044178,-0.08428955,0.38338622,0.20284425,0.43011475,75.0
671,0.18778324,-0.1044178,-0.08428955,0.33240968,0.19434814,0.44923097,75.0
672,0.27631283,-0.098781586,-0.030151367,0.33240968,0.19434814,0.44923097,75.0
673,0.27631283,-0.098781586,-0.030151367,0.3525879,0.17629395,0.452417,75.0
674,0.3648615,-0.1193943,-0.01789856,0.3525879,0.17629395,0.452417,75.0
675,0.3648615,-0.1193943,-0.01789856,0.34727785,0.17416993,0.45666504,75.0
676,0.4363227,-0.08919144,-0.019561768,0.34727785,0.17416993,0.45666504,75.0
677,0.4363227,-0.08919144,-0.019561768,0.30479738,0.18372802,0.45666504,75.0
678,0.4854226,-0.056863785,-0.05027771,0.30479738,0.18372802,0.45666504,75.0
679,0.4854226,-0.056863785,-0.05027771,0.31010744,0.18372802,0.45135498,75.0
680,0.5069294,-0.040107727,-0.07733154,0.31010744,0.18372802,0.45135498,75.0
681,0.5069294,-0.040107727,-0.07733154,0.28461915,0.18160401,0.42055663,75.0
682,0.50267506,-0.05050659,-0.08024597,0.28461915,0.18160401,0.42055663,75.0
683,0.50267506,-0.05050659,-0.08024597,0.23789063,0.17735596,0.40462646,75.0
684,0.47363663,-0.08259201,-0.06602478,0.23789063,0.17735596,0.40462646,75.0
685,0.47363663,-0.08259201,-0.06602478,0.2262085,0.16673584,0.38551027,75.0
686,0.40035725,-0.06527901,-0.04573059,0.2262085,0.16673584,0.38551027,75.0
687,0.40035725,-0.06527901,-0.04573059,0.18479005,0.14549561,0.36745605,75.0
688,0.283628,-0.0061798096,-0.0390625,0.18479005,0.14549561,0.36745605,75.0
689,0.283628,-0.0061798096,-0.0390625,0.14018555,0.118945315,0.35683593,75.0
690,0.14390707,-9.0408325E-4,-0.027328491,0.14018555,0.118945315,0.35683593,75.0
691,0.14390707,-9.0408325E-4,-0.027328491,0.14761963,0.08920898,0.36427003,75.0
692,-0.008617401,-0.04676819,0.010238647,0.14761963,0.08920898,0.36427003,75.0
693,-0.008617401,-0.04676819,0.010238647,0.16779785,0.06159668,0.3982544,75.0
694,-0.1516695,-0.07520676,0.025375366,0.16779785,0.06159668,0.3982544,75.0
695,-0.1516695,-0.07520676,0.025375366,0.21027832,0.040356446,0.42268068,75.0
696,-0.25097466,-0.08023453,0.008895874,0.21027832,0.040356446,0.42268068,75.0
697,-0.25097466,-0.08023453,0.008895874,0.22408448,0.029736329,0.45772704,75.0
698,-0.31988382,-0.13741684,-0.0032196045,0.22408448,0.029736329,0.45772704,75.0
699,-0.31988382,-0.13741684,-0.0032196045,0.28461915,0.016992187,0.4704712,75.0
700,-0.33056498,-0.23194122,0.048049927,0.28461915,0.016992187,0.4704712,75.0
701,-0.33056498,-0.23194122,0.048049927,0.3440918,0.013806152,0.48321533,75.0
702,-0.26199865,-0.31830597,0.14834595,0.3440918,0.013806152,0.48321533,75.0
703,-0.26199865,-0.31830597,0.14834595,0.33984375,0.04141846,0.5235718,75.0
704,-0.17642021,-0.3998108,0.16696167,0.33984375,0.04141846,0.5235718,75.0
705,-0.17642021,-0.3998108,0.16696167,0.4078125,0.06478272,0.542688,75.0
706,-0.093419075,-0.42548943,0.08656311,0.4078125,0.06478272,0.542688,75.0
707,-0.093419075,-0.42548943,0.08656311,0.42374268,0.095581055,0.5522461,75.0
708,0.0073447227,-0.41789246,0.003036499,0.42374268,0.095581055,0.5522461,75.0
709,0.0073447227,-0.41789246,0.003036499,0.41099855,0.1274414,0.54906005,75.0
710,0.09497452,-0.43478966,-0.042800903,0.41099855,0.1274414,0.54906005,75.0
711,0.09497452,-0.43478966,-0.042800903,0.4439209,0.15930176,0.5522461,75.0
712,0.145401,-0.38990974,-0.08088684,0.4439209,0.15930176,0.5522461,75.0
713,0.145401,-0.38990974,-0.08088684,0.45029297,0.19328614,0.542688,75.0
714,0.18531513,-0.28441238,-0.10797119,0.45029297,0.19328614,0.542688,75.0
715,0.18531513,-0.28441238,-0.10797119,0.3440918,0.23895264,0.5097656,75.0
716,0.23512936,-0.28237534,-0.1239624,0.3440918,0.23895264,0.5097656,75.0
717,0.23512936,-0.28237534,-0.1239624,0.32816163,0.270813,0.452417,75.0
718,0.3162775,-0.36145973,-0.15013123,0.32816163,0.270813,0.452417,75.0
719,0.3162775,-0.36145973,-0.15013123,0.29948732,0.2793091,0.42799073,75.0
720,0.3917675,-0.33961868,-0.1794281,0.29948732,0.2793091,0.42799073,75.0
721,0.3917675,-0.33961868,-0.1794281,0.26550293,0.29099122,0.36745605,75.0
722,0.44036674,-0.16174698,-0.17216492,0.26550293,0.29099122,0.36745605,75.0
723,0.44036674,-0.16174698,-0.17216492,0.19222413,0.31329346,0.3154175,75.0
724,0.45251274,0.055648804,-0.16078186,0.19222413,0.31329346,0.3154175,75.0
725,0.45251274,0.055648804,-0.16078186,0.09770508,0.32709962,0.24638672,75.0
726,0.4476061,0.14022255,-0.1835022,0.09770508,0.32709962,0.24638672,75.0
727,0.4476061,0.14022255,-0.1835022,0.04141846,0.32285157,0.17629395,75.0
728,0.47049952,0.097091675,-0.18972778,0.04141846,0.32285157,0.17629395,75.0
729,0.47049952,0.097091675,-0.18972778,0.019116212,0.3090454,0.1178833,75.0
730,0.52648497,0.060876846,-0.15312195,0.019116212,0.3090454,0.1178833,75.0
731,0.52648497,0.060876846,-0.15312195,-0.0063720704,0.28568116,0.083898924,75.0
732,0.54073143,0.121234894,-0.018875122,-0.0063720704,0.28568116,0.083898924,75.0
733,0.54073143,0.121234894,-0.018875122,-0.09451904,0.270813,0.033984374,75.0
734,0.5154829,0.20671844,0.21652222,-0.09451904,0.270813,0.033984374,75.0
735,0.5154829,0.20671844,0.21652222,-0.18691407,0.24744873,-0.047790527,75.0
736,0.515975,0.17986298,0.38511658,-0.18691407,0.24744873,-0.047790527,75.0
737,0.515975,0.17986298,0.38511658,-0.27612305,0.24320069,-0.06584473,75.0
738,0.4830799,0.053718567,0.3231964,-0.27612305,0.24320069,-0.06584473,75.0
739,0.4830799,0.053718567,0.3231964,-0.24320069,0.21452637,-0.052038576,75.0
740,0.3729267,0.05606079,0.1663971,-0.24320069,0.21452637,-0.052038576,75.0
741,0.3729267,0.05606079,0.1663971,-0.20921631,0.18797608,-0.022302246,75.0
742,0.21931267,0.23791504,0.09080505,-0.20921631,0.18797608,-0.022302246,75.0
743,0.21931267,0.23791504,0.09080505,-0.24001466,0.17947999,0.004248047,75.0
744,0.040745735,0.39624023,0.08836365,-0.24001466,0.17947999,0.004248047,75.0
745,0.040745735,0.39624023,0.08836365,-0.2899292,0.15823975,0.0031860352,75.0
746,0.040745735,0.39624023,0.08836365,-0.2899292,0.15823975,0.0031860352,76.0
747,-0.10319424,0.34942627,0.043563843,-0.2899292,0.15823975,0.0031860352,76.0
748,-0.10319424,0.34942627,0.043563843,-0.3154175,0.1263794,-0.032922365,76.0
749,-0.15528488,0.18243408,-0.07194519,-0.3154175,0.1263794,-0.032922365,76.0
750,-0.15528488,0.18243408,-0.07194519,-0.29630128,0.08602295,-0.04991455,76.0
751,-0.14960575,0.06746864,-0.19108582,-0.29630128,0.08602295,-0.04991455,76.0
752,-0.14960575,0.06746864,-0.19108582,-0.29205322,0.04460449,-0.05628662,76.0
753,-0.12814426,0.038873672,-0.24954224,-0.29205322,0.04460449,-0.05628662,76.0
754,-0.12814426,0.038873672,-0.24954224,-0.23682861,-0.014868164,-0.040356446,76.0
755,-0.117920876,0.04900551,-0.15785217,-0.23682861,-0.014868164,-0.040356446,76.0
756,-0.117920876,0.04900551,-0.15785217,-0.20496826,-0.07115479,-0.019116212,76.0
757,-0.09638786,-0.01348114,0.054489136,-0.20496826,-0.07115479,-0.019116212,76.0
758,-0.09638786,-0.01348114,0.054489136,-0.22408448,-0.12000733,-0.0031860352,76.0
759,-0.049131393,-0.25593948,0.18695068,-0.22408448,-0.12000733,-0.0031860352,76.0
760,-0.049131393,-0.25593948,0.18695068,-0.1274414,-0.1709839,0.050976563,76.0
761,-0.00466156,-0.4535675,0.029647827,-0.1274414,-0.1709839,0.050976563,76.0
762,-0.00466156,-0.4535675,0.029647827,-0.015930176,-0.21558838,0.18372802,76.0
763,-0.0072078705,-0.25772667,-0.1895752,-0.015930176,-0.21558838,0.18372802,76.0
764,-0.0072078705,-0.25772667,-0.1895752,0.08602295,-0.28461915,0.1709839,76.0
765,-0.014848232,0.22926712,-0.19578552,0.08602295,-0.28461915,0.1709839,76.0
766,-0.014848232,0.22926712,-0.19578552,0.0010620117,-0.26337892,0.121069334,76.0
767,0.0049915314,0.4569626,-0.13563538,0.0010620117,-0.26337892,0.121069334,76.0
768,0.0049915314,0.4569626,-0.13563538,-0.16673584,-0.22514649,0.21134034,76.0
769,-0.03462982,0.3002491,-0.11224365,-0.16673584,-0.22514649,0.21134034,76.0
770,-0.03462982,0.3002491,-0.11224365,-0.14124756,-0.22939454,0.115759276,76.0
771,-0.11983013,0.13597488,-0.13653564,-0.14124756,-0.22939454,0.115759276,76.0
772,-0.11983013,0.13597488,-0.13653564,-0.033984374,-0.2538208,0.090270996,76.0
773,-0.18468237,0.2570839,-0.18421936,-0.033984374,-0.2538208,0.090270996,76.0
774,-0.18468237,0.2570839,-0.18421936,0.013806152,-0.33984375,-0.07965088,76.0
775,-0.113248825,0.4165554,-0.042114258,0.013806152,-0.33984375,-0.07965088,76.0
776,-0.113248825,0.4165554,-0.042114258,-0.22408448,-0.43861085,-0.2177124,76.0
777,0.18811178,0.103910446,0.60180664,-0.22408448,-0.43861085,-0.2177124,76.0
778,0.18811178,0.103910446,0.60180664,-0.19541016,-0.4598511,-0.34727785,76.0
779,0.5946417,-0.47496414,1.4572601,-0.19541016,-0.4598511,-0.34727785,76.0
780,0.5946417,-0.47496414,1.4572601,0.15717773,-0.4258667,-0.3355957,76.0
781,0.75342274,-0.55223656,1.5749359,0.15717773,-0.4258667,-0.3355957,76.0
782,0.75342274,-0.55223656,1.5749359,0.22408448,-0.3345337,-0.28568116,76.0
783,0.45749855,-0.054424286,0.59846497,0.22408448,-0.3345337,-0.28568116,76.0
784,0.45749855,-0.054424286,0.59846497,0.090270996,-0.26337892,-0.28780517,76.0
785,-0.06039238,0.38204575,-0.591156,0.090270996,-0.26337892,-0.28780517,76.0
786,-0.06039238,0.38204575,-0.591156,-0.06159668,-0.26125488,-0.3175415,76.0
787,-0.5642195,0.3323574,-1.1103821,-0.06159668,-0.26125488,-0.3175415,76.0
788,-0.5642195,0.3323574,-1.1103821,-0.10407715,-0.32391357,-0.3525879,76.0
789,-0.8827963,-0.0077209473,-0.9929352,-0.10407715,-0.32391357,-0.3525879,76.0
790,-0.8827963,-0.0077209473,-0.9929352,-0.025488282,-0.33878174,-0.43861085,76.0
791,-1.0174427,-0.24048996,-0.7629242,-0.025488282,-0.33878174,-0.43861085,76.0
792,-1.0174427,-0.24048996,-0.7629242,0.059472658,-0.3706421,-0.4725952,76.0
793,-1.0749769,-0.24367332,-0.7216339,0.059472658,-0.3706421,-0.4725952,76.0
794,-1.0749769,-0.24367332,-0.7216339,0.047790527,-0.38551027,-0.48427734,76.0
795,-0.95950556,-0.26823044,-0.69511414,0.047790527,-0.38551027,-0.48427734,76.0
796,-0.95950556,-0.26823044,-0.69511414,0.014868164,-0.38763428,-0.5320679,76.0
797,-0.66847134,-0.42948914,-0.54763794,0.014868164,-0.38763428,-0.5320679,76.0
798,-0.66847134,-0.42948914,-0.54763794,-0.14761963,-0.36745605,-0.5734863,76.0
799,-0.36248684,-0.663147,-0.29545593,-0.14761963,-0.36745605,-0.5734863,76.0
800,-0.36248684,-0.663147,-0.29545593,-0.33878174,-0.35046387,-0.7104859,76.0
801,-0.04881525,-0.82548714,0.14553833,-0.33878174,-0.35046387,-0.7104859,76.0
802,-0.04881525,-0.82548714,0.14553833,-0.47578126,-0.32497558,-0.79969484,76.0
803,0.23815727,-0.68525505,0.6354675,-0.47578126,-0.32497558,-0.79969484,76.0
804,0.23815727,-0.68525505,0.6354675,-0.6903076,-0.26337892,-0.8708496,76.0
805,0.3194685,-0.23701096,0.87072754,-0.6903076,-0.26337892,-0.8708496,76.0
806,0.3194685,-0.23701096,0.87072754,-0.91014403,-0.18054199,-0.92926025,76.0
807,0.23767948,0.25222397,0.8552704,-0.91014403,-0.18054199,-0.92926025,76.0
808,0.23767948,0.25222397,0.8552704,-1.0099732,-0.118945315,-0.89421386,76.0
809,0.10980892,0.61073875,0.7844391,-1.0099732,-0.118945315,-0.89421386,76.0
810,0.10980892,0.61073875,0.7844391,-0.95368654,-0.03717041,-0.7688965,76.0
811,-0.101959705,0.7851486,0.71035767,-0.95368654,-0.03717041,-0.7688965,76.0
812,-0.101959705,0.7851486,0.71035767,-0.7338501,0.007434082,-0.6573853,76.0
813,-0.33464432,0.8081608,0.6721344,-0.7338501,0.007434082,-0.6573853,76.0
814,-0.33464432,0.8081608,0.6721344,-0.42799073,0.026550293,-0.60959476,76.0
815,-0.4188385,0.8044014,0.70210266,-0.42799073,0.026550293,-0.60959476,76.0
816,-0.4188385,0.8044014,0.70210266,-0.18797608,0.057348635,-0.56180423,76.0
817,-0.36965322,0.84916115,0.60276794,-0.18797608,0.057348635,-0.56180423,76.0
818,-0.36965322,0.84916115,0.60276794,-0.021240234,0.06690674,-0.5777344,76.0
819,-0.34481907,0.8104687,0.3544464,-0.021240234,0.06690674,-0.5777344,76.0
820,-0.34481907,0.8104687,0.3544464,0.06690674,0.04460449,-0.5894165,76.0
821,-0.36143875,0.49389458,0.22567749,0.06690674,0.04460449,-0.5894165,76.0
822,-0.36143875,0.49389458,0.22567749,0.19222413,-0.015930176,-0.63826907,76.0
823,-0.3459015,0.05975151,0.22975159,0.19222413,-0.015930176,-0.63826907,76.0
824,-0.3459015,0.05975151,0.22975159,0.32497558,-0.04991455,-0.68074954,76.0
825,-0.34160137,-0.20195389,0.10612488,0.32497558,-0.04991455,-0.68074954,76.0
826,-0.34160137,-0.20195389,0.10612488,0.33984375,-0.05628662,-0.7168579,76.0
827,-0.36319828,-0.2638321,-0.18003845,0.33984375,-0.05628662,-0.7168579,76.0
828,-0.36319828,-0.2638321,-0.18003845,0.2899292,-0.03079834,-0.721106,76.0
829,-0.3174386,-0.25159454,-0.5098419,0.2899292,-0.03079834,-0.721106,76.0
830,-0.3174386,-0.25159454,-0.5098419,0.29736328,0.010620117,-0.7317261,76.0
831,-0.1964798,-0.18170738,-0.7886658,0.29736328,0.010620117,-0.7317261,76.0
832,-0.1964798,-0.18170738,-0.7886658,0.24107666,0.08283692,-0.724292,76.0
833,-0.09163189,-0.004398346,-0.9618988,0.24107666,0.08283692,-0.724292,76.0
834,-0.09163189,-0.004398346,-0.9618988,0.047790527,0.17416993,-0.7412842,76.0
835,-0.024489403,0.14472198,-0.99427795,0.047790527,0.17416993,-0.7412842,76.0
836,-0.024489403,0.14472198,-0.99427795,-0.16461182,0.2442627,-0.79013675,76.0
837,0.02347517,0.20349693,-0.863327,-0.16461182,0.2442627,-0.79013675,76.0
838,0.02347517,0.20349693,-0.863327,-0.31860352,0.29205322,-0.7805786,76.0
839,-0.0014104843,0.29025078,-0.63539124,-0.31860352,0.29205322,-0.7805786,76.0
840,-0.0014104843,0.29025078,-0.63539124,-0.3451538,0.2793091,-0.7455322,76.0
841,-0.13709068,0.43891525,-0.38076782,-0.3451538,0.2793091,-0.7455322,76.0
842,-0.13709068,0.43891525,-0.38076782,-0.30161133,0.18479005,-0.70942384,76.0
843,-0.13709068,0.43891525,-0.38076782,-0.30161133,0.18479005,-0.70942384,77.0
844,-0.2599411,0.6007538,-0.074539185,-0.30161133,0.18479005,-0.70942384,77.0
845,-0.2599411,0.6007538,-0.074539185,-0.12213135,0.043542482,-0.6467652,77.0
846,-0.3026061,0.68839073,0.27201843,-0.12213135,0.043542482,-0.6467652,77.0
847,-0.3026061,0.68839073,0.27201843,0.07965088,-0.10301514,-0.55755615,77.0
848,-0.24270725,0.69319344,0.4525299,0.07965088,-0.10301514,-0.55755615,77.0
849,-0.24270725,0.69319344,0.4525299,0.27612305,-0.22939454,-0.44816896,77.0
850,-0.112891674,0.68753815,0.36947632,0.27612305,-0.22939454,-0.44816896,77.0
851,-0.112891674,0.68753815,0.36947632,0.37595215,-0.3079834,-0.38232422,77.0
852,0.01812172,0.50357056,0.24827576,0.37595215,-0.3079834,-0.38232422,77.0
853,0.01812172,0.50357056,0.24827576,0.4439209,-0.32922363,-0.31010744,77.0
854,0.13620138,0.08649826,0.3191986,0.4439209,-0.32922363,-0.31010744,77.0
855,0.13620138,0.08649826,0.3191986,0.66269535,-0.3069214,-0.19753419,77.0
856,0.15178347,-0.014577866,0.39949036,0.66269535,-0.3069214,-0.19753419,77.0
857,0.15178347,-0.014577866,0.39949036,0.73597413,-0.22089843,-0.09239502,77.0
858,-0.018112183,0.4649124,0.073776245,0.73597413,-0.22089843,-0.09239502,77.0
859,-0.018112183,0.4649124,0.073776245,0.46728516,-0.08496094,-0.0031860352,77.0
860,-0.3913455,1.0459156,-0.68214417,0.46728516,-0.08496094,-0.0031860352,77.0
861,-0.3913455,1.0459156,-0.68214417,0.2347046,0.010620117,0.040356446,77.0
862,-0.8910303,1.2773933,-1.3023376,0.2347046,0.010620117,0.040356446,77.0
863,-0.8910303,1.2773933,-1.3023376,-0.03186035,0.040356446,0.04248047,77.0
864,-1.2655096,1.1203289,-1.432663,-0.03186035,0.040356446,0.04248047,77.0
865,-1.2655096,1.1203289,-1.432663,-0.16461182,0.07540283,-0.021240234,77.0
866,-1.47857,0.81803894,-1.1934357,-0.16461182,0.07540283,-0.021240234,77.0
867,-1.47857,0.81803894,-1.1934357,-0.17947999,0.045666505,-0.06478272,77.0
868,-1.5961738,0.6094723,-0.7851715,-0.17947999,0.045666505,-0.06478272,77.0
869,-1.5961738,0.6094723,-0.7851715,-0.124255374,-0.039294433,-0.081774905,77.0
870,-1.5414777,0.53647995,-0.32640076,-0.124255374,-0.039294433,-0.081774905,77.0
871,-1.5414777,0.53647995,-0.32640076,-0.011682129,-0.121069334,-0.095581055,77.0
872,-1.265018,0.5259609,0.15744019,-0.011682129,-0.121069334,-0.095581055,77.0
873,-1.265018,0.5259609,0.15744019,0.06796875,-0.21877442,-0.08071289,77.0
874,-0.8260648,0.3581581,0.7753296,0.06796875,-0.21877442,-0.08071289,77.0
875,-0.8260648,0.3581581,0.7753296,0.16567384,-0.2516968,-0.11044922,77.0
876,-0.16791964,-0.3544159,1.5726013,0.16567384,-0.2516968,-0.11044922,77.0
877,-0.16791964,-0.3544159,1.5726013,0.6053467,-0.2177124,-0.1359375,77.0
878,0.66180706,-1.2150517,2.13266,0.6053467,-0.2177124,-0.1359375,77.0
879,0.66180706,-1.2150517,2.13266,1.1352905,-0.17523193,-0.059472658,77.0
880,0.90671635,-1.2781582,1.8886414,1.1352905,-0.17523193,-0.059472658,77.0
881,0.90671635,-1.2781582,1.8886414,1.1575928,-0.09770508,-0.016992187,77.0
882,1.355598,-0.34183884,1.2483826,1.1575928,-0.09770508,-0.016992187,77.0
883,1.355598,-0.34183884,1.2483826,0.5246338,0.32603762,0.06159668,77.0
884,1.1492977,-0.07635307,0.6624756,0.5246338,0.32603762,0.06159668,77.0
885,1.1492977,-0.07635307,0.6624756,0.44498292,0.4439209,0.07434082,77.0
886,0.5362716,0.0056171417,-0.89375305,0.44498292,0.4439209,0.07434082,77.0
887,0.5362716,0.0056171417,-0.89375305,0.4970215,0.7168579,0.18160401,77.0
888,0.30802107,-0.053489685,-1.137619,0.4970215,0.7168579,0.18160401,77.0
889,0.30802107,-0.053489685,-1.137619,0.47471926,0.7975708,0.23045655,77.0
890,-0.509284,0.3183651,-1.6498566,0.47471926,0.7975708,0.23045655,77.0
891,-0.509284,0.3183651,-1.6498566,0.09239502,0.91120607,0.09451904,77.0
892,-0.54496384,0.33519745,-1.4399719,0.09239502,0.91120607,0.09451904,77.0
893,-0.54496384,0.33519745,-1.4399719,-0.15186767,0.9494385,0.11469727,77.0
894,-0.8238492,-0.41690063,-1.5861053,-0.15186767,0.9494385,0.11469727,77.0
895,-0.8238492,-0.41690063,-1.5861053,0.26019287,0.85491943,0.27293703,77.0
896,-0.67781687,-0.6489754,-1.3231354,0.26019287,0.85491943,0.27293703,77.0
897,-0.67781687,-0.6489754,-1.3231354,0.42268068,0.78164065,0.2899292,77.0
898,-0.90017605,-0.41211128,-0.9777069,0.42268068,0.78164065,0.2899292,77.0
899,-0.90017605,-0.41211128,-0.9777069,0.45135498,0.61278075,0.34940186,77.0
900,-0.71931076,-0.24749947,-0.64993286,0.45135498,0.61278075,0.34940186,77.0
901,-0.71931076,-0.24749947,-0.64993286,0.42161867,0.57561034,0.362146,77.0
902,-0.5136688,-0.33446312,-0.17289734,0.42161867,0.57561034,0.362146,77.0
903,-0.5136688,-0.33446312,-0.17289734,0.51188964,0.48109132,0.48215333,77.0
904,-0.19181871,-0.91067314,0.27340698,0.51188964,0.48109132,0.48215333,77.0
905,-0.19181871,-0.91067314,0.27340698,0.85598147,0.37595215,0.58198243,77.0
906,0.18549752,-1.3799782,0.8292999,0.85598147,0.37595215,0.58198243,77.0
907,0.18549752,-1.3799782,0.8292999,0.97280276,0.33028564,0.61915284,77.0
908,0.7739229,-1.5510406,1.5229492,0.97280276,0.33028564,0.61915284,77.0
909,0.7739229,-1.5510406,1.5229492,0.7604004,0.45135498,0.6977417,77.0
910,1.476243,-1.4879513,1.5057983,0.7604004,0.45135498,0.6977417,77.0
911,1.476243,-1.4879513,1.5057983,0.4343628,0.6117188,0.9239502,77.0
912,1.321229,-1.2693043,0.9729309,0.4343628,0.6117188,0.9239502,77.0
913,1.321229,-1.2693043,0.9729309,0.4258667,0.6711914,1.0460815,77.0
914,0.94355583,-0.95132065,0.35147095,0.4258667,0.6711914,1.0460815,77.0
915,0.94355583,-0.95132065,0.35147095,0.53737795,0.7434082,1.2807862,77.0
916,0.5943222,-0.5676727,0.30645752,0.53737795,0.7434082,1.2807862,77.0
917,0.5943222,-0.5676727,0.30645752,0.49277344,0.83898926,1.3360108,77.0
918,0.45043325,-0.2641716,0.48335266,0.49277344,0.83898926,1.3360108,77.0
919,0.45043325,-0.2641716,0.48335266,0.24532472,0.9197022,1.3944215,77.0
920,0.48786163,-0.22370338,0.3981018,0.24532472,0.9197022,1.3944215,77.0
921,0.48786163,-0.22370338,0.3981018,0.21027832,0.9154541,1.4878784,77.0
922,0.65702486,-0.36133575,0.023620605,0.21027832,0.9154541,1.4878784,77.0
923,0.65702486,-0.36133575,0.023620605,0.33984375,0.88996583,1.6078857,77.0
924,0.87574196,-0.4366398,-0.34921265,0.33984375,0.88996583,1.6078857,77.0
925,0.87574196,-0.4366398,-0.34921265,0.4439209,0.87191164,1.6705445,77.0
926,1.1471148,-0.35246086,-0.5341034,0.4439209,0.87191164,1.6705445,77.0
927,1.1471148,-0.35246086,-0.5341034,0.42374268,0.8496094,1.6386842,77.0
928,1.170414,-0.41291428,-0.3573761,0.42374268,0.8496094,1.6386842,77.0
929,1.170414,-0.41291428,-0.3573761,0.2899292,0.8623535,1.6195679,77.0
930,1.3254547,-0.49737167,-0.18388367,0.2899292,0.8623535,1.6195679,77.0
931,1.3254547,-0.49737167,-0.18388367,0.10513916,0.87615967,1.535669,77.0
932,1.4048948,-0.6894245,-0.14189148,0.10513916,0.87615967,1.535669,77.0
933,1.4048948,-0.6894245,-0.14189148,0.07752686,0.87615967,1.4570801,77.0
934,1.3833885,-0.78308105,-0.21530151,0.07752686,0.87615967,1.4570801,77.0
935,1.3833885,-0.78308105,-0.21530151,0.093457036,0.84323734,1.3922974,77.0
936,1.227243,-0.55760574,-0.3440857,0.093457036,0.84323734,1.3922974,77.0
937,1.227243,-0.55760574,-0.3440857,-0.078588866,0.8241211,1.3530029,77.0
938,0.9543042,-0.23164368,-0.4519806,-0.078588866,0.8241211,1.3530029,77.0
939,0.9543042,-0.23164368,-0.4519806,-0.2548828,0.7954468,1.2191895,77.0
940,0.58127785,-0.18414307,-0.40864563,-0.2548828,0.7954468,1.2191895,77.0
941,0.58127785,-0.18414307,-0.40864563,-0.4078125,0.72004396,1.1522827,77.0
942,0.27860832,-0.38395882,-0.26963806,-0.4078125,0.72004396,1.1522827,77.0
943,0.27860832,-0.38395882,-0.26963806,-0.33665773,0.56605226,1.0089111,77.0
944,0.21373177,-0.34062767,-0.0069885254,-0.33665773,0.56605226,1.0089111,77.0
945,0.21373177,-0.34062767,-0.0069885254,-0.2814331,0.4970215,0.99510497,77.0
946,0.21373177,-0.34062767,-0.0069885254,-0.2814331,0.4970215,0.99510497,78.0
947,0.19454479,-0.124773026,0.6057129,-0.2814331,0.4970215,0.99510497,78.0
948,0.19454479,-0.124773026,0.6057129,-0.56817627,0.58410645,0.9526245,78.0
949,0.16731739,-0.31367493,1.1788483,-0.56817627,0.58410645,0.9526245,78.0
950,0.16731739,-0.31367493,1.1788483,-0.44498292,0.62340087,0.7604004,78.0
951,0.3564005,-0.51851654,1.2036743,-0.44498292,0.62340087,0.7604004,78.0
952,0.3564005,-0.51851654,1.2036743,-0.29311523,0.6701294,0.8050049,78.0
953,0.56505203,-0.20298386,0.8890686,-0.29311523,0.6701294,0.8050049,78.0
954,0.56505203,-0.20298386,0.8890686,-0.36533204,0.6839356,0.8644776,78.0
955,0.54472923,0.15995216,0.7233734,-0.36533204,0.6839356,0.8644776,78.0
956,0.54472923,0.15995216,0.7233734,-0.42905274,0.7083618,0.8442993,78.0
957,0.50209236,0.1383133,0.7764435,-0.42905274,0.7083618,0.8442993,78.0
958,0.50209236,0.1383133,0.7764435,-0.44604492,0.71367186,0.81987303,78.0
959,0.50993824,-0.06427765,0.66223145,-0.44604492,0.71367186,0.81987303,78.0
960,0.50993824,-0.06427765,0.66223145,-0.2793091,0.69136965,0.84111327,78.0
961,0.49258137,-0.15397263,0.33914185,-0.2793091,0.69136965,0.84111327,78.0
962,0.49258137,-0.15397263,0.33914185,-0.0998291,0.6818115,0.88996583,78.0
963,0.43555737,-0.10773659,0.091171265,-0.0998291,0.6818115,0.88996583,78.0
964,0.43555737,-0.10773659,0.091171265,0.090270996,0.67225343,0.9409424,78.0
965,0.26294804,-0.006269455,0.017944336,0.090270996,0.67225343,0.9409424,78.0
966,0.26294804,-0.006269455,0.017944336,0.1985962,0.6616333,0.9366943,78.0
967,0.0117378235,0.0403347,0.047698975,0.1985962,0.6616333,0.9366943,78.0
968,0.0117378235,0.0403347,0.047698975,0.24532472,0.63720703,0.9430664,78.0
969,-0.18218708,0.06573868,0.009124756,0.24532472,0.63720703,0.9430664,78.0
970,-0.18218708,0.06573868,0.009124756,0.24001466,0.5628662,0.87615967,78.0
971,-0.27007866,0.099782944,-0.13601685,0.24001466,0.5628662,0.87615967,78.0
972,-0.27007866,0.099782944,-0.13601685,0.083898924,0.4078125,0.6977417,78.0
973,-0.21673489,0.080472946,-0.19833374,0.083898924,0.4078125,0.6977417,78.0
974,-0.21673489,0.080472946,-0.19833374,-0.16248779,0.2803711,0.5278198,78.0
975,-0.11118126,0.035203934,-0.15480042,-0.16248779,0.2803711,0.5278198,78.0
976,-0.11118126,0.035203934,-0.15480042,-0.26444092,0.16567384,0.4800293,78.0
977,-0.12117195,-0.015417099,-0.06765747,-0.26444092,0.16567384,0.4800293,78.0
978,-0.12117195,-0.015417099,-0.06765747,-0.18372802,0.04460449,0.38338622,78.0
979,-0.114271164,-0.11425018,0.10054016,-0.18372802,0.04460449,0.38338622,78.0
980,-0.114271164,-0.11425018,0.10054016,-0.11151123,-0.047790527,0.33134767,78.0
981,0.00919342,-0.23196411,0.29026794,-0.11151123,-0.047790527,0.33134767,78.0
982,0.00919342,-0.23196411,0.29026794,-0.093457036,-0.090270996,0.27399904,78.0
983,0.11650944,-0.3143921,0.35505676,-0.093457036,-0.090270996,0.27399904,78.0
984,0.11650944,-0.3143921,0.35505676,-0.015930176,-0.090270996,0.22302246,78.0
985,0.18640804,-0.33423996,0.30722046,-0.015930176,-0.090270996,0.22302246,78.0
986,0.18640804,-0.33423996,0.30722046,0.03079834,-0.070092775,0.16036378,78.0
987,0.16411686,-0.3383522,0.21194458,0.03079834,-0.070092775,0.16036378,78.0
988,0.16411686,-0.3383522,0.21194458,0.040356446,-0.03717041,0.07965088,78.0
989,0.04275608,-0.41466522,0.11831665,0.040356446,-0.03717041,0.07965088,78.0
990,0.04275608,-0.41466522,0.11831665,0.043542482,-0.03079834,0.011682129,78.0
991,-0.044591904,-0.4702587,0.08477783,0.043542482,-0.03079834,0.011682129,78.0
992,-0.044591904,-0.4702587,0.08477783,-0.013806152,-0.023364259,-0.026550293,78.0
993,-0.0936079,-0.38353157,0.13612366,-0.013806152,-0.023364259,-0.026550293,78.0
994,-0.0936079,-0.38353157,0.13612366,-0.11682129,-0.012744141,-0.045666505,78.0
995,-0.12807274,-0.2905159,0.2112732,-0.11682129,-0.012744141,-0.045666505,78.0
996,-0.12807274,-0.2905159,0.2112732,-0.15080567,-0.0010620117,-0.020178223,78.0
997,-0.11465263,-0.27718925,0.23937988,-0.15080567,-0.0010620117,-0.020178223,78.0
998,-0.11465263,-0.27718925,0.23937988,-0.087084964,0.009558106,0.04885254,78.0
999,-0.12607288,-0.24449348,0.25109863,-0.087084964,0.009558106,0.04885254,78.0
1000,-0.12607288,-0.24449348,0.25109863,-0.087084964,0.0063720704,0.13806152,78.0
1001,-0.17619991,-0.16501617,0.25508118,-0.087084964,0.0063720704,0.13806152,78.0
1002,-0.17619991,-0.16501617,0.25508118,-0.10938721,0.0053100586,0.19116211,78.0
1003,-0.1674242,-0.10173988,0.26885986,-0.10938721,0.0053100586,0.19116211,78.0
1004,-0.1674242,-0.10173988,0.26885986,-0.040356446,0.013806152,0.26337892,78.0
1005,-0.058133125,-0.06874466,0.26942444,-0.040356446,0.013806152,0.26337892,78.0
1006,-0.058133125,-0.06874466,0.26942444,0.052038576,0.029736329,0.32391357,78.0
1007,0.12689495,-0.003042221,0.15830994,0.052038576,0.029736329,0.32391357,78.0
1008,0.12689495,-0.003042221,0.15830994,0.029736329,0.057348635,0.32285157,78.0
1009,0.24475288,0.06846428,-0.11091614,0.029736329,0.057348635,0.32285157,78.0
1010,0.24475288,0.06846428,-0.11091614,-0.10513916,0.09133301,0.28461915,78.0
1011,0.16134167,0.023118973,-0.38301086,-0.10513916,0.09133301,0.28461915,78.0
1012,0.16134167,0.023118973,-0.38301086,-0.21558838,0.098767094,0.2623169,78.0
1013,-0.072854996,-0.19888687,-0.43928528,-0.21558838,0.098767094,0.2623169,78.0
1014,-0.072854996,-0.19888687,-0.43928528,-0.12531738,0.090270996,0.20178223,78.0
1015,-0.22105217,-0.42143822,-0.31477356,-0.12531738,0.090270996,0.20178223,78.0
1016,-0.22105217,-0.42143822,-0.31477356,0.004248047,0.08920898,0.18054199,78.0
1017,-0.22757435,-0.41057587,-0.20918274,0.004248047,0.08920898,0.18054199,78.0
1018,-0.22757435,-0.41057587,-0.20918274,0.0010620117,0.0998291,0.18479005,78.0
1019,-0.29498672,-0.16246986,-0.22206116,0.0010620117,0.0998291,0.18479005,78.0
1020,-0.29498672,-0.16246986,-0.22206116,-0.07646485,0.10513916,0.2357666,78.0
1021,-0.45553303,0.08043671,-0.29652405,-0.07646485,0.10513916,0.2357666,78.0
1022,-0.45553303,0.08043671,-0.29652405,-0.13062744,0.10089111,0.3164795,78.0
1023,-0.5826273,0.13626099,-0.34916687,-0.13062744,0.10089111,0.3164795,78.0
1024,-0.5826273,0.13626099,-0.34916687,-0.07965088,0.08814698,0.45347902,78.0
1025,-0.6194706,0.0680294,-0.28871155,-0.07965088,0.08814698,0.45347902,78.0
1026,-0.6194706,0.0680294,-0.28871155,0.04141846,0.070092775,0.6085327,78.0
1027,-0.6213331,0.03942108,-0.0650177,0.04141846,0.070092775,0.6085327,78.0
1028,-0.6213331,0.03942108,-0.0650177,0.09451904,0.026550293,0.74022216,78.0
1029,-0.5352869,0.0587101,0.20579529,0.09451904,0.026550293,0.74022216,78.0
1030,-0.5352869,0.0587101,0.20579529,0.08602295,0.004248047,0.79226077,78.0
1031,-0.28504086,-0.0046424866,0.38639832,0.08602295,0.004248047,0.79226077,78.0
1032,-0.28504086,-0.0046424866,0.38639832,0.1539917,0.015930176,0.81668705,78.0
1033,0.05045843,-0.25263977,0.49154663,0.1539917,0.015930176,0.81668705,78.0
1034,0.05045843,-0.25263977,0.49154663,0.26444092,0.058410645,0.83474123,78.0
1035,0.35375786,-0.50551796,0.58006287,0.26444092,0.058410645,0.83474123,78.0
1036,0.35375786,-0.50551796,0.58006287,0.25806886,0.12956543,0.817749,78.0
1037,0.6637926,-0.60811424,0.6761627,0.25806886,0.12956543,0.817749,78.0
1038,0.6637926,-0.60811424,0.6761627,0.14655761,0.271875,0.74022216,78.0
1039,0.89852715,-0.6320362,0.68751526,0.14655761,0.271875,0.74022216,78.0
1040,0.89852715,-0.6320362,0.68751526,0.14761963,0.40993652,0.6903076,78.0
1041,0.7261944,-0.63508415,0.56073,0.14761963,0.40993652,0.6903076,78.0
1042,0.7261944,-0.63508415,0.56073,0.10195313,0.44710693,0.5883545,78.0
1043,0.23194408,-0.90821457,0.60417175,0.10195313,0.44710693,0.5883545,78.0
1044,0.23194408,-0.90821457,0.60417175,0.05522461,0.22939454,0.26550293,78.0
1045,0.4140463,-1.4014378,1.0657196,0.05522461,0.22939454,0.26550293,78.0
1046,0.4140463,-1.4014378,1.0657196,0.012744141,0.19753419,-0.0722168,78.0
1047,1.4037838,-1.3368473,1.3312988,0.012744141,0.19753419,-0.0722168,78.0
1048,1.4037838,-1.3368473,1.3312988,-0.22089843,0.34833986,0.019116212,78.0
1049,1.6434374,-0.62060165,0.7095032,-0.22089843,0.34833986,0.019116212,78.0
1050,1.6434374,-0.62060165,0.7095032,-0.4078125,0.46516114,0.16779785,78.0
1051,0.6628456,-0.055490494,-0.24862671,-0.4078125,0.46516114,0.16779785,78.0
1052,0.6628456,-0.055490494,-0.24862671,-0.4067505,0.47471926,0.16885987,78.0
1053,-0.31990623,0.044706345,-0.69444275,-0.4067505,0.47471926,0.16885987,78.0
1054,-0.31990623,0.044706345,-0.69444275,-0.4885254,0.4980835,0.11469727,78.0
1055,-0.7269459,-0.06738472,-0.7153015,-0.4885254,0.4980835,0.11469727,78.0
1056,-0.7269459,-0.06738472,-0.7153015,-0.50233155,0.48640138,0.038232423,78.0
1057,-0.9107809,-0.2673359,-0.66867065,-0.50233155,0.48640138,0.038232423,78.0
1058,-0.9107809,-0.2673359,-0.66867065,-0.40462646,0.41099855,-0.07540283,78.0
1059,-0.97723293,-0.33468246,-0.68904114,-0.40462646,0.41099855,-0.07540283,78.0
1060,-0.97723293,-0.33468246,-0.68904114,-0.21027832,0.270813,-0.22939454,78.0
1061,-0.8029413,0.014408112,-0.793869,-0.21027832,0.270813,-0.22939454,78.0
1062,-0.8029413,0.014408112,-0.793869,-0.21027832,0.14124756,-0.34727785,78.0
1063,-0.5045843,0.4546547,-0.75775146,-0.21027832,0.14124756,-0.34727785,78.0
1064,-0.5045843,0.4546547,-0.75775146,-0.4991455,0.06903076,-0.35895997,78.0
1065,-0.5045843,0.4546547,-0.75775146,-0.4991455,0.06903076,-0.35895997,78.0
1066,-0.31595993,0.48810196,-0.44049072,-0.4991455,0.06903076,-0.35895997,78.0
1067,-0.31595993,0.48810196,-0.44049072,-0.5872925,0.015930176,-0.3175415,78.0
1068,-0.2735567,0.1731472,-0.09664917,-0.5872925,0.015930176,-0.3175415,78.0
1069,-0.2735567,0.1731472,-0.09664917,-0.42799073,-0.015930176,-0.29523927,78.0
1070,-0.22845268,-0.097164154,0.021133423,-0.42799073,-0.015930176,-0.29523927,78.0
1071,-0.22845268,-0.097164154,0.021133423,-0.22196046,-0.043542482,-0.27506104,78.0
1072,-0.109446526,-0.06854057,-0.057876587,-0.22196046,-0.043542482,-0.27506104,78.0
1073,-0.109446526,-0.06854057,-0.057876587,-0.18266602,-0.04885254,-0.28355715,78.0
1074,0.009952545,0.13073921,-0.19178772,-0.18266602,-0.04885254,-0.28355715,78.0
1075,0.009952545,0.13073921,-0.19178772,-0.24532472,-0.04460449,-0.31116945,78.0
1076,0.0292387,0.20168686,-0.23242188,-0.24532472,-0.04460449,-0.31116945,78.0
1077,0.0292387,0.20168686,-0.23242188,-0.18372802,-0.043542482,-0.31860352,78.0
1078,-0.013083458,0.15879822,-0.14819336,-0.18372802,-0.043542482,-0.31860352,78.0
1079,-0.013083458,0.15879822,-0.14819336,-0.03186035,-0.052038576,-0.3345337,78.0
1080,-0.037981033,0.20817947,-0.049987793,-0.03186035,-0.052038576,-0.3345337,78.0
1081,-0.037981033,0.20817947,-0.049987793,0.015930176,-0.04248047,-0.36639404,78.0
1082,-0.0832777,0.29953957,-0.0024871826,0.015930176,-0.04248047,-0.36639404,78.0
1083,-0.0832777,0.29953957,-0.0024871826,0.009558106,-0.0541626,-0.42161867,78.0
1084,-0.10915184,0.2937336,0.07055664,0.009558106,-0.0541626,-0.42161867,78.0
1085,-0.10915184,0.2937336,0.07055664,0.05628662,-0.09664307,-0.4895874,78.0
1086,-0.012357712,0.20858383,0.21226501,0.05628662,-0.09664307,-0.4895874,78.0
1087,-0.012357712,0.20858383,0.21226501,0.12000733,-0.12319336,-0.5384399,78.0
1088,0.10826588,0.17323875,0.3279724,0.12000733,-0.12319336,-0.5384399,78.0
1089,0.10826588,0.17323875,0.3279724,0.07115479,-0.16673584,-0.5703003,78.0
1090,0.17013359,0.22522354,0.30166626,0.07115479,-0.16673584,-0.5703003,78.0
1091,0.17013359,0.22522354,0.30166626,-0.07115479,-0.22939454,-0.6467652,78.0
1092,0.23309135,0.28718567,0.18040466,-0.07115479,-0.22939454,-0.6467652,78.0
1093,0.23309135,0.28718567,0.18040466,-0.29736328,-0.30373535,-0.69986576,78.0
1094,0.22455883,0.2421875,0.036102295,-0.29736328,-0.30373535,-0.69986576,78.0
1095,0.22455883,0.2421875,0.036102295,-0.4630371,-0.40037844,-0.7508423,78.0
1096,0.03557968,0.06918907,-0.17494202,-0.4630371,-0.40037844,-0.7508423,78.0
1097,0.03557968,0.06918907,-0.17494202,-0.5703003,-0.61065674,-0.8442993,78.0
1098,-0.14098167,-0.07317734,-0.404068,-0.5703003,-0.61065674,-0.8442993,78.0
1099,-0.14098167,-0.07317734,-0.404068,-0.90802,-0.8867798,-1.1129884,78.0
1100,0.18269825,0.07595444,-0.44792175,-0.90802,-0.8867798,-1.1129884,78.0
1101,0.18269825,0.07595444,-0.44792175,-1.4772583,-0.94731444,-1.359375,78.0
1102,0.9133091,0.5333824,-0.46470642,-1.4772583,-0.94731444,-1.359375,78.0
1103,0.9133091,0.5333824,-0.46470642,-2.0624268,-0.8251831,-1.4900025,78.0
1104,1.2788048,0.8814316,-0.739563,-2.0624268,-0.8251831,-1.4900025,78.0
1105,1.2788048,0.8814316,-0.739563,-2.340674,-0.69136965,-1.7342652,78.0
1106,1.2636938,0.91254234,-0.98550415,-2.340674,-0.69136965,-1.7342652,78.0
1107,1.2636938,0.91254234,-0.98550415,-2.6125488,-0.62340087,-2.0656128,78.0
1108,1.296526,1.0227222,-0.96810913,-2.6125488,-0.62340087,-2.0656128,78.0
1109,1.296526,1.0227222,-0.96810913,-3.268872,-0.5331299,-2.3725343,78.0
1110,1.0704727,1.3237686,-0.9332123,-3.268872,-0.5331299,-2.3725343,78.0
1111,1.0704727,1.3237686,-0.9332123,-3.9273193,-0.5766724,-2.541394,78.0
1112,0.34169292,1.3636284,-0.8059082,-3.9273193,-0.5766724,-2.541394,78.0
1113,0.34169292,1.3636284,-0.8059082,-3.970862,-0.817749,-2.7676027,78.0
1114,-0.26626968,0.8370819,-0.22003174,-3.970862,-0.817749,-2.7676027,78.0
1115,-0.26626968,0.8370819,-0.22003174,-3.6533203,-1.1225464,-3.0214233,78.0
1116,-0.32450294,-0.20797157,0.8026581,-3.6533203,-1.1225464,-3.0214233,78.0
1117,-0.32450294,-0.20797157,0.8026581,-3.0617797,-1.356189,-3.172229,78.0
1118,-0.14884758,-1.4059772,1.7985077,-3.0617797,-1.356189,-3.172229,78.0
1119,-0.14884758,-1.4059772,1.7985077,-1.987024,-1.5239868,-2.988501,78.0
1120,-0.11656284,-2.09264,2.5880432,-1.987024,-1.5239868,-2.988501,78.0
1121,-0.11656284,-2.09264,2.5880432,-0.9420044,-1.6185058,-2.6826417,78.0
1122,-0.16767693,-1.7353439,3.0620728,-0.9420044,-1.6185058,-2.6826417,78.0
1123,-0.16767693,-1.7353439,3.0620728,-0.7189819,-1.4921265,-2.2036743,78.0
1124,-0.20865345,-0.7973461,2.7732086,-0.7189819,-1.4921265,-2.2036743,78.0
1125,-0.20865345,-0.7973461,2.7732086,-0.8379273,-1.2446778,-1.6641724,78.0
1126,-0.5472088,-0.16827202,1.6536865,-0.8379273,-1.2446778,-1.6641724,78.0
1127,-0.5472088,-0.16827202,1.6536865,-0.68074954,-1.0471436,-1.1522827,78.0
1128,-1.2839336,0.14067459,0.37698364,-0.68074954,-1.0471436,-1.1522827,78.0
1129,-1.2839336,0.14067459,0.37698364,-0.41737062,-0.92926025,-0.76358646,78.0
1130,-2.0311022,0.48121643,-0.43702698,-0.41737062,-0.92926025,-0.76358646,78.0
1131,-2.0311022,0.48121643,-0.43702698,-0.1901001,-0.8294312,-0.5320679,78.0
1132,-2.4144573,0.83855057,-0.81044006,-0.1901001,-0.8294312,-0.5320679,78.0
1133,-2.4144573,0.83855057,-0.81044006,0.083898924,-0.74022216,-0.37701416,78.0
1134,-2.3768296,1.0453529,-1.0273438,0.083898924,-0.74022216,-0.37701416,78.0
1135,-2.3768296,1.0453529,-1.0273438,0.3164795,-0.6839356,-0.271875,78.0
1136,-2.0225453,1.0798855,-1.217041,0.3164795,-0.6839356,-0.271875,78.0
1137,-2.0225453,1.0798855,-1.217041,0.43011475,-0.66269535,-0.20603028,78.0
1138,-1.5638733,1.0129566,-1.2239685,0.43011475,-0.66269535,-0.20603028,78.0
1139,-1.5638733,1.0129566,-1.2239685,0.4322388,-0.64570314,-0.1529297,78.0
1140,-1.0805302,0.8407726,-0.9536438,0.4322388,-0.64570314,-0.1529297,78.0
1141,-1.0805302,0.8407726,-0.9536438,0.43861085,-0.57561034,-0.06690674,78.0
1142,-0.57797384,0.5817604,-0.60717773,0.43861085,-0.57561034,-0.06690674,78.0
1143,-0.57797384,0.5817604,-0.60717773,0.49277344,-0.50233155,0.06690674,78.0
1144,-0.14708376,0.46126938,-0.41532898,0.49277344,-0.50233155,0.06690674,78.0
1145,-0.14708376,0.46126938,-0.41532898,0.5384399,-0.4056885,0.22514649,78.0
1146,0.16016483,0.53959656,-0.349411,0.5384399,-0.4056885,0.22514649,78.0
1147,0.16016483,0.53959656,-0.349411,0.5479981,-0.26975098,0.4056885,78.0
1148,0.38353968,0.61293983,-0.31713867,0.5479981,-0.26975098,0.4056885,78.0
1149,0.38353968,0.61293983,-0.31713867,0.54906005,-0.1178833,0.60109866,78.0
1150,0.5576253,0.5720787,-0.309906,0.54906005,-0.1178833,0.60109866,78.0
1151,0.5576253,0.5720787,-0.309906,0.5787964,0.019116212,0.7827026,78.0
1152,0.7155218,0.42889023,-0.28034973,0.5787964,0.019116212,0.7827026,78.0
1153,0.7155218,0.42889023,-0.28034973,0.6510132,0.1359375,0.90908206,78.0
1154,0.7155218,0.42889023,-0.28034973,0.6510132,0.1359375,0.90908206,78.0
1155,0.91115046,0.21879578,-0.17901611,0.6510132,0.1359375,0.90908206,78.0
1156,0.91115046,0.21879578,-0.17901611,0.7508423,0.23364258,1.0089111,78.0
1157,1.1779318,0.035692215,-0.028457642,0.7508423,0.23364258,1.0089111,78.0
1158,1.1779318,0.035692215,-0.028457642,0.81031495,0.33028564,1.0492676,78.0
1159,1.4982295,-0.0112781525,0.03050232,0.81031495,0.33028564,1.0492676,78.0
1160,1.4982295,-0.0112781525,0.03050232,0.7434082,0.44604492,1.0556396,78.0
1161,1.7078123,0.06513405,-0.06576538,0.7434082,0.44604492,1.0556396,78.0
1162,1.7078123,0.06513405,-0.06576538,0.56605226,0.53100586,1.0651978,78.0
1163,1.6443624,-0.06529999,-0.11117554,0.56605226,0.53100586,1.0651978,78.0
1164,1.6443624,-0.06529999,-0.11117554,0.47790527,0.46834716,0.998291,78.0
1165,1.4531116,-0.6950264,0.18948364,0.47790527,0.46834716,0.998291,78.0
1166,1.4531116,-0.6950264,0.18948364,0.61702883,0.32391357,0.90058595,78.0
1167,1.4221449,-1.5309219,0.68247986,0.61702883,0.32391357,0.90058595,78.0
1168,1.4221449,-1.5309219,0.68247986,0.811377,0.2347046,0.815625,78.0
1169,1.448019,-1.6597595,0.49406433,0.811377,0.2347046,0.815625,78.0
1170,1.448019,-1.6597595,0.49406433,0.727478,0.28461915,0.8867798,78.0
1171,0.9401665,-0.69522667,-0.8036804,0.727478,0.28461915,0.8867798,78.0
1172,0.9401665,-0.69522667,-0.8036804,0.4056885,0.38338622,0.99298096,78.0
1173,-0.17079163,0.30119324,-2.1818085,0.4056885,0.38338622,0.99298096,78.0
1174,-0.17079163,0.30119324,-2.1818085,0.17947999,0.34833986,1.0205933,78.0
1175,-1.0453854,0.22174072,-2.5441284,0.17947999,0.34833986,1.0205933,78.0
1176,-1.0453854,0.22174072,-2.5441284,0.3355957,0.27506104,1.0492676,78.0
1177,-1.1897631,-0.6574707,-1.9498444,0.3355957,0.27506104,1.0492676,78.0
1178,-1.1897631,-0.6574707,-1.9498444,0.813501,0.1720459,0.9420044,78.0
1179,-0.8909092,-1.3234863,-1.1221924,0.813501,0.1720459,0.9420044,78.0
1180,-0.8909092,-1.3234863,-1.1221924,1.177771,0.04248047,0.8251831,78.0
1181,-0.42871857,-1.249939,-0.5816345,1.177771,0.04248047,0.8251831,78.0
1182,-0.42871857,-1.249939,-0.5816345,1.1236085,-0.05628662,0.6690674,78.0
1183,0.14069176,-0.84044266,-0.272995,1.1236085,-0.05628662,0.6690674,78.0
1184,0.14069176,-0.84044266,-0.272995,0.8782837,-0.052038576,0.47471926,78.0
1185,0.72196484,-0.6646137,0.003768921,0.8782837,-0.052038576,0.47471926,78.0
1186,0.72196484,-0.6646137,0.003768921,0.65632325,0.021240234,0.35577393,78.0
1187,1.0842123,-0.6309109,0.08010864,0.65632325,0.021240234,0.35577393,78.0
1188,1.0842123,-0.6309109,0.08010864,0.34940186,0.10620117,0.24532472,78.0
1189,1.0337276,-0.30509567,-0.14872742,0.34940186,0.10620117,0.24532472,78.0
1190,1.0337276,-0.30509567,-0.14872742,-0.10301514,0.21452637,0.1178833,78.0
1191,0.70972157,0.21031761,-0.47608948,-0.10301514,0.21452637,0.1178833,78.0
1192,0.70972157,0.21031761,-0.47608948,-0.5246338,0.31010744,-0.0021240234,78.0
1193,0.3174839,0.5048504,-0.65522766,-0.5246338,0.31010744,-0.0021240234,78.0
1194,0.3174839,0.5048504,-0.65522766,-0.7072998,0.30479738,-0.1083252,78.0
1195,0.019685745,0.5461769,-0.631073,-0.7072998,0.30479738,-0.1083252,78.0
1196,0.019685745,0.5461769,-0.631073,-0.7126099,0.2899292,-0.20072022,78.0
1197,-0.08102894,0.6391392,-0.486969,-0.7126099,0.2899292,-0.20072022,78.0
1198,-0.08102894,0.6391392,-0.486969,-0.635083,0.23364258,-0.3058594,78.0
1199,-0.09228897,0.8830147,-0.307724,-0.635083,0.23364258,-0.3058594,78.0
1200,-0.09228897,0.8830147,-0.307724,-0.64782715,0.15717773,-0.39613038,78.0
1201,-0.08924866,1.0722561,-0.08267212,-0.64782715,0.15717773,-0.39613038,78.0
1202,-0.08924866,1.0722561,-0.08267212,-0.6510132,0.09664307,-0.4959595,78.0
1203,0.012720108,1.007782,0.24351501,-0.6510132,0.09664307,-0.4959595,78.0
1204,0.012720108,1.007782,0.24351501,-0.5511841,0.043542482,-0.541626,78.0
1205,0.1931963,0.81048584,0.56489563,-0.5511841,0.043542482,-0.541626,78.0
1206,0.1931963,0.81048584,0.56489563,-0.3727661,0.0053100586,-0.5713623,78.0
1207,0.29628086,0.71115685,0.73753357,-0.3727661,0.0053100586,-0.5713623,78.0
1208,0.29628086,0.71115685,0.73753357,-0.29523927,-0.025488282,-0.62340087,78.0
1209,0.3075447,0.66625214,0.81744385,-0.29523927,-0.025488282,-0.62340087,78.0
1210,0.3075447,0.66625214,0.81744385,-0.26125488,-0.053100586,-0.6956177,78.0
1211,0.31054974,0.5498829,0.89079285,-0.26125488,-0.053100586,-0.6956177,78.0
1212,0.31054974,0.5498829,0.89079285,-0.21983643,-0.04991455,-0.7720825,78.0
1213,0.29828072,0.4267826,0.85154724,-0.21983643,-0.04991455,-0.7720825,78.0
1214,0.29828072,0.4267826,0.85154724,-0.18054199,-0.047790527,-0.8772217,78.0
1215,0.12743092,0.4229927,0.6486664,-0.18054199,-0.047790527,-0.8772217,78.0
1216,0.12743092,0.4229927,0.6486664,-0.22833252,-0.06584473,-1.002539,78.0
1217,-0.16211796,0.4770298,0.49671936,-0.22833252,-0.06584473,-1.002539,78.0
1218,-0.16211796,0.4770298,0.49671936,-0.29417726,-0.118945315,-1.1883911,78.0
1219,-0.3438673,0.3950634,0.47747803,-0.29417726,-0.118945315,-1.1883911,78.0
1220,-0.3438673,0.3950634,0.47747803,-0.32922363,-0.18266602,-1.4082276,78.0
1221,-0.38573837,0.15118217,0.5415497,-0.32922363,-0.18266602,-1.4082276,78.0
1222,-0.38573837,0.15118217,0.5415497,-0.3175415,-0.23258057,-1.5696534,78.0
1223,-0.4493494,-0.07993317,0.6158142,-0.3175415,-0.23258057,-1.5696534,78.0
1224,-0.4493494,-0.07993317,0.6158142,-0.270813,-0.32178956,-1.7363892,78.0
1225,-0.41795063,-0.16699791,0.7250061,-0.270813,-0.32178956,-1.7363892,78.0
1226,-0.41795063,-0.16699791,0.7250061,-0.36427003,-0.4428589,-1.9679078,78.0
1227,-0.08664322,-0.2360897,0.9906769,-0.36427003,-0.4428589,-1.9679078,78.0
1228,-0.08664322,-0.2360897,0.9906769,-0.49489745,-0.49383545,-2.1909301,78.0
1229,0.3146572,-0.23165894,1.0908813,-0.49489745,-0.49383545,-2.1909301,78.0
1230,0.3146572,-0.23165894,1.0908813,-0.67650145,-0.4885254,-2.255713,78.0
1231,0.2774582,0.14541054,0.6042023,-0.67650145,-0.4885254,-2.255713,78.0
1232,0.2774582,0.14541054,0.6042023,-0.91014403,-0.4609131,-2.2992554,78.0
1233,-0.30527973,0.69366074,-0.15299988,-0.91014403,-0.4609131,-2.2992554,78.0
1234,-0.30527973,0.69366074,-0.15299988,-1.170337,-0.45560303,-2.3151855,78.0
1235,-1.1047344,0.89668846,-0.64826965,-1.170337,-0.45560303,-2.3151855,78.0
1236,-1.1047344,0.89668846,-0.64826965,-1.358313,-0.4609131,-2.2164185,78.0
1237,-1.8392439,0.6382618,-0.71395874,-1.358313,-0.4609131,-2.2164185,78.0
1238,-1.8392439,0.6382618,-0.71395874,-1.0970582,-0.49277344,-2.1134033,78.0
1239,-2.1350298,0.15714264,-0.40371704,-1.0970582,-0.49277344,-2.1134033,78.0
1240,-2.1350298,0.15714264,-0.40371704,-0.46728516,-0.53737795,-1.993396,78.0
1241,-1.8263464,-0.065826416,-0.08615112,-0.46728516,-0.53737795,-1.993396,78.0
1242,-1.8263464,-0.065826416,-0.08615112,-0.010620117,-0.6085327,-1.806482,78.0
1243,-1.23908,0.23760986,0.013168335,-0.010620117,-0.6085327,-1.806482,78.0
1244,-1.23908,0.23760986,0.013168335,-0.08283692,-0.5692383,-1.6461182,78.0
1245,-0.69746494,0.6443844,0.038711548,-0.08283692,-0.5692383,-1.6461182,78.0
1246,-0.69746494,0.6443844,0.038711548,-0.26337892,-0.5065796,-1.4570801,78.0
1247,-0.38968563,0.68608856,0.09869385,-0.26337892,-0.5065796,-1.4570801,78.0
1248,-0.38968563,0.68608856,0.09869385,-0.37701416,-0.4248047,-1.2818482,78.0
1249,-0.45065212,0.50857544,0.08039856,-0.37701416,-0.4248047,-1.2818482,78.0
1250,-0.45065212,0.50857544,0.08039856,-0.4364868,-0.34833986,-1.1342286,78.0
1251,-0.8029046,0.516222,-0.15864563,-0.4364868,-0.34833986,-1.1342286,78.0
1252,-0.8029046,0.516222,-0.15864563,-0.4364868,-0.34833986,-1.1342286,79.0
1253,-0.8029046,0.516222,-0.15864563,-0.47684327,-0.33028564,-1.0407715,79.0
1254,-1.2134418,0.75984,-0.4749298,-0.47684327,-0.33028564,-1.0407715,79.0
1255,-1.2134418,0.75984,-0.4749298,-0.64782715,-0.31329346,-0.9791748,79.0
1256,-1.5088882,0.9154396,-0.58909607,-0.64782715,-0.31329346,-0.9791748,79.0
1257,-1.5088882,0.9154396,-0.58909607,-0.72854006,-0.3079834,-0.9345703,79.0
1258,-1.5799618,0.7594032,-0.4781494,-0.72854006,-0.3079834,-0.9345703,79.0
1259,-1.5799618,0.7594032,-0.4781494,-0.544812,-0.32072756,-0.9154541,79.0
1260,-1.4632492,0.55986595,-0.31304932,-0.544812,-0.32072756,-0.9154541,79.0
1261,-1.4632492,0.55986595,-0.31304932,-0.35471192,-0.34727785,-0.88040775,79.0
1262,-1.2841735,0.65182304,-0.16053772,-0.35471192,-0.34727785,-0.88040775,79.0
1263,-1.2841735,0.65182304,-0.16053772,-0.3802002,-0.33134767,-0.8326172,79.0
1264,-1.1339431,0.9208603,0.011016846,-0.3802002,-0.33134767,-0.8326172,79.0
1265,-1.1339431,0.9208603,0.011016846,-0.5214478,-0.30479738,-0.75615233,79.0
1266,-1.0185313,1.0125427,0.18797302,-0.5214478,-0.30479738,-0.75615233,79.0
1267,-1.0185313,1.0125427,0.18797302,-0.6085327,-0.26019287,-0.6680054,79.0
1268,-0.9558773,0.85030556,0.3544464,-0.6085327,-0.26019287,-0.6680054,79.0
1269,-0.9558773,0.85030556,0.3544464,-0.54906005,-0.2442627,-0.5766724,79.0
1270,-0.94403553,0.66560745,0.5097046,-0.54906005,-0.2442627,-0.5766724,79.0
1271,-0.94403553,0.66560745,0.5097046,-0.44498292,-0.2177124,-0.46622315,79.0
1272,-0.9365516,0.60095406,0.60920715,-0.44498292,-0.2177124,-0.46622315,79.0
1273,-0.9365516,0.60095406,0.60920715,-0.38338622,-0.17416993,-0.3536499,79.0
1274,-0.8917949,0.6006851,0.63900757,-0.38338622,-0.17416993,-0.3536499,79.0
1275,-0.8917949,0.6006851,0.63900757,-0.32709962,-0.118945315,-0.23045655,79.0
1276,-0.7426107,0.57450485,0.6374359,-0.32709962,-0.118945315,-0.23045655,79.0
1277,-0.7426107,0.57450485,0.6374359,-0.25806886,-0.046728518,-0.10620117,79.0
1278,-0.47607088,0.50963974,0.6502991,-0.25806886,-0.046728518,-0.10620117,79.0
1279,-0.47607088,0.50963974,0.6502991,-0.2166504,0.040356446,-0.0180542,79.0
1280,-0.16452384,0.3784752,0.68447876,-0.2166504,0.040356446,-0.0180542,79.0
1281,-0.16452384,0.3784752,0.68447876,-0.22408448,0.13275146,0.020178223,79.0
1282,0.080319405,0.17853737,0.67497253,-0.22408448,0.13275146,0.020178223,79.0
1283,0.080319405,0.17853737,0.67497253,-0.21877442,0.21346436,0.04460449,79.0
1284,0.1813333,0.009113312,0.57440186,-0.21877442,0.21346436,0.04460449,79.0
1285,0.1813333,0.009113312,0.57440186,-0.19222413,0.2824951,0.0541626,79.0
1286,0.13704681,-0.12131119,0.4714203,-0.19222413,0.2824951,0.0541626,79.0
1287,0.13704681,-0.12131119,0.4714203,-0.2177124,0.29099122,0.078588866,79.0
1288,0.07474971,-0.42585754,0.6395111,-0.2177124,0.29099122,0.078588866,79.0
1289,0.07474971,-0.42585754,0.6395111,-0.17841797,0.18479005,0.06159668,79.0
1290,0.33273697,-1.135315,1.3188019,-0.17841797,0.18479005,0.06159668,79.0
1291,0.33273697,-1.135315,1.3188019,0.10938721,0.020178223,-0.012744141,79.0
1292,1.2220001,-1.977417,2.1269226,0.10938721,0.020178223,-0.012744141,79.0
1293,1.2220001,-1.977417,2.1269226,0.57242435,-0.23258057,-0.098767094,79.0
1294,2.374658,-1.8188839,2.1010284,0.57242435,-0.23258057,-0.098767094,79.0
1295,2.374658,-1.8188839,2.1010284,0.6117188,-0.09133301,0.06796875,79.0
1296,2.7469435,-0.47202682,0.8400421,0.6117188,-0.09133301,0.06796875,79.0
1297,2.7469435,-0.47202682,0.8400421,0.0053100586,0.29205322,0.5692383,79.0
1298,1.7633381,0.50743675,-0.8226166,0.0053100586,0.29205322,0.5692383,79.0
1299,1.7633381,0.50743675,-0.8226166,-0.18479005,0.48533937,0.813501,79.0
1300,0.3223405,0.31152725,-1.6624908,-0.18479005,0.48533937,0.813501,79.0
1301,0.3223405,0.31152725,-1.6624908,0.14549561,0.42374268,0.86341554,79.0
1302,-0.32827282,-0.3297825,-1.430481,0.14549561,0.42374268,0.86341554,79.0
1303,-0.32827282,-0.3297825,-1.430481,0.24638672,0.44073486,0.67225343,79.0
1304,-0.058394432,-0.6793537,-0.9230957,0.24638672,0.44073486,0.67225343,79.0
1305,-0.058394432,-0.6793537,-0.9230957,0.33878174,0.42692873,0.50445557,79.0
1306,0.44394588,-0.5448265,-0.8177948,0.33878174,0.42692873,0.50445557,79.0
1307,0.44394588,-0.5448265,-0.8177948,0.40250245,0.39294434,0.4800293,79.0
1308,0.6478567,-0.102329254,-1.0905609,0.40250245,0.39294434,0.4800293,79.0
1309,0.6478567,-0.102329254,-1.0905609,0.2347046,0.42799073,0.44498292,79.0
1310,0.46513605,0.17116547,-1.3580475,0.2347046,0.42799073,0.44498292,79.0
1311,0.46513605,0.17116547,-1.3580475,0.107263185,0.45135498,0.5331299,79.0
1312,0.029994488,0.08779907,-1.4316101,0.107263185,0.45135498,0.5331299,79.0
1313,0.029994488,0.08779907,-1.4316101,0.12319336,0.41949463,0.5766724,79.0
1314,-0.38356066,-0.0049800873,-1.3296051,0.12319336,0.41949463,0.5766724,79.0
1315,-0.38356066,-0.0049800873,-1.3296051,0.08071289,0.39613038,0.5564942,79.0
1316,-0.604578,0.11521721,-1.1108093,0.08071289,0.39613038,0.5564942,79.0
1317,-0.604578,0.11521721,-1.1108093,-0.0063720704,0.3536499,0.5384399,79.0
1318,-0.5352006,0.27022552,-0.86576843,-0.0063720704,0.3536499,0.5384399,79.0
1319,-0.5352006,0.27022552,-0.86576843,-0.058410645,0.32603762,0.47365722,79.0
1320,-0.22653723,0.28920364,-0.67370605,-0.058410645,0.32603762,0.47365722,79.0
1321,-0.22653723,0.28920364,-0.67370605,-0.029736329,0.32603762,0.4704712,79.0
1322,9.2315674E-4,0.24177551,-0.54841614,-0.029736329,0.32603762,0.4704712,79.0
1323,9.2315674E-4,0.24177551,-0.54841614,0.059472658,0.31435546,0.46409914,79.0
1324,0.010808945,0.27215576,-0.42521667,0.059472658,0.31435546,0.46409914,79.0
1325,0.010808945,0.27215576,-0.42521667,0.06903076,0.32285157,0.43011475,79.0
1326,0.048698425,0.3424797,-0.22492981,0.06903076,0.32285157,0.43011475,79.0
1327,0.048698425,0.3424797,-0.22492981,0.019116212,0.32816163,0.3791382,79.0
1328,0.33839703,0.31370544,0.04347229,0.019116212,0.32816163,0.3791382,79.0
1329,0.33839703,0.31370544,0.04347229,-0.010620117,0.3525879,0.33028564,79.0
1330,0.7179222,0.23591232,0.2885437,-0.010620117,0.3525879,0.33028564,79.0
1331,0.7179222,0.23591232,0.2885437,0.016992187,0.36745605,0.30161133,79.0
1332,0.91687965,0.25597763,0.5020752,0.016992187,0.36745605,0.30161133,79.0
1333,0.91687965,0.25597763,0.5020752,0.016992187,0.3791382,0.24320069,79.0
1334,1.0093336,0.3392315,0.7183075,0.016992187,0.3791382,0.24320069,79.0
1335,1.0093336,0.3392315,0.7183075,-0.053100586,0.37701416,0.1539917,79.0
1336,1.1104336,0.35450172,0.92918396,-0.053100586,0.37701416,0.1539917,79.0
1337,1.1104336,0.35450172,0.92918396,-0.14230958,0.35152587,0.04460449,79.0
1338,1.1208544,0.29690552,1.1080017,-0.14230958,0.35152587,0.04460449,79.0
1339,1.1208544,0.29690552,1.1080017,-0.18479005,0.27612305,-0.083898924,79.0
1340,0.9758949,0.21816444,1.2550049,-0.18479005,0.27612305,-0.083898924,79.0
1341,0.9758949,0.21816444,1.2550049,-0.22727051,0.18479005,-0.2262085,79.0
1342,0.68315744,0.14728546,1.3477936,-0.22727051,0.18479005,-0.2262085,79.0
1343,0.68315744,0.14728546,1.3477936,-0.24213867,0.08602295,-0.32816163,79.0
1344,0.29742908,0.14666176,1.418457,-0.24213867,0.08602295,-0.32816163,79.0
1345,0.29742908,0.14666176,1.418457,-0.21027832,-0.0063720704,-0.42799073,79.0
1346,0.12483311,0.13095093,1.6254272,-0.21027832,-0.0063720704,-0.42799073,79.0
1347,0.12483311,0.13095093,1.6254272,-0.11044922,-0.059472658,-0.5012695,79.0
1348,0.3014164,0.12462044,1.8136292,-0.11044922,-0.059472658,-0.5012695,79.0
1349,0.3014164,0.12462044,1.8136292,0.013806152,-0.040356446,-0.51188964,79.0
1350,0.42289543,0.39757156,1.4285126,0.013806152,-0.040356446,-0.51188964,79.0
1351,0.42289543,0.39757156,1.4285126,-0.09133301,0.04460449,-0.4704712,79.0
1352,0.07793999,0.79460907,0.39491272,-0.09133301,0.04460449,-0.4704712,79.0
1353,0.07793999,0.79460907,0.39491272,-0.33028564,0.15717773,-0.4088745,79.0
1354,-0.5883684,0.77843666,-0.5416565,-0.33028564,0.15717773,-0.4088745,79.0
1355,-0.5883684,0.77843666,-0.5416565,-0.26975098,0.15505372,-0.4322388,79.0
1356,-0.9737835,0.2191124,-0.83358765,-0.26975098,0.15505372,-0.4322388,79.0
1357,-0.9737835,0.2191124,-0.83358765,0.013806152,0.118945315,-0.4970215,79.0
1358,-0.9737835,0.2191124,-0.83358765,0.013806152,0.118945315,-0.4970215,79.0
1359,-0.9483504,-0.177248,-0.9060364,0.013806152,0.118945315,-0.4970215,79.0
1360,-0.9483504,-0.177248,-0.9060364,0.1529297,0.15823975,-0.54906005,79.0
1361,-0.95350456,0.10867691,-1.2849274,0.1529297,0.15823975,-0.54906005,79.0
1362,-0.95350456,0.10867691,-1.2849274,-0.035046387,0.18903808,-0.6754395,79.0
1363,-1.0760851,0.50551987,-1.7601318,-0.035046387,0.18903808,-0.6754395,79.0
1364,-1.0760851,0.50551987,-1.7601318,-0.3079834,0.16354981,-0.8326172,79.0
1365,-1.0569253,0.3685875,-1.8413239,-0.3079834,0.16354981,-0.8326172,79.0
1366,-1.0569253,0.3685875,-1.8413239,-0.42799073,0.08814698,-1.0768799,79.0
1367,-0.9336629,-0.16758156,-1.416153,-0.42799073,0.08814698,-1.0768799,79.0
1368,-0.9336629,-0.16758156,-1.416153,-0.41843262,-0.02442627,-1.2871583,79.0
1369,-0.8019476,-0.61151886,-0.72543335,-0.41843262,-0.02442627,-1.2871583,79.0
1370,-0.8019476,-0.61151886,-0.72543335,-0.37489015,-0.15930176,-1.4931885,79.0
1371,-0.69379187,-0.70326614,-0.19206238,-0.37489015,-0.15930176,-1.4931885,79.0
1372,-0.69379187,-0.70326614,-0.19206238,-0.48321533,-0.25806886,-1.5930176,79.0
1373,-0.76255274,-0.5658245,-0.019683838,-0.48321533,-0.25806886,-1.5930176,79.0
1374,-0.76255274,-0.5658245,-0.019683838,-0.55543214,-0.31223145,-1.6036377,79.0
1375,-1.036263,-0.5312729,0.0054473877,-0.55543214,-0.31223145,-1.6036377,79.0
1376,-1.036263,-0.5312729,0.0054473877,-0.5256958,-0.3536499,-1.4761963,79.0
1377,-1.4277163,-0.69125366,0.14985657,-0.5256958,-0.3536499,-1.4761963,79.0
1378,-1.4277163,-0.69125366,0.14985657,-0.4163086,-0.40356445,-1.2935303,79.0
1379,-1.8400979,-0.8240471,0.40322876,-0.4163086,-0.40356445,-1.2935303,79.0
1380,-1.8400979,-0.8240471,0.40322876,-0.33984375,-0.47790527,-1.1342286,79.0
1381,-2.1551716,-0.8124733,0.5828705,-0.33984375,-0.47790527,-1.1342286,79.0
1382,-2.1551716,-0.8124733,0.5828705,-0.27612305,-0.541626,-0.97280276,79.0
1383,-2.351359,-0.776762,0.6877136,-0.27612305,-0.541626,-0.97280276,79.0
1384,-2.351359,-0.776762,0.6877136,-0.12000733,-0.61915284,-0.7890747,79.0
1385,-2.4035969,-0.7902584,0.81196594,-0.12000733,-0.61915284,-0.7890747,79.0
1386,-2.4035969,-0.7902584,0.81196594,0.13062744,-0.71154785,-0.6074707,79.0
1387,-2.227089,-0.7353935,1.001297,0.13062744,-0.71154785,-0.6074707,79.0
1388,-2.227089,-0.7353935,1.001297,0.29630128,-0.7412842,-0.42374268,79.0
1389,-1.8241273,-0.53793716,1.2055359,0.29630128,-0.7412842,-0.42374268,79.0
1390,-1.8241273,-0.53793716,1.2055359,0.30479738,-0.7126099,-0.20284425,79.0
1391,-1.3628054,-0.34983253,1.326294,0.30479738,-0.7126099,-0.20284425,79.0
1392,-1.3628054,-0.34983253,1.326294,0.30161133,-0.6244629,0.027612304,79.0
1393,-0.9631448,-0.32884216,1.3656921,0.30161133,-0.6244629,0.027612304,79.0
1394,-0.9631448,-0.32884216,1.3656921,0.3355957,-0.5129517,0.27293703,79.0
1395,-0.5914631,-0.4068489,1.3617249,0.3355957,-0.5129517,0.27293703,79.0
1396,-0.5914631,-0.4068489,1.3617249,0.4354248,-0.37595215,0.5479981,79.0
1397,-0.30927885,-0.37361145,1.1607971,0.4354248,-0.37595215,0.5479981,79.0
1398,-0.30927885,-0.37361145,1.1607971,0.47471926,-0.29099122,0.7072998,79.0
1399,0.31972778,-0.051380157,0.9467926,0.47471926,-0.29099122,0.7072998,79.0
1400,0.31972778,-0.051380157,0.9467926,0.4067505,0.07115479,1.2128174,79.0
1401,0.5962974,0.116550446,0.64733887,0.4067505,0.07115479,1.2128174,79.0
1402,0.5962974,0.116550446,0.64733887,0.37807617,0.20921631,1.3753052,79.0
1403,1.2091057,0.17021751,0.35427856,0.37807617,0.20921631,1.3753052,79.0
1404,1.2091057,0.17021751,0.35427856,0.45135498,0.544812,1.7353271,79.0
1405,1.4614985,0.041679382,0.21159363,0.45135498,0.544812,1.7353271,79.0
1406,1.4614985,0.041679382,0.21159363,0.5129517,0.61702883,1.8054199,79.0
1407,2.4065156,-0.062408447,-0.03729248,0.5129517,0.61702883,1.8054199,79.0
1408,2.4065156,-0.062408447,-0.03729248,0.44073486,0.64995116,1.9625977,79.0
1409,2.5397754,0.052368164,-0.21522522,0.44073486,0.64995116,1.9625977,79.0
1410,2.5397754,0.052368164,-0.21522522,0.31966552,0.5936646,1.9732178,79.0
1411,2.8072844,0.13806152,-0.60466003,0.31966552,0.5936646,1.9732178,79.0
1412,2.8072844,0.13806152,-0.60466003,0.35471192,0.3430298,1.8521484,79.0
1413,2.466238,0.019176483,-0.67559814,0.35471192,0.3430298,1.8521484,79.0
1414,2.466238,0.019176483,-0.67559814,0.5341919,0.2538208,1.806482,79.0
1415,1.7903123,0.06941795,-1.6154633,0.5341919,0.2538208,1.806482,79.0
1416,1.7903123,0.06941795,-1.6154633,0.76677245,0.0021240234,1.5696534,79.0
1417,1.517003,0.1252861,-1.9308777,0.76677245,0.0021240234,1.5696534,79.0
1418,1.517003,0.1252861,-1.9308777,0.7943848,-0.14655761,1.4305298,79.0
1419,1.4112587,0.60760117,-2.9924011,0.7943848,-0.14655761,1.4305298,79.0
1420,1.4112587,0.60760117,-2.9924011,0.4354248,-0.79119873,0.88040775,79.0
1421,1.290225,0.62378883,-2.6231232,0.4354248,-0.79119873,0.88040775,79.0
1422,1.290225,0.62378883,-2.6231232,0.26444092,-1.0333375,0.5851685,79.0
1423,1.6572046,0.75564766,-2.056137,0.26444092,-1.0333375,0.5851685,79.0
1424,1.6572046,0.75564766,-2.056137,-0.045666505,-1.3816773,-0.039294433,79.0
1425,2.2432323,0.76872635,-1.4321747,-0.045666505,-1.3816773,-0.039294433,79.0
1426,2.2432323,0.76872635,-1.4321747,-0.3430298,-1.357251,-0.37382814,79.0
1427,1.9214778,0.82250214,-1.6754913,-0.3430298,-1.357251,-0.37382814,79.0
1428,1.9214778,0.82250214,-1.6754913,-0.107263185,-1.1172364,-0.52675784,79.0
1429,0.9113035,0.8457947,-1.727005,-0.107263185,-1.1172364,-0.52675784,79.0
1430,0.9113035,0.8457947,-1.727005,-0.014868164,-1.080066,-0.5171997,79.0
1431,-0.5444069,1.3706169,-2.1278076,-0.014868164,-1.080066,-0.5171997,79.0
1432,-0.5444069,1.3706169,-2.1278076,-0.24744873,-0.98873293,-0.4078125,79.0
1433,-1.1721344,1.8139133,-2.0025635,-0.24744873,-0.98873293,-0.4078125,79.0
1434,-1.1721344,1.8139133,-2.0025635,-0.8442993,-0.8995239,-0.39082032,79.0
1435,-0.8911009,1.648346,-1.3592529,-0.8442993,-0.8995239,-0.39082032,79.0
1436,-0.8911009,1.648346,-1.3592529,-1.3370727,-0.85598147,-0.45666504,79.0
1437,-0.29509497,0.9922123,-0.52882385,-1.3370727,-0.85598147,-0.45666504,79.0
1438,-0.29509497,0.9922123,-0.52882385,-1.3137085,-0.8092529,-0.5713623,79.0
1439,0.44925117,-0.23457527,0.5787506,-1.3137085,-0.8092529,-0.5713623,79.0
1440,0.44925117,-0.23457527,0.5787506,-0.5171997,-0.7582764,-0.80181885,79.0
1441,0.44256735,-0.42658806,0.8060913,-0.5171997,-0.7582764,-0.80181885,79.0
1442,0.44256735,-0.42658806,0.8060913,-0.35577393,-0.75721437,-0.81668705,79.0
1443,0.56788445,-0.4529419,1.0394897,-0.35577393,-0.75721437,-0.81668705,79.0
1444,0.56788445,-0.4529419,1.0394897,-0.39400634,-0.70942384,-0.8050049,79.0
1445,0.36797953,-0.4431877,1.0927429,-0.39400634,-0.70942384,-0.8050049,79.0
1446,0.36797953,-0.4431877,1.0927429,-0.58198243,-0.721106,-0.7126099,79.0
1447,-0.3921032,-0.7355194,1.4634705,-0.58198243,-0.721106,-0.7126099,79.0
1448,-0.3921032,-0.7355194,1.4634705,-0.6924316,-0.7412842,-0.61702883,79.0
1449,-1.4379501,-0.96136475,2.2010345,-0.6924316,-0.7412842,-0.61702883,79.0
1450,-1.4379501,-0.96136475,2.2010345,-0.7858887,-0.6796875,-0.6956177,79.0
1451,-1.5998354,-1.3004398,2.7683258,-0.7858887,-0.6796875,-0.6956177,79.0
1452,-1.5998354,-1.3004398,2.7683258,-0.7327881,-0.57561034,-0.8028809,79.0
1453,-0.5204692,-1.8467731,2.859024,-0.7327881,-0.57561034,-0.8028809,79.0
1454,-0.5204692,-1.8467731,2.859024,-0.52675784,-0.5787964,-0.86978763,79.0
1455,0.6341615,-1.9075699,2.7433624,-0.52675784,-0.5787964,-0.86978763,79.0
1456,0.6341615,-1.9075699,2.7433624,-0.54693604,-0.52888185,-0.9388184,79.0
1457,0.99514675,-1.4434013,2.5947113,-0.54693604,-0.52888185,-0.9388184,79.0
1458,0.99514675,-1.4434013,2.5947113,-0.8379273,-0.5511841,-0.92926025,79.0
1459,1.1056757,-1.1300869,2.3243866,-0.8379273,-0.5511841,-0.92926025,79.0
1460,1.1056757,-1.1300869,2.3243866,-0.9897949,-0.544812,-0.9388184,79.0
1461,0.87256527,-0.85508347,1.9103088,-0.9897949,-0.544812,-0.9388184,79.0
1462,0.87256527,-0.85508347,1.9103088,-0.8750977,-0.38444826,-0.63826907,79.0
1463,-0.15429163,-0.35463524,1.202591,-0.8750977,-0.38444826,-0.63826907,79.0
1464,-0.15429163,-0.35463524,1.202591,-0.6042847,-0.3079834,-0.38551027,79.0
1465,-0.89367247,0.21340942,0.20791626,-0.6042847,-0.3079834,-0.38551027,79.0
1466,-0.89367247,0.21340942,0.20791626,-0.28568116,-0.1720459,-0.2516968,79.0
1467,-1.1811123,0.7429085,-0.5856781,-0.28568116,-0.1720459,-0.2516968,79.0
1468,-1.1811123,0.7429085,-0.5856781,-0.20178223,-0.014868164,-0.016992187,79.0
1469,-1.3832932,1.0902252,-0.9825592,-0.20178223,-0.014868164,-0.016992187,79.0
1470,-1.3832932,1.0902252,-0.9825592,-0.07434082,0.06796875,0.046728518,79.0
1471,-1.0649233,1.1909409,-1.1971588,-0.07434082,0.06796875,0.046728518,79.0
1472,-1.0649233,1.1909409,-1.1971588,0.059472658,0.13168946,0.04460449,79.0
1473,-0.36082554,1.1063404,-1.3179321,0.059472658,0.13168946,0.04460449,79.0
1474,-0.36082554,1.1063404,-1.3179321,0.06265869,0.16354981,-0.011682129,79.0
1475,-0.36082554,1.1063404,-1.3179321,0.06265869,0.16354981,-0.011682129,80.0
1476,0.16945744,0.9843769,-1.2918549,0.06265869,0.16354981,-0.011682129,80.0
1477,0.16945744,0.9843769,-1.2918549,0.052038576,0.17416993,-0.09664307,80.0
1478,0.25413275,0.9283829,-1.2048035,0.052038576,0.17416993,-0.09664307,80.0
1479,0.25413275,0.9283829,-1.2048035,-0.016992187,0.24001466,-0.15505372,80.0
1480,-0.11415005,0.91832733,-1.1422119,-0.016992187,0.24001466,-0.15505372,80.0
1481,-0.11415005,0.91832733,-1.1422119,-0.08602295,0.31329346,-0.14337158,80.0
1482,-0.6437125,0.898468,-1.1937408,-0.08602295,0.31329346,-0.14337158,80.0
1483,-0.6437125,0.898468,-1.1937408,-0.20284425,0.37382814,-0.1263794,80.0
1484,-1.0807414,0.8453007,-1.2797089,-0.20284425,0.37382814,-0.1263794,80.0
1485,-1.0807414,0.8453007,-1.2797089,-0.3525879,0.42161867,-0.14868164,80.0
1486,-1.3809872,0.73426056,-1.1933441,-0.3525879,0.42161867,-0.14868164,80.0
1487,-1.3809872,0.73426056,-1.1933441,-0.44710693,0.4364868,-0.18691407,80.0
1488,-1.567729,0.5653019,-0.89334106,-0.44710693,0.4364868,-0.18691407,80.0
1489,-1.567729,0.5653019,-0.89334106,-0.4694092,0.45029297,-0.22514649,80.0
1490,-1.6245933,0.3750801,-0.5082092,-0.4694092,0.45029297,-0.22514649,80.0
1491,-1.6245933,0.3750801,-0.5082092,-0.41949463,0.44923097,-0.2793091,80.0
1492,-1.5033002,0.17887306,-0.19636536,-0.41949463,0.44923097,-0.2793091,80.0
1493,-1.5033002,0.17887306,-0.19636536,-0.3058594,0.4163086,-0.33878174,80.0
1494,-1.2502842,-0.021268845,0.060928345,-0.3058594,0.4163086,-0.33878174,80.0
1495,-1.2502842,-0.021268845,0.060928345,-0.14124756,0.38232422,-0.38338622,80.0
1496,-0.9524491,-0.13899994,0.40805054,-0.14124756,0.38232422,-0.38338622,80.0
1497,-0.9524491,-0.13899994,0.40805054,-0.078588866,0.3695801,-0.39613038,80.0
1498,-0.65009403,-0.14771271,0.8009186,-0.078588866,0.3695801,-0.39613038,80.0
1499,-0.65009403,-0.14771271,0.8009186,-0.1359375,0.45560303,-0.4088745,80.0
1500,-0.31640077,-0.20918655,1.145752,-0.1359375,0.45560303,-0.4088745,80.0
1501,-0.31640077,-0.20918655,1.145752,-0.20921631,0.55968016,-0.3462158,80.0
1502,0.045316696,-0.421463,1.3770142,-0.20921631,0.55968016,-0.3462158,80.0
1503,0.045316696,-0.421463,1.3770142,-0.2166504,0.6446411,-0.29099122,80.0
1504,0.4404037,-0.63503456,1.430542,-0.2166504,0.6446411,-0.29099122,80.0
1505,0.4404037,-0.63503456,1.430542,-0.21240234,0.72323,-0.2527588,80.0
1506,0.8069372,-0.771286,1.385788,-0.21240234,0.72323,-0.2527588,80.0
1507,0.8069372,-0.771286,1.385788,-0.21877442,0.7699585,-0.18479005,80.0
1508,1.0073297,-0.87911224,1.342865,-0.21877442,0.7699585,-0.18479005,80.0
1509,1.0073297,-0.87911224,1.342865,-0.2548828,0.74447024,-0.13806152,80.0
1510,0.9092331,-0.94033813,1.351181,-0.2548828,0.74447024,-0.13806152,80.0
1511,0.9092331,-0.94033813,1.351181,-0.4428589,0.63826907,-0.07540283,80.0
1512,0.6899109,-0.7979355,1.1398773,-0.4428589,0.63826907,-0.07540283,80.0
1513,0.6899109,-0.7979355,1.1398773,-0.5012695,0.55968016,-0.06159668,80.0
1514,0.5985718,-0.85894203,1.0345306,-0.5012695,0.55968016,-0.06159668,80.0
1515,0.5985718,-0.85894203,1.0345306,-0.51826173,0.31435546,-0.14761963,80.0
1516,0.7949953,-0.932003,1.0454102,-0.51826173,0.31435546,-0.14761963,80.0
1517,0.7949953,-0.932003,1.0454102,-0.4885254,0.26550293,-0.16036378,80.0
1518,0.6501808,-0.778841,0.7243347,-0.4885254,0.26550293,-0.16036378,80.0
1519,0.6501808,-0.778841,0.7243347,-0.40037844,0.35895997,0.029736329,80.0
1520,0.09877014,-0.48964882,-0.10513306,-0.40037844,0.35895997,0.029736329,80.0
1521,0.09877014,-0.48964882,-0.10513306,-0.019116212,0.37489015,0.25063476,80.0
1522,-0.258008,-0.14726067,-0.8811188,-0.019116212,0.37489015,0.25063476,80.0
1523,-0.258008,-0.14726067,-0.8811188,0.2899292,0.3727661,0.3971924,80.0
1524,-0.21502447,0.044153214,-1.1699371,0.2899292,0.3727661,0.3971924,80.0
1525,-0.21502447,0.044153214,-1.1699371,0.35789797,0.32178956,0.3802002,80.0
1526,0.22113228,-0.008806229,-1.1711578,0.35789797,0.32178956,0.3802002,80.0
1527,0.22113228,-0.008806229,-1.1711578,0.4248047,0.14124756,0.25913087,80.0
1528,0.7877946,0.03256607,-1.1258087,0.4248047,0.14124756,0.25913087,80.0
1529,0.7877946,0.03256607,-1.1258087,0.33134767,-0.04460449,0.14868164,80.0
1530,0.9644885,0.2591591,-1.1163177,0.33134767,-0.04460449,0.14868164,80.0
