,accx,accy,accz,gyrox,gyroy,gyroz,heart rate
0,walk,walk,walk,walk,walk,walk,walk
1,2.2445436,17.40752,136.87318,0.0,0.0,0.0,0.0
2,2.2445436,17.40752,136.87318,-0.0541626,0.043542482,-0.095581055,0.0
3,1.6836964,13.867422,109.172035,-0.0541626,0.043542482,-0.095581055,0.0
4,1.6836964,13.867422,109.172035,-0.2262085,0.10620117,-0.06690674,0.0
5,1.2362638,10.901152,87.13361,-0.2262085,0.10620117,-0.06690674,0.0
6,1.2362638,10.901152,87.13361,0.0021240234,0.025488282,-0.007434082,0.0
7,0.96338844,8.589281,69.68091,0.0021240234,0.025488282,-0.007434082,0.0
8,0.96338844,8.589281,69.68091,0.0361084,0.0031860352,0.035046387,0.0
9,0.8393142,6.969227,55.808678,0.0361084,0.0031860352,0.035046387,0.0
10,0.8393142,6.969227,55.808678,0.004248047,0.019116212,0.08283692,0.0
11,0.72573614,5.7317543,44.693176,0.004248047,0.019116212,0.08283692,0.0
12,0.72573614,5.7317543,44.693176,-0.012744141,0.028674318,0.04885254,0.0
13,0.57518125,4.6655807,35.73944,-0.012744141,0.028674318,0.04885254,0.0
14,0.57518125,4.6655807,35.73944,-0.019116212,0.019116212,0.009558106,0.0
15,0.4146006,3.7062683,28.587387,-0.019116212,0.019116212,0.009558106,0.0
16,0.4146006,3.7062683,28.587387,-0.07327881,0.023364259,-0.019116212,0.0
17,0.4146006,3.7062683,28.587387,-0.07327881,0.023364259,-0.019116212,101.0
18,0.29347253,2.8501587,22.932907,-0.07327881,0.023364259,-0.019116212,101.0
19,0.29347253,2.8501587,22.932907,-0.08602295,0.011682129,-0.025488282,101.0
20,0.20788598,2.1568737,18.419434,-0.08602295,0.011682129,-0.025488282,101.0
21,0.20788598,2.1568737,18.419434,0.015930176,-0.0053100586,0.0010620117,101.0
22,0.17902851,1.7212391,14.755096,0.015930176,-0.0053100586,0.0010620117,101.0
23,0.17902851,1.7212391,14.755096,0.03717041,-0.015930176,-0.023364259,101.0
24,0.1631813,1.5050678,11.774673,0.03717041,-0.015930176,-0.023364259,101.0
25,0.1631813,1.5050678,11.774673,0.025488282,-0.027612304,-0.053100586,101.0
26,0.14807439,1.3100605,9.408936,0.025488282,-0.027612304,-0.053100586,101.0
27,0.14807439,1.3100605,9.408936,-0.050976563,0.0010620117,-0.0541626,101.0
28,0.1271267,1.0160408,7.5718384,-0.050976563,0.0010620117,-0.0541626,101.0
29,0.1271267,1.0160408,7.5718384,-0.09664307,0.020178223,-0.06159668,101.0
30,0.07384491,0.70645905,6.1204224,-0.09664307,0.020178223,-0.06159668,101.0
31,0.07384491,0.70645905,6.1204224,-0.012744141,0.009558106,-0.04885254,101.0
32,0.016473293,0.5084038,4.934616,-0.012744141,0.009558106,-0.04885254,101.0
33,0.016473293,0.5084038,4.934616,-0.021240234,0.010620117,-0.06903076,101.0
34,-0.032024145,0.43372345,3.9153137,-0.021240234,0.010620117,-0.06903076,101.0
35,-0.032024145,0.43372345,3.9153137,-0.0361084,0.015930176,-0.081774905,101.0
36,-0.0788908,0.32872772,3.0112305,-0.0361084,0.015930176,-0.081774905,101.0
37,-0.0788908,0.32872772,3.0112305,-0.0053100586,0.032922365,0.06159668,101.0
38,-0.13510966,0.20939255,2.3518372,-0.0053100586,0.032922365,0.06159668,101.0
39,-0.13510966,0.20939255,2.3518372,0.10089111,0.0021240234,0.050976563,101.0
40,-0.08996034,0.16150665,2.0861206,0.10089111,0.0021240234,0.050976563,101.0
41,-0.08996034,0.16150665,2.0861206,-0.04141846,0.07434082,-0.0053100586,101.0
42,-0.08996034,0.16150665,2.0861206,0.2793091,0.008496094,0.10620117,101.0
43,0.0065596104,0.23088837,1.8600769,0.2793091,0.008496094,0.10620117,101.0
44,-0.026746988,0.36006546,1.5183563,0.2793091,0.008496094,0.10620117,101.0
45,-0.026746988,0.36006546,1.5183563,0.0,0.118945315,0.032922365,101.0
46,-0.06943226,0.44560814,1.1539001,0.0,0.118945315,0.032922365,101.0
47,-0.06943226,0.44560814,1.1539001,-0.118945315,0.15717773,-0.014868164,101.0
48,-0.120340824,0.3181305,0.81274414,-0.118945315,0.15717773,-0.014868164,101.0
49,-0.120340824,0.3181305,0.81274414,-0.118945315,0.14655761,-0.029736329,101.0
50,-0.13534737,0.08259201,0.54907227,-0.118945315,0.14655761,-0.029736329,101.0
51,-0.13534737,0.08259201,0.54907227,-0.06796875,0.12000733,-0.023364259,101.0
52,-0.12337804,-0.061613083,0.34492493,-0.06796875,0.12000733,-0.023364259,101.0
53,-0.12337804,-0.061613083,0.34492493,0.06903076,0.06796875,0.0021240234,101.0
54,-0.09444213,-0.02371788,0.16821289,0.06903076,0.06796875,0.0021240234,101.0
55,-0.09444213,-0.02371788,0.16821289,0.124255374,0.02442627,0.020178223,101.0
56,-0.026164055,0.08611679,0.069229126,0.124255374,0.02442627,0.020178223,101.0
57,-0.026164055,0.08611679,0.069229126,0.10620117,0.013806152,0.0180542,101.0
58,0.046744585,0.11582947,0.08409119,0.10620117,0.013806152,0.0180542,101.0
59,0.046744585,0.11582947,0.08409119,0.06796875,0.02442627,0.009558106,101.0
60,0.056157827,0.03559494,0.11732483,0.06796875,0.02442627,0.009558106,101.0
61,0.056157827,0.03559494,0.11732483,0.04885254,0.04141846,0.020178223,101.0
62,0.014469624,-0.08261871,0.09043884,0.04885254,0.04141846,0.020178223,101.0
63,0.014469624,-0.08261871,0.09043884,0.12000733,0.016992187,0.05628662,101.0
64,-0.07828021,-0.09869957,0.016082764,0.12000733,0.016992187,0.05628662,101.0
65,-0.07828021,-0.09869957,0.016082764,0.14549561,-0.0063720704,0.083898924,101.0
66,-0.17939663,-0.021781921,-0.023468018,0.14549561,-0.0063720704,0.083898924,101.0
67,-0.17939663,-0.021781921,-0.023468018,0.121069334,-0.020178223,0.10620117,101.0
68,-0.26708913,0.001750946,0.001876831,0.121069334,-0.020178223,0.10620117,101.0
69,-0.26708913,0.001750946,0.001876831,0.14655761,-0.0361084,0.14124756,101.0
70,-0.30131793,-0.048368454,0.03147888,0.14655761,-0.0361084,0.14124756,101.0
71,-0.30131793,-0.048368454,0.03147888,0.25063476,-0.058410645,0.19222413,101.0
72,-0.28084922,-0.051000595,-0.017944336,0.25063476,-0.058410645,0.19222413,101.0
73,-0.28084922,-0.051000595,-0.017944336,0.33878174,-0.098767094,0.2357666,101.0
74,-0.28847337,0.12234688,-0.12095642,0.33878174,-0.098767094,0.2357666,101.0
75,-0.28847337,0.12234688,-0.12095642,0.27399904,-0.08814698,0.26656494,101.0
76,-0.3397386,0.3400898,-0.17814636,0.27399904,-0.08814698,0.26656494,101.0
77,-0.3397386,0.3400898,-0.17814636,0.18903808,-0.093457036,0.28780517,101.0
78,-0.38202035,0.38436508,-0.13859558,0.18903808,-0.093457036,0.28780517,101.0
79,-0.38202035,0.38436508,-0.13859558,0.18585205,-0.13381349,0.30267334,101.0
80,-0.3220836,0.2322731,-0.033203125,0.18585205,-0.13381349,0.30267334,101.0
81,-0.3220836,0.2322731,-0.033203125,0.23789063,-0.16567384,0.30267334,101.0
82,-0.1243906,0.087430954,0.039001465,0.23789063,-0.16567384,0.30267334,101.0
83,-0.1243906,0.087430954,0.039001465,0.2793091,-0.15930176,0.30479738,101.0
84,0.1416496,0.13680267,-0.008605957,0.2793091,-0.15930176,0.30479738,101.0
85,0.1416496,0.13680267,-0.008605957,0.23895264,-0.098767094,0.28355715,101.0
86,0.3400408,0.29238892,-0.15020752,0.23895264,-0.098767094,0.28355715,101.0
87,0.3400408,0.29238892,-0.15020752,0.20284425,-0.070092775,0.271875,101.0
88,0.4075917,0.33836555,-0.2509308,0.20284425,-0.070092775,0.271875,101.0
89,0.4075917,0.33836555,-0.2509308,0.18797608,-0.06796875,0.2442627,101.0
90,0.43724275,0.22036362,-0.16854858,0.18797608,-0.06796875,0.2442627,101.0
91,0.43724275,0.22036362,-0.16854858,0.21983643,-0.10195313,0.23258057,101.0
92,0.55976725,0.10758972,0.06654358,0.21983643,-0.10195313,0.23258057,101.0
93,0.55976725,0.10758972,0.06654358,0.24851075,-0.11469727,0.24107666,101.0
94,0.7462146,0.18332672,0.24708557,0.24851075,-0.11469727,0.24107666,101.0
95,0.7462146,0.18332672,0.24708557,0.30161133,-0.118945315,0.28780517,101.0
96,0.8207145,0.4052906,0.2580719,0.30161133,-0.118945315,0.28780517,101.0
97,0.8207145,0.4052906,0.2580719,0.3334717,-0.095581055,0.33771974,101.0
98,0.7286663,0.66023064,0.15010071,0.3334717,-0.095581055,0.33771974,101.0
99,0.7286663,0.66023064,0.15010071,0.2888672,-0.025488282,0.34727785,101.0
100,0.5894151,0.8962383,-0.029266357,0.2888672,-0.025488282,0.34727785,101.0
101,0.5894151,0.8962383,-0.029266357,0.10513916,0.118945315,0.35895997,101.0
102,0.5376332,0.9573097,-0.22216797,0.10513916,0.118945315,0.35895997,101.0
103,0.5376332,0.9573097,-0.22216797,0.026550293,0.21558838,0.34833986,101.0
104,0.5755291,0.8122101,-0.4122467,0.026550293,0.21558838,0.34833986,101.0
105,0.5755291,0.8122101,-0.4122467,0.13168946,0.22089843,0.38551027,101.0
106,0.4919176,0.6305294,-0.57351685,0.13168946,0.22089843,0.38551027,101.0
107,0.4919176,0.6305294,-0.57351685,0.16142578,0.16354981,0.42055663,101.0
108,0.22562647,0.49977303,-0.56266785,0.16142578,0.16354981,0.42055663,101.0
109,0.22562647,0.49977303,-0.56266785,0.2442627,0.059472658,0.39082032,101.0
110,-0.03920102,0.45396805,-0.40361023,0.2442627,0.059472658,0.39082032,101.0
111,-0.03920102,0.45396805,-0.40361023,0.40037844,-0.008496094,0.41949463,101.0
112,-0.16937351,0.5198765,-0.3522644,0.40037844,-0.008496094,0.41949463,101.0
113,-0.16937351,0.5198765,-0.3522644,0.38444826,-0.043542482,0.4088745,101.0
114,-0.12003255,0.6060753,-0.48490906,0.38444826,-0.043542482,0.4088745,101.0
115,-0.12003255,0.6060753,-0.48490906,0.38232422,-0.16673584,0.3175415,101.0
116,0.1009953,0.6375828,-0.5386505,0.38232422,-0.16673584,0.3175415,101.0
117,0.1009953,0.6375828,-0.5386505,0.27399904,-0.27506104,0.16779785,101.0
118,0.34778833,0.6151924,-0.3932953,0.27399904,-0.27506104,0.16779785,101.0
119,0.34778833,0.6151924,-0.3932953,0.039294433,-0.2888672,0.04885254,101.0
120,0.4661579,0.57782173,-0.2727356,0.039294433,-0.2888672,0.04885254,101.0
121,0.4661579,0.57782173,-0.2727356,-0.24851075,-0.2803711,-0.059472658,101.0
122,0.43966222,0.5494404,-0.3718109,-0.24851075,-0.2803711,-0.059472658,101.0
123,0.43966222,0.5494404,-0.3718109,-0.40993652,-0.36639404,-0.12956543,101.0
124,0.33638573,0.5366707,-0.5406494,-0.40993652,-0.36639404,-0.12956543,101.0
125,0.33638573,0.5366707,-0.5406494,-0.544812,-0.4704712,-0.24744873,101.0
126,0.265239,0.5133457,-0.5287781,-0.544812,-0.4704712,-0.24744873,101.0
127,0.265239,0.5133457,-0.5287781,-0.75509036,-0.5511841,-0.3419678,101.0
128,0.23069715,0.33272362,-0.2779541,-0.75509036,-0.5511841,-0.3419678,101.0
129,0.23069715,0.33272362,-0.2779541,-0.95793456,-0.632959,-0.4619751,101.0
130,0.19443321,-0.005218506,0.05305481,-0.95793456,-0.632959,-0.4619751,101.0
131,0.19443321,-0.005218506,0.05305481,-1.2457398,-0.67331547,-0.6180908,101.0
132,0.22811723,-0.39183235,0.2625122,-1.2457398,-0.67331547,-0.6180908,101.0
133,0.22811723,-0.39183235,0.2625122,-1.6004517,-0.632959,-0.7954468,101.0
134,0.33176136,-0.8178234,0.24575806,-1.6004517,-0.632959,-0.7954468,101.0
135,0.33176136,-0.8178234,0.24575806,-1.9806519,-0.62340087,-1.0067872,101.0
136,0.4025917,-1.2353382,0.053863525,-1.9806519,-0.62340087,-1.0067872,101.0
137,0.4025917,-1.2353382,0.053863525,-2.529712,-0.65632325,-1.2213135,101.0
138,0.37038898,-1.6428604,-0.09022522,-2.529712,-0.65632325,-1.2213135,101.0
139,0.37038898,-1.6428604,-0.09022522,-3.1987793,-0.721106,-1.4337158,101.0
140,0.31945562,-2.2459526,-0.033920288,-3.1987793,-0.721106,-1.4337158,101.0
141,0.31945562,-2.2459526,-0.033920288,-3.8582885,-0.73597413,-1.6238159,101.0
142,0.43314028,-3.1139984,0.10771179,-3.8582885,-0.73597413,-1.6238159,101.0
143,0.43314028,-3.1139984,0.10771179,-4.331946,-0.7720825,-1.8447144,101.0
144,0.43314028,-3.1139984,0.10771179,-4.331946,-0.7720825,-1.8447144,102.0
145,0.73141193,-3.9079838,0.11668396,-4.331946,-0.7720825,-1.8447144,102.0
146,0.73141193,-3.9079838,0.11668396,-4.3924804,-0.76358646,-2.1410158,102.0
147,1.0548925,-4.380636,-0.16464233,-4.3924804,-0.76358646,-2.1410158,102.0
148,1.0548925,-4.380636,-0.16464233,-4.265039,-0.7858887,-2.441565,102.0
149,1.1504083,-4.4748096,-0.6832886,-4.265039,-0.7858887,-2.441565,102.0
150,1.1504083,-4.4748096,-0.6832886,-4.1482177,-0.8612915,-2.7644165,102.0
151,1.1259785,-4.3463154,-1.1605072,-4.1482177,-0.8612915,-2.7644165,102.0
152,1.1259785,-4.3463154,-1.1605072,-4.077063,-0.88359374,-3.1191285,102.0
153,1.4041643,-4.239271,-1.4626007,-4.077063,-0.88359374,-3.1191285,102.0
154,1.4041643,-4.239271,-1.4626007,-4.3223877,-0.8952759,-3.5503051,102.0
155,2.0856729,-4.1193104,-1.7175751,-4.3223877,-0.8952759,-3.5503051,102.0
156,2.0856729,-4.1193104,-1.7175751,-4.896936,-0.9324463,-3.9921021,102.0
157,2.9580154,-3.9769173,-1.9777374,-4.896936,-0.9324463,-3.9921021,102.0
158,2.9580154,-3.9769173,-1.9777374,-5.3546634,-0.9281983,-4.444519,102.0
159,3.9226503,-4.1393347,-2.0386353,-5.3546634,-0.9281983,-4.444519,102.0
160,3.9226503,-4.1393347,-2.0386353,-5.25802,-0.9430664,-4.792859,102.0
161,4.965086,-4.5261774,-1.915802,-5.25802,-0.9430664,-4.792859,102.0
162,4.965086,-4.5261774,-1.915802,-4.8417115,-0.9218262,-4.9298587,102.0
163,5.916832,-4.572212,-1.9011841,-4.8417115,-0.9218262,-4.9298587,102.0
164,5.916832,-4.572212,-1.9011841,-4.404163,-0.76464844,-4.9415407,102.0
165,6.489313,-4.275653,-2.0266266,-4.404163,-0.76464844,-4.9415407,102.0
166,6.489313,-4.275653,-2.0266266,-3.617212,-0.41418457,-4.7525024,102.0
167,6.3130083,-4.0414085,-2.0259094,-3.617212,-0.41418457,-4.7525024,102.0
168,6.3130083,-4.0414085,-2.0259094,-2.078357,-0.1359375,-4.450891,102.0
169,5.546219,-3.114377,-2.067337,-2.078357,-0.1359375,-4.450891,102.0
170,5.546219,-3.114377,-2.067337,-1.0970582,-0.1996582,-4.8077273,102.0
171,5.332226,-1.4938326,-2.0336914,-1.0970582,-0.1996582,-4.8077273,102.0
172,5.332226,-1.4938326,-2.0336914,-1.1352905,0.13381349,-2.8812377,102.0
173,5.1006317,-0.283494,-1.7605133,-1.1352905,0.13381349,-2.8812377,102.0
174,5.1006317,-0.283494,-1.7605133,-1.8786987,0.18797608,-2.8706176,102.0
175,3.4476929,0.14355373,-1.5661621,-1.8786987,0.18797608,-2.8706176,102.0
176,3.4476929,0.14355373,-1.5661621,-2.2950075,0.0637207,-1.9572877,102.0
177,1.3293209,0.14918137,-1.469574,-2.2950075,0.0637207,-1.9572877,102.0
178,1.3293209,0.14918137,-1.469574,-2.3364258,0.015930176,-1.3200806,102.0
179,-0.50694084,0.37113953,-1.4025269,-2.3364258,0.015930176,-1.3200806,102.0
180,-0.50694084,0.37113953,-1.4025269,-2.4776733,-0.15823975,-0.77102053,102.0
181,-1.8670025,0.88861084,-1.5003052,-2.4776733,-0.15823975,-0.77102053,102.0
182,-1.8670025,0.88861084,-1.5003052,-2.7431762,-0.1720459,-0.29099122,102.0
183,-2.333006,1.0559816,-1.7938538,-2.7431762,-0.1720459,-0.29099122,102.0
184,-2.333006,1.0559816,-1.7938538,-2.8281372,-0.2984253,-0.03079834,102.0
185,-1.7250233,0.8567972,-2.0865479,-2.8281372,-0.2984253,-0.03079834,102.0
186,-1.7250233,0.8567972,-2.0865479,-3.3718872,-0.21346436,0.20390625,102.0
187,-0.540102,0.6338873,-2.3330078,-3.3718872,-0.21346436,0.20390625,102.0
188,-0.540102,0.6338873,-2.3330078,-4.4816895,-0.038232423,0.38338622,102.0
189,0.26657486,0.34047127,-2.773056,-4.4816895,-0.038232423,0.38338622,102.0
190,0.26657486,0.34047127,-2.773056,-5.353601,0.20178223,0.4991455,102.0
191,0.1879673,-0.33480072,-3.4951324,-5.353601,0.20178223,0.4991455,102.0
192,0.1879673,-0.33480072,-3.4951324,-4.868262,0.23682861,0.3334717,102.0
193,-0.458086,-1.41817,-4.091385,-4.868262,0.23682861,0.3334717,102.0
194,-0.458086,-1.41817,-4.091385,-3.3092287,0.1720459,0.21983643,102.0
195,-0.82754135,-2.1793232,-4.1011047,-3.3092287,0.1720459,0.21983643,102.0
196,-0.82754135,-2.1793232,-4.1011047,-1.713025,0.0637207,-0.0053100586,102.0
197,-0.652401,-2.2434955,-3.5104675,-1.713025,0.0637207,-0.0053100586,102.0
198,-0.652401,-2.2434955,-3.5104675,-0.1709839,-0.0063720704,-0.15823975,102.0
199,-0.35104752,-1.8680997,-2.5626678,-0.1709839,-0.0063720704,-0.15823975,102.0
200,-0.35104752,-1.8680997,-2.5626678,1.4209718,-0.15930176,-0.32603762,102.0
201,-0.15702248,-1.2261448,-1.4516907,1.4209718,-0.15930176,-0.32603762,102.0
202,-0.15702248,-1.2261448,-1.4516907,2.800525,-0.29417726,-0.49277344,102.0
203,-0.10316849,-0.49403858,-0.35787964,2.800525,-0.29417726,-0.49277344,102.0
204,-0.10316849,-0.49403858,-0.35787964,4.1163573,-0.3971924,-0.60216063,102.0
205,-0.14862442,0.13206387,0.4522705,4.1163573,-0.3971924,-0.60216063,102.0
206,-0.14862442,0.13206387,0.4522705,5.881421,-0.5766724,-0.59047854,102.0
207,-0.104543686,0.64258957,0.7379761,5.881421,-0.5766724,-0.59047854,102.0
208,-0.104543686,0.64258957,0.7379761,8.424939,-0.8294312,-0.45454103,102.0
209,0.2155838,1.4919529,0.8218689,8.424939,-0.8294312,-0.45454103,102.0
210,0.2155838,1.4919529,0.8218689,10.209119,-1.0471436,-0.11363526,102.0
211,0.8005924,2.766365,1.125351,10.209119,-1.0471436,-0.11363526,102.0
212,0.8005924,2.766365,1.125351,11.272193,-0.71579593,0.6000366,102.0
213,1.3380566,4.039154,1.2876587,11.272193,-0.71579593,0.6000366,102.0
214,1.3380566,4.039154,1.2876587,11.7532835,-0.46622315,1.5685914,102.0
215,1.483738,5.0389404,1.1080475,11.7532835,-0.46622315,1.5685914,102.0
216,1.483738,5.0389404,1.1080475,11.815943,-0.632959,2.3109376,102.0
217,1.2824612,5.738806,1.1220245,11.815943,-0.632959,2.3109376,102.0
218,1.2824612,5.738806,1.1220245,11.047046,-0.98448485,2.5647583,102.0
219,0.9366379,6.640545,1.8638611,11.047046,-0.98448485,2.5647583,102.0
220,0.9366379,6.640545,1.8638611,8.280505,-0.5607422,2.0645509,102.0
221,0.778656,8.028439,2.6922607,8.280505,-0.5607422,2.0645509,102.0
222,0.778656,8.028439,2.6922607,2.71344,-0.087084964,1.2170655,102.0
223,0.8065796,9.268124,2.754242,2.71344,-0.087084964,1.2170655,102.0
224,0.8065796,9.268124,2.754242,-5.612732,0.5979126,0.5501221,102.0
225,1.0034046,8.608677,1.9004669,-5.612732,0.5979126,0.5501221,102.0
226,1.0034046,8.608677,1.9004669,-13.961206,1.7990478,-0.5809204,102.0
227,1.4871845,4.84877,-0.86935425,-13.961206,1.7990478,-0.5809204,102.0
228,1.4871845,4.84877,-0.86935425,-20.583912,1.8245362,-0.03079834,102.0
229,1.826992,-1.0613766,-5.5260773,-20.583912,1.8245362,-0.03079834,102.0
230,1.826992,-1.0613766,-5.5260773,-22.555006,2.263147,0.74871826,102.0
231,0.9337864,-7.2529087,-8.462448,-22.555006,2.263147,0.74871826,102.0
232,0.9337864,-7.2529087,-8.462448,-22.555006,2.263147,0.74871826,101.0
233,0.9337864,-7.2529087,-8.462448,-16.28595,1.4698242,1.1076783,101.0
234,-1.1382732,-10.52319,-7.1128845,-16.28595,1.4698242,1.1076783,101.0
235,-1.1382732,-10.52319,-7.1128845,-9.045154,0.41312256,1.1119263,101.0
236,-1.9149761,-10.404684,-4.1948547,-9.045154,0.41312256,1.1119263,101.0
237,-1.9149761,-10.404684,-4.1948547,-0.71579593,-0.42161867,-0.30267334,101.0
238,-0.8791008,-12.096818,-3.4063873,-0.71579593,-0.42161867,-0.30267334,101.0
239,-0.8791008,-12.096818,-3.4063873,10.477808,-1.8309082,-0.40462646,101.0
240,0.77069473,-13.298182,-4.002838,10.477808,-1.8309082,-0.40462646,101.0
241,0.77069473,-13.298182,-4.002838,23.648878,-2.608301,0.24001466,101.0
242,2.7400303,-0.8584919,-3.5095825,23.648878,-2.608301,0.24001466,101.0
243,2.7400303,-0.8584919,-3.5095825,28.320667,-1.0089111,-0.6881836,101.0
244,2.475216,17.136229,0.8288727,28.320667,-1.0089111,-0.6881836,101.0
245,2.475216,17.136229,0.8288727,22.440308,-2.2302246,1.6514282,101.0
246,-2.458805,24.111937,6.3694153,22.440308,-2.2302246,1.6514282,101.0
247,-2.458805,24.111937,6.3694153,11.649207,-4.827905,1.3933594,101.0
248,-5.599844,22.949522,7.42717,11.649207,-4.827905,1.3933594,101.0
249,-5.599844,22.949522,7.42717,-9.23313,0.9483765,-0.7625244,101.0
250,-1.3800945,14.074364,3.3545227,-9.23313,0.9483765,-0.7625244,101.0
251,-1.3800945,14.074364,3.3545227,-25.115515,5.662647,-3.9145753,101.0
252,3.8605118,-1.3650818,-4.6178436,-25.115515,5.662647,-3.9145753,101.0
253,3.8605118,-1.3650818,-4.6178436,-25.847242,3.4940186,-2.357666,101.0
254,2.7752018,-13.627478,-9.669952,-25.847242,3.4940186,-2.357666,101.0
255,2.7752018,-13.627478,-9.669952,-21.761683,3.1116943,-1.3965454,101.0
256,-1.6842575,-18.590153,-7.516571,-21.761683,3.1116943,-1.3965454,101.0
257,-1.6842575,-18.590153,-7.516571,-10.010523,1.4528321,0.11682129,101.0
258,-3.9950752,-15.0345125,-0.9692688,-10.010523,1.4528321,0.11682129,101.0
259,-3.9950752,-15.0345125,-0.9692688,-4.1917605,1.1480347,0.6202149,101.0
260,-3.0514793,-7.5571394,3.7403564,-4.1917605,1.1480347,0.6202149,101.0
261,-3.0514793,-7.5571394,3.7403564,-2.8546875,0.79119873,0.009558106,101.0
262,-1.1272316,-4.166854,4.3841095,-2.8546875,0.79119873,0.009558106,101.0
263,-1.1272316,-4.166854,4.3841095,-0.6616333,0.51826173,-0.023364259,101.0
264,0.03775406,-4.5369864,3.171997,-0.6616333,0.51826173,-0.023364259,101.0
265,0.03775406,-4.5369864,3.171997,1.630188,0.30054933,0.10195313,101.0
266,0.10866928,-5.287634,2.4809265,1.630188,0.30054933,0.10195313,101.0
267,0.10866928,-5.287634,2.4809265,3.62677,0.3090454,-0.18903808,101.0
268,-0.6255894,-4.3589277,2.7646942,3.62677,0.3090454,-0.18903808,101.0
269,-0.6255894,-4.3589277,2.7646942,4.6834717,0.32816163,-0.40356445,101.0
270,-1.5476875,-1.505929,3.4775848,4.6834717,0.32816163,-0.40356445,101.0
271,-1.5476875,-1.505929,3.4775848,4.244861,0.14974366,-0.59472656,101.0
272,-1.8166904,1.5500298,3.9935303,4.244861,0.14974366,-0.59472656,101.0
273,-1.8166904,1.5500298,3.9935303,2.5711305,0.014868164,-0.84536135,101.0
274,-1.0960655,2.6035004,3.857315,2.5711305,0.014868164,-0.84536135,101.0
275,-1.0960655,2.6035004,3.857315,1.4570801,0.13381349,-1.0513916,101.0
276,0.05820656,1.7161989,3.2806854,1.4570801,0.13381349,-1.0513916,101.0
277,0.05820656,1.7161989,3.2806854,1.3381348,0.27506104,-1.1214844,101.0
278,0.73981476,0.84225845,2.6322327,1.3381348,0.27506104,-1.1214844,101.0
279,0.73981476,0.84225845,2.6322327,0.6786255,0.40356445,-0.9260742,101.0
280,0.75818443,0.707901,2.0213165,0.6786255,0.40356445,-0.9260742,101.0
281,0.75818443,0.707901,2.0213165,0.10938721,0.44816896,-0.87191164,101.0
282,0.67495537,0.47668457,0.685318,0.10938721,0.44816896,-0.87191164,101.0
283,0.67495537,0.47668457,0.685318,-1.1522827,0.541626,-0.88253176,101.0
284,0.57380295,0.08763409,0.17904663,-1.1522827,0.541626,-0.88253176,101.0
285,0.57380295,0.08763409,0.17904663,-1.1395386,0.50233155,-0.86553955,101.0
286,0.56923485,-0.96517086,-0.22651672,-1.1395386,0.50233155,-0.86553955,101.0
287,0.56923485,-0.96517086,-0.22651672,-0.51932377,0.32709962,-0.72004396,101.0
288,0.5019703,-0.9470024,-0.03289795,-0.51932377,0.32709962,-0.72004396,101.0
289,0.5019703,-0.9470024,-0.03289795,-0.3440918,0.2803711,-0.67650145,101.0
290,1.0511494,-1.0560884,0.6647949,-0.3440918,0.2803711,-0.67650145,101.0
291,1.0511494,-1.0560884,0.6647949,0.26762697,0.09664307,-0.6446411,101.0
292,1.4790535,-0.9112644,0.7524109,0.26762697,0.09664307,-0.6446411,101.0
293,1.4790535,-0.9112644,0.7524109,0.5809204,0.029736329,-0.63720703,101.0
294,3.419241,-0.9759474,0.9151306,0.5809204,0.029736329,-0.63720703,101.0
295,3.419241,-0.9759474,0.9151306,1.3253907,-0.11469727,-0.38975832,101.0
296,3.0115643,-0.5128012,0.78092957,1.3253907,-0.11469727,-0.38975832,101.0
297,3.0115643,-0.5128012,0.78092957,1.4220337,-0.13487549,-0.24957275,101.0
298,0.26584435,0.77657604,0.37724304,1.4220337,-0.13487549,-0.24957275,101.0
299,0.26584435,0.77657604,0.37724304,1.6493043,-0.40250245,0.32603762,101.0
300,-1.0205765,1.1429653,0.25212097,1.6493043,-0.40250245,0.32603762,101.0
301,-1.0205765,1.1429653,0.25212097,1.7937378,-0.5235718,0.5586182,101.0
302,-2.9982967,1.7513113,0.32095337,1.7937378,-0.5235718,0.5586182,101.0
303,-2.9982967,1.7513113,0.32095337,2.1994264,-0.71579593,1.2032593,101.0
304,-2.3199139,1.5531616,0.42440796,2.1994264,-0.71579593,1.2032593,101.0
305,-2.3199139,1.5531616,0.42440796,2.3162477,-0.7688965,1.3476928,101.0
306,-0.25016975,1.2821779,0.6830902,2.3162477,-0.7688965,1.3476928,101.0
307,-0.25016975,1.2821779,0.6830902,2.4150147,-0.82730716,1.7002808,101.0
308,0.43762016,0.95850563,0.6150818,2.4150147,-0.82730716,1.7002808,101.0
309,0.43762016,0.95850563,0.6150818,2.5775025,-0.84748536,1.7884277,101.0
310,1.3443584,0.49131584,0.5818939,2.5775025,-0.84748536,1.7884277,101.0
311,1.3443584,0.49131584,0.5818939,2.7304323,-0.77951664,1.9976441,101.0
312,1.411314,0.3677597,0.6047516,2.7304323,-0.77951664,1.9976441,101.0
313,1.411314,0.3677597,0.6047516,2.552014,-0.724292,2.073047,101.0
314,0.750927,0.5454407,0.66755676,2.552014,-0.724292,2.073047,101.0
315,0.750927,0.5454407,0.66755676,2.3682861,-0.58410645,2.1505737,101.0
316,-0.23174095,0.705884,0.7178345,2.3682861,-0.58410645,2.1505737,101.0
317,-0.23174095,0.705884,0.7178345,2.0687988,-0.42268068,2.2482789,101.0
318,-1.1572914,0.8829689,0.7569885,2.0687988,-0.42268068,2.2482789,101.0
319,-1.1572914,0.8829689,0.7569885,1.4666382,-0.21983643,2.258899,101.0
320,-1.1724281,0.6809845,0.6643982,1.4666382,-0.21983643,2.258899,101.0
321,-1.1724281,0.6809845,0.6643982,1.260608,-0.17523193,2.2344728,101.0
322,-1.31254,0.44234657,0.513916,1.260608,-0.17523193,2.2344728,101.0
323,-1.31254,0.44234657,0.513916,0.7338501,-0.09770508,2.160132,101.0
324,-1.2214069,0.18848419,0.40779114,0.7338501,-0.09770508,2.160132,101.0
325,-1.2214069,0.18848419,0.40779114,0.6000366,-0.05628662,2.1080933,101.0
326,-1.1461315,-0.018561363,0.30245972,0.6000366,-0.05628662,2.1080933,101.0
327,-1.1461315,-0.018561363,0.30245972,0.3812622,0.03717041,2.001892,101.0
328,-1.1461315,-0.018561363,0.30245972,0.3812622,0.03717041,2.001892,101.0
329,-1.0113506,-0.13845825,0.21006775,0.3812622,0.03717041,2.001892,101.0
330,-1.0113506,-0.13845825,0.21006775,0.18160401,0.13275146,1.8925049,101.0
331,-0.8585186,-0.22998047,0.10379028,0.18160401,0.13275146,1.8925049,101.0
332,-0.8585186,-0.22998047,0.10379028,0.047790527,0.20390625,1.7491333,101.0
333,-0.7318344,-0.32348633,0.008575439,0.047790527,0.20390625,1.7491333,101.0
334,-0.7318344,-0.32348633,0.008575439,-0.009558106,0.2347046,1.5823975,101.0
335,-0.59386635,-0.37374306,-0.04133606,-0.009558106,0.2347046,1.5823975,101.0
336,-0.59386635,-0.37374306,-0.04133606,-0.18797608,0.26550293,1.4177856,101.0
337,-0.35723495,-0.41695118,-0.056655884,-0.18797608,0.26550293,1.4177856,101.0
338,-0.35723495,-0.41695118,-0.056655884,-0.4067505,0.26762697,1.1979493,101.0
339,-0.058994293,-0.52630997,-0.085128784,-0.4067505,0.26762697,1.1979493,101.0
340,-0.058994293,-0.52630997,-0.085128784,-0.49383545,0.18372802,0.9653687,101.0
341,0.09392929,-0.6216221,-0.13670349,-0.49383545,0.18372802,0.9653687,101.0
342,0.09392929,-0.6216221,-0.13670349,-0.58304447,0.07434082,0.724292,101.0
343,-0.028543472,-0.62753487,-0.18908691,-0.58304447,0.07434082,0.724292,101.0
344,-0.028543472,-0.62753487,-0.18908691,-0.65844727,0.0021240234,0.4895874,101.0
345,-0.25785637,-0.40233326,-0.27326965,-0.65844727,0.0021240234,0.4895874,101.0
346,-0.25785637,-0.40233326,-0.27326965,-0.815625,-0.115759276,0.13912354,101.0
347,-0.2267189,-0.03775978,-0.41397095,-0.815625,-0.115759276,0.13912354,101.0
348,-0.2267189,-0.03775978,-0.41397095,-1.1692749,-0.08602295,-0.31860352,101.0
349,0.614048,0.04219246,-0.56811523,-1.1692749,-0.08602295,-0.31860352,101.0
350,0.614048,0.04219246,-0.56811523,-1.3445069,-0.010620117,-1.0014771,101.0
351,1.7535801,-0.42404652,-0.5808563,-1.3445069,-0.010620117,-1.0014771,101.0
352,1.7535801,-0.42404652,-0.5808563,-1.1533448,0.0637207,-1.4761963,101.0
353,1.64538,-1.1310463,-0.35134888,-1.1533448,0.0637207,-1.4761963,101.0
354,1.64538,-1.1310463,-0.35134888,-0.901648,0.107263185,-1.6790406,101.0
355,0.034858704,-1.5178375,-0.027709961,-0.901648,0.107263185,-1.6790406,101.0
356,0.034858704,-1.5178375,-0.027709961,-0.60216063,0.15080567,-1.8850708,101.0
357,-1.5218678,-1.2174196,0.24259949,-0.60216063,0.15080567,-1.8850708,101.0
358,-1.5218678,-1.2174196,0.24259949,0.009558106,0.20390625,-2.0114503,101.0
359,-1.8460827,-0.3093729,0.4805298,0.009558106,0.20390625,-2.0114503,101.0
360,-1.8460827,-0.3093729,0.4805298,0.5766724,0.23789063,-1.993396,101.0
361,-1.1199322,0.6509266,0.67263794,0.5766724,0.23789063,-1.993396,101.0
362,-1.1199322,0.6509266,0.67263794,0.9451904,0.2527588,-1.9392334,101.0
363,-0.15901947,1.1894426,0.72003174,0.9451904,0.2527588,-1.9392334,101.0
364,-0.15901947,1.1894426,0.72003174,1.0471436,0.3154175,-1.902063,101.0
365,0.4400692,1.2657871,0.62039185,1.0471436,0.3154175,-1.902063,101.0
366,0.4400692,1.2657871,0.62039185,0.9611206,0.271875,-1.8723267,101.0
367,0.6432419,1.2164135,0.3690338,0.9611206,0.271875,-1.8723267,101.0
368,0.6432419,1.2164135,0.3690338,0.46834716,0.18903808,-1.8585205,101.0
369,0.72255135,1.2099953,0.14746094,0.46834716,0.18903808,-1.8585205,101.0
370,0.72255135,1.2099953,0.14746094,-0.35789797,0.27293703,-1.8606446,101.0
371,0.71740913,0.9134064,0.21115112,-0.35789797,0.27293703,-1.8606446,101.0
372,0.71740913,0.9134064,0.21115112,-0.727478,0.26337892,-1.8181641,101.0
373,0.5054817,0.5416746,0.35438538,-0.727478,0.26337892,-1.8181641,101.0
374,0.5054817,0.5416746,0.35438538,-0.8623535,0.2081543,-1.8192261,101.0
375,0.2354641,0.40786362,0.36749268,-0.8623535,0.2081543,-1.8192261,101.0
376,0.2354641,0.40786362,0.36749268,-1.2213135,0.23151855,-1.7470093,101.0
377,0.09912491,0.2519741,0.20814514,-1.2213135,0.23151855,-1.7470093,101.0
378,0.09912491,0.2519741,0.20814514,-1.2032593,0.29948732,-1.6801026,101.0
379,0.04585266,0.00538826,-0.09313965,-1.2032593,0.29948732,-1.6801026,101.0
380,0.04585266,0.00538826,-0.09313965,-0.97386473,0.30479738,-1.6514282,101.0
381,0.21309853,-0.20961761,-0.3067627,-0.97386473,0.30479738,-1.6514282,101.0
382,0.21309853,-0.20961761,-0.3067627,-0.6403931,0.29736328,-1.6174439,101.0
383,0.63928986,-0.3052435,-0.28707886,-0.6403931,0.29736328,-1.6174439,101.0
384,0.63928986,-0.3052435,-0.28707886,-0.25913087,0.26125488,-1.5600952,101.0
385,0.89733315,-0.1752739,-0.09013367,-0.25913087,0.26125488,-1.5600952,101.0
386,0.89733315,-0.1752739,-0.09013367,0.021240234,0.25913087,-1.5048707,101.0
387,0.6869335,0.18115616,0.124053955,0.021240234,0.25913087,-1.5048707,101.0
388,0.6869335,0.18115616,0.124053955,0.06584473,0.2442627,-1.4305298,101.0
389,0.23514175,0.54255676,0.23829651,0.06584473,0.2442627,-1.4305298,101.0
390,0.23514175,0.54255676,0.23829651,-0.015930176,0.23364258,-1.2712281,101.0
391,-0.06529236,0.56396484,0.26412964,-0.015930176,0.23364258,-1.2712281,101.0
392,-0.06529236,0.56396484,0.26412964,-0.009558106,0.19434814,-1.2287476,101.0
393,0.023498535,0.33842754,0.29634094,-0.009558106,0.19434814,-1.2287476,101.0
394,0.023498535,0.33842754,0.29634094,0.124255374,0.13487549,-1.0322754,101.0
395,0.41209602,0.19300747,0.3257141,0.124255374,0.13487549,-1.0322754,101.0
396,0.41209602,0.19300747,0.3257141,0.09451904,0.095581055,-0.84323734,101.0
397,0.6302738,0.195714,0.24841309,0.09451904,0.095581055,-0.84323734,101.0
398,0.6302738,0.195714,0.24841309,0.053100586,0.028674318,-0.56180423,101.0
399,0.59199905,0.15532684,0.13595581,0.053100586,0.028674318,-0.56180423,101.0
400,0.59199905,0.15532684,0.13595581,0.10407715,0.052038576,-0.2782471,101.0
401,1.1941929,-0.11572838,0.1388092,0.10407715,0.052038576,-0.2782471,101.0
402,1.1941929,-0.11572838,0.1388092,0.3069214,0.013806152,-0.0180542,101.0
403,2.3632278,-0.2295456,0.1933136,0.3069214,0.013806152,-0.0180542,101.0
404,2.3632278,-0.2295456,0.1933136,0.3058594,-0.10301514,0.4078125,101.0
405,2.198431,0.21718216,0.2074585,0.3058594,-0.10301514,0.4078125,101.0
406,2.198431,0.21718216,0.2074585,0.078588866,-0.13487549,0.8729736,101.0
407,0.2686081,0.7318516,0.13069153,0.078588866,-0.13487549,0.8729736,101.0
408,0.2686081,0.7318516,0.13069153,0.12000733,-0.12850343,1.3179566,101.0
409,-1.3670712,0.7178421,-0.09988403,0.12000733,-0.12850343,1.3179566,101.0
410,-1.3670712,0.7178421,-0.09988403,0.542688,-0.15186767,1.6822265,101.0
411,-1.330986,0.34907913,-0.34461975,0.542688,-0.15186767,1.6822265,101.0
412,-1.330986,0.34907913,-0.34461975,0.80819094,-0.12000733,1.9827759,101.0
413,-0.31845093,0.08983421,-0.44223022,0.80819094,-0.12000733,1.9827759,101.0
414,-0.31845093,0.08983421,-0.44223022,0.9547486,-0.11363526,2.250403,101.0
415,0.5406132,0.008708,-0.472641,0.9547486,-0.11363526,2.250403,101.0
416,0.5406132,0.008708,-0.472641,1.0142212,-0.05628662,2.3385499,101.0
417,0.91519356,0.048018456,-0.46670532,1.0142212,-0.05628662,2.3385499,101.0
418,0.91519356,0.048018456,-0.46670532,0.8867798,-0.0021240234,2.3842163,101.0
419,0.94295883,0.07634163,-0.38363647,0.8867798,-0.0021240234,2.3842163,101.0
420,0.94295883,0.07634163,-0.38363647,0.4078125,0.008496094,2.5976808,101.0
421,0.61693954,-0.02612114,-0.26158142,0.4078125,0.008496094,2.5976808,101.0
422,0.61693954,-0.02612114,-0.26158142,0.4078125,0.008496094,2.5976808,101.0
423,0.61693954,-0.02612114,-0.26158142,0.23895264,-0.03717041,2.5020998,101.0
424,-0.015798569,-0.12697601,-0.10827637,0.23895264,-0.03717041,2.5020998,101.0
425,-0.015798569,-0.12697601,-0.10827637,-0.078588866,-0.027612304,2.6008668,101.0
426,-0.7522869,-0.15496254,0.014694214,-0.078588866,-0.027612304,2.6008668,101.0
427,-0.7522869,-0.15496254,0.014694214,-0.52888185,-0.0180542,2.6327271,101.0
428,-1.5045891,-0.31865978,-0.014602661,-0.52888185,-0.0180542,2.6327271,101.0
429,-1.5045891,-0.31865978,-0.014602661,-0.9122681,-0.06690674,2.628479,101.0
430,-2.0964336,-0.6414881,-0.20993042,-0.9122681,-0.06690674,2.628479,101.0
431,-2.0964336,-0.6414881,-0.20993042,-1.0588257,-0.12956543,2.5583863,101.0
432,-2.3626823,-1.0776558,-0.38323975,-1.0588257,-0.12956543,2.5583863,101.0
433,-2.3626823,-1.0776558,-0.38323975,-0.8623535,-0.1985962,2.4872315,101.0
434,-2.357029,-1.4321566,-0.36947632,-0.8623535,-0.1985962,2.4872315,101.0
435,-2.357029,-1.4321566,-0.36947632,-0.45772704,-0.19328614,2.442627,101.0
436,-2.2219143,-1.4742775,-0.28323364,-0.45772704,-0.19328614,2.442627,101.0
437,-2.2219143,-1.4742775,-0.28323364,-0.16036378,-0.17735596,2.3672242,101.0
438,-2.0059986,-1.285697,-0.2875824,-0.16036378,-0.17735596,2.3672242,101.0
439,-2.0059986,-1.285697,-0.2875824,0.004248047,-0.1529297,2.2015502,101.0
440,-1.6898212,-1.1443539,-0.3416748,0.004248047,-0.1529297,2.2015502,101.0
441,-1.6898212,-1.1443539,-0.3416748,0.19541016,-0.15823975,2.0295045,101.0
442,-1.2902851,-1.056303,-0.29066467,0.19541016,-0.15823975,2.0295045,101.0
443,-1.2902851,-1.056303,-0.29066467,0.30267334,-0.17416993,1.81073,101.0
444,-0.8547869,-0.89424896,-0.11695862,0.30267334,-0.17416993,1.81073,101.0
445,-0.8547869,-0.89424896,-0.11695862,0.2527588,-0.17629395,1.5239868,101.0
446,-0.49150753,-0.594244,0.07064819,0.2527588,-0.17629395,1.5239868,101.0
447,-0.49150753,-0.594244,0.07064819,0.16036378,-0.19753419,1.1172364,101.0
448,-0.4061327,-0.29713535,0.14772034,0.16036378,-0.19753419,1.1172364,101.0
449,-0.4061327,-0.29713535,0.14772034,0.007434082,-0.2347046,0.70198977,101.0
450,-0.5974655,-0.16522312,0.072280884,0.007434082,-0.2347046,0.70198977,101.0
451,-0.5974655,-0.16522312,0.072280884,-0.07540283,-0.29311523,0.20921631,101.0
452,-0.7799015,-0.20710468,-0.08216858,-0.07540283,-0.29311523,0.20921631,101.0
453,-0.7799015,-0.20710468,-0.08216858,-0.13168946,-0.33771974,-0.25806886,101.0
454,-0.6083088,-0.37219048,-0.22547913,-0.13168946,-0.33771974,-0.25806886,101.0
455,-0.6083088,-0.37219048,-0.22547913,-0.095581055,-0.32709962,-0.7041138,101.0
456,0.3546009,-0.55914116,-0.2690735,-0.095581055,-0.32709962,-0.7041138,101.0
457,0.3546009,-0.55914116,-0.2690735,0.118945315,-0.27718505,-1.3466309,101.0
458,1.8888931,-0.6019268,-0.23988342,0.118945315,-0.27718505,-1.3466309,101.0
459,1.8888931,-0.6019268,-0.23988342,0.3334717,-0.271875,-1.9041871,101.0
460,2.6018982,-0.44000053,-0.13278198,0.3334717,-0.271875,-1.9041871,101.0
461,2.6018982,-0.44000053,-0.13278198,0.55543214,-0.25806886,-2.1590698,101.0
462,1.6074944,-0.23819447,0.16722107,0.55543214,-0.25806886,-2.1590698,101.0
463,1.6074944,-0.23819447,0.16722107,0.83049315,-0.16461182,-2.3905885,101.0
464,0.08338261,0.00786972,0.544281,0.83049315,-0.16461182,-2.3905885,101.0
465,0.08338261,0.00786972,0.544281,1.1278565,-0.047790527,-2.5923707,101.0
466,-0.47449303,0.5580778,0.77948,1.1278565,-0.047790527,-2.5923707,101.0
467,-0.47449303,0.5580778,0.77948,1.1809571,0.016992187,-2.5626342,101.0
468,-0.103313446,1.2917871,0.86486816,1.1809571,0.016992187,-2.5626342,101.0
469,-0.103313446,1.2917871,0.86486816,1.0577637,0.0021240234,-2.5254638,101.0
470,0.4535427,1.7309637,0.9154053,1.0577637,0.0021240234,-2.5254638,101.0
471,0.4535427,1.7309637,0.9154053,0.81243896,0.0180542,-2.5923707,101.0
472,0.78191376,1.7085991,0.92233276,0.81243896,0.0180542,-2.5923707,101.0
473,0.78191376,1.7085991,0.92233276,0.4630371,0.090270996,-2.6019287,101.0
474,0.90867233,1.5448208,0.71069336,0.4630371,0.090270996,-2.6019287,101.0
475,0.90867233,1.5448208,0.71069336,-0.12531738,-0.015930176,-2.5424562,101.0
476,1.0484219,1.2686329,0.5052643,-0.12531738,-0.015930176,-2.5424562,101.0
477,1.0484219,1.2686329,0.5052643,-0.74871826,0.36639404,-2.529712,101.0
478,1.1271172,0.92866325,0.39154053,-0.74871826,0.36639404,-2.529712,101.0
479,1.1271172,0.92866325,0.39154053,-0.85598147,0.20390625,-2.347046,101.0
480,0.9603119,0.8064194,0.21168518,-0.85598147,0.20390625,-2.347046,101.0
481,0.9603119,0.8064194,0.21168518,-1.1214844,0.22833252,-2.2918212,101.0
482,0.74613,0.77975464,0.08308411,-1.1214844,0.22833252,-2.2918212,101.0
483,0.74613,0.77975464,0.08308411,-1.3784913,0.28568116,-2.1378295,101.0
484,0.47729874,0.59277344,0.039596558,-1.3784913,0.28568116,-2.1378295,101.0
485,0.47729874,0.59277344,0.039596558,-1.3200806,0.26125488,-1.9647217,101.0
486,0.1943016,0.36937237,-0.09741211,-1.3200806,0.26125488,-1.9647217,101.0
487,0.1943016,0.36937237,-0.09741211,-1.1363525,0.24107666,-1.7831177,101.0
488,0.017416,0.28031254,-0.28884888,-1.1363525,0.24107666,-1.7831177,101.0
489,0.017416,0.28031254,-0.28884888,-0.97280276,0.22727051,-1.6046997,101.0
490,-0.0058784485,0.229352,-0.36024475,-0.97280276,0.22727051,-1.6046997,101.0
491,-0.0058784485,0.229352,-0.36024475,-0.7805786,0.24532472,-1.4751343,101.0
492,0.10508728,0.17731667,-0.29788208,-0.7805786,0.24532472,-1.4751343,101.0
493,0.10508728,0.17731667,-0.29788208,-0.5915405,0.20709229,-1.3190186,101.0
494,0.2306881,0.232234,-0.17384338,-0.5915405,0.20709229,-1.3190186,101.0
495,0.2306881,0.232234,-0.17384338,-0.48746338,0.17947999,-1.2542359,101.0
496,0.25411797,0.2582245,-0.04257202,-0.48746338,0.17947999,-1.2542359,101.0
497,0.25411797,0.2582245,-0.04257202,-0.66588134,0.17947999,-1.1427246,101.0
498,0.08327484,0.0050411224,-0.0028381348,-0.66588134,0.17947999,-1.1427246,101.0
499,0.08327484,0.0050411224,-0.0028381348,-0.2548828,0.05522461,-1.0938721,101.0
500,-0.07650757,-0.1261673,-0.007583618,-0.2548828,0.05522461,-1.0938721,101.0
501,-0.07650757,-0.1261673,-0.007583618,0.0,0.023364259,-1.0036011,101.0
502,0.013147354,0.044475555,0.037765503,0.0,0.023364259,-1.0036011,101.0
503,0.013147354,0.044475555,0.037765503,0.15930176,0.022302246,-0.9165161,101.0
504,0.16654778,0.16426659,0.10583496,0.15930176,0.022302246,-0.9165161,101.0
505,0.16654778,0.16426659,0.10583496,0.35683593,0.0010620117,-0.75615233,101.0
506,0.1899395,0.18876171,0.12580872,0.35683593,0.0010620117,-0.75615233,101.0
507,0.1899395,0.18876171,0.12580872,0.47684327,-0.016992187,-0.56392825,101.0
508,0.4573593,0.05511093,0.16596985,0.47684327,-0.016992187,-0.56392825,101.0
509,0.4573593,0.05511093,0.16596985,0.71367186,0.04460449,-0.32285157,101.0
510,1.5395088,-0.27295208,0.35588074,0.71367186,0.04460449,-0.32285157,101.0
511,1.5395088,-0.27295208,0.35588074,1.1161743,0.026550293,-0.057348635,101.0
512,2.646061,-0.3076563,0.614563,1.1161743,0.026550293,-0.057348635,101.0
513,2.646061,-0.3076563,0.614563,1.2595459,-0.02442627,0.44073486,101.0
514,1.9576931,0.34393787,0.6330261,1.2595459,-0.02442627,0.44073486,101.0
515,1.9576931,0.34393787,0.6330261,0.9717407,-0.040356446,0.9781128,101.0
516,-0.3376789,1.1823158,0.29426575,0.9717407,-0.040356446,0.9781128,101.0
517,-0.3376789,1.1823158,0.29426575,0.7519043,0.004248047,1.4889405,101.0
518,-1.8380871,1.4833403,-0.13327026,0.7519043,0.004248047,1.4889405,101.0
519,-1.8380871,1.4833403,-0.13327026,0.83898926,0.059472658,1.8213501,101.0
520,-1.364769,1.2606468,-0.3659973,0.83898926,0.059472658,1.8213501,101.0
521,-1.364769,1.2606468,-0.3659973,0.9717407,0.06478272,2.2514648,101.0
522,0.0039978027,0.8549166,-0.39500427,0.9717407,0.06478272,2.2514648,101.0
523,0.0039978027,0.8549166,-0.39500427,0.8581055,0.08071289,2.5105958,101.0
524,0.9864998,0.37796402,-0.37617493,0.8581055,0.08071289,2.5105958,101.0
525,0.9864998,0.37796402,-0.37617493,0.92713624,0.07752686,2.5944946,101.0
526,1.3721218,-0.07193375,-0.33132935,0.92713624,0.07752686,2.5944946,101.0
527,1.3721218,-0.07193375,-0.33132935,0.9483765,0.07434082,2.710254,101.0
528,1.3390179,-0.32458878,-0.17771912,0.9483765,0.07434082,2.710254,101.0
529,1.3390179,-0.32458878,-0.17771912,0.37807617,0.17841797,2.720874,101.0
530,0.8839588,-0.51996136,0.022918701,0.37807617,0.17841797,2.720874,101.0
531,0.8839588,-0.51996136,0.022918701,0.06265869,0.1083252,2.7028198,101.0
532,0.04478836,-0.6689224,0.08389282,0.06265869,0.1083252,2.7028198,101.0
533,0.04478836,-0.6689224,0.08389282,-0.004248047,0.011682129,2.70813,101.0
534,-0.8943329,-0.58809185,-0.034835815,-0.004248047,0.011682129,2.70813,101.0
535,-0.8943329,-0.58809185,-0.034835815,-0.004248047,0.011682129,2.70813,101.0
536,-0.8943329,-0.58809185,-0.034835815,-0.26019287,-0.06796875,2.7484863,101.0
537,-1.6652966,-0.5461569,-0.2051239,-0.26019287,-0.06796875,2.7484863,101.0
538,-1.6652966,-0.5461569,-0.2051239,-0.362146,-0.115759276,2.7261841,101.0
539,-2.1936626,-0.70268536,-0.34725952,-0.362146,-0.115759276,2.7261841,101.0
540,-2.1936626,-0.70268536,-0.34725952,-0.27612305,-0.1444336,2.698572,101.0
541,-2.4036236,-0.90951157,-0.45498657,-0.27612305,-0.1444336,2.698572,101.0
542,-2.4036236,-0.90951157,-0.45498657,-0.12850343,-0.15080567,2.6061769,101.0
543,-2.339672,-1.0256319,-0.53248596,-0.12850343,-0.15080567,2.6061769,101.0
544,-2.339672,-1.0256319,-0.53248596,0.06159668,-0.14337158,2.546704,101.0
545,-2.1971397,-1.0212746,-0.6000519,0.06159668,-0.14337158,2.546704,101.0
546,-2.1971397,-1.0212746,-0.6000519,0.21240234,-0.13168946,2.427759,101.0
547,-2.0196743,-0.958231,-0.6174164,0.21240234,-0.13168946,2.427759,101.0
548,-2.0196743,-0.958231,-0.6174164,0.28461915,-0.10195313,2.2918212,101.0
549,-1.7041302,-0.8586502,-0.5301056,0.28461915,-0.10195313,2.2918212,101.0
550,-1.7041302,-0.8586502,-0.5301056,0.2803711,-0.07434082,2.1399536,101.0
551,-1.2820053,-0.70932007,-0.40118408,0.2803711,-0.07434082,2.1399536,101.0
552,-1.2820053,-0.70932007,-0.40118408,0.1529297,-0.06159668,1.9753418,101.0
553,-0.91277504,-0.56661415,-0.29216003,0.1529297,-0.06159668,1.9753418,101.0
554,-0.91277504,-0.56661415,-0.29216003,-0.025488282,-0.058410645,1.7427613,101.0
555,-0.6309395,-0.55238724,-0.19691467,-0.025488282,-0.058410645,1.7427613,101.0
556,-0.6309395,-0.55238724,-0.19691467,-0.17523193,-0.090270996,1.4613281,101.0
557,-0.40550804,-0.6453037,-0.12185669,-0.17523193,-0.090270996,1.4613281,101.0
558,-0.40550804,-0.6453037,-0.12185669,-0.30161133,-0.16461182,1.1512207,101.0
559,-0.33986092,-0.7450762,-0.06925964,-0.30161133,-0.16461182,1.1512207,101.0
560,-0.33986092,-0.7450762,-0.06925964,-0.3993164,-0.20921631,0.80819094,101.0
561,-0.4776268,-0.8575964,-0.011627197,-0.3993164,-0.20921631,0.80819094,101.0
562,-0.4776268,-0.8575964,-0.011627197,-0.3791382,-0.26656494,0.452417,101.0
563,-0.48445702,-0.92831326,-0.010818481,-0.3791382,-0.26656494,0.452417,101.0
564,-0.48445702,-0.92831326,-0.010818481,-0.39082032,-0.29630128,-0.039294433,101.0
565,0.23031807,-0.91237736,-0.12277222,-0.39082032,-0.29630128,-0.039294433,101.0
566,0.23031807,-0.91237736,-0.12277222,-0.46622315,-0.32603762,-0.7391602,101.0
567,1.3983049,-0.9284735,-0.2142334,-0.46622315,-0.32603762,-0.7391602,101.0
568,1.3983049,-0.9284735,-0.2142334,-0.37382814,-0.3419678,-1.4007934,101.0
569,1.7193642,-1.000042,-0.096710205,-0.37382814,-0.3419678,-1.4007934,101.0
570,1.7193642,-1.000042,-0.096710205,-0.05522461,-0.38657227,-1.8255981,101.0
571,0.73365784,-0.9309902,0.20446777,-0.05522461,-0.38657227,-1.8255981,101.0
572,0.73365784,-0.9309902,0.20446777,0.2262085,-0.3440918,-2.270581,101.0
573,-0.39538574,-0.58453846,0.5063782,0.2262085,-0.3440918,-2.270581,101.0
574,-0.39538574,-0.58453846,0.5063782,0.44498292,-0.22196046,-2.6125488,101.0
575,-0.56496525,-0.079276085,0.7230835,0.44498292,-0.22196046,-2.6125488,101.0
576,-0.56496525,-0.079276085,0.7230835,0.80394286,-0.08814698,-2.797339,101.0
577,0.04092312,0.43707943,0.9051361,0.80394286,-0.08814698,-2.797339,101.0
578,0.04092312,0.43707943,0.9051361,1.2977784,0.04991455,-2.8345094,101.0
579,0.73542404,0.98835945,1.057785,1.2977784,0.04991455,-2.8345094,101.0
580,0.73542404,0.98835945,1.057785,1.5165528,0.10195313,-2.8387573,101.0
581,1.164072,1.58218,0.9851837,1.5165528,0.10195313,-2.8387573,101.0
582,1.164072,1.58218,0.9851837,1.3147706,0.0637207,-2.6837037,101.0
583,1.2468834,2.090952,0.7762604,1.3147706,0.0637207,-2.6837037,101.0
584,1.2468834,2.090952,0.7762604,0.82836914,0.08496094,-2.6741455,101.0
585,0.991415,2.4009476,0.5530548,0.82836914,0.08496094,-2.6741455,101.0
586,0.991415,2.4009476,0.5530548,0.08496094,-0.1083252,-2.446875,101.0
587,0.9357109,2.4509583,0.6318817,0.08496094,-0.1083252,-2.446875,101.0
588,0.9357109,2.4509583,0.6318817,-1.629126,0.48427734,-2.366162,101.0
589,0.9318085,1.1552849,1.15448,-1.629126,0.48427734,-2.366162,101.0
590,0.9318085,1.1552849,1.15448,-1.3859253,0.3727661,-1.8733886,101.0
591,0.37054443,-0.17474651,1.1845856,-1.3859253,0.3727661,-1.8733886,101.0
592,0.37054443,-0.17474651,1.1845856,-0.64570314,0.06265869,-1.8680786,101.0
593,-0.11401367,0.3677225,0.5437622,-0.64570314,0.06265869,-1.8680786,101.0
594,-0.11401367,0.3677225,0.5437622,-1.7459472,0.22833252,-1.7045288,101.0
595,0.16955566,0.95686054,-0.16596985,-1.7459472,0.22833252,-1.7045288,101.0
596,0.16955566,0.95686054,-0.16596985,-2.2079225,0.26550293,-1.7650635,101.0
597,0.5912113,0.50734615,-0.7290039,-2.2079225,0.26550293,-1.7650635,101.0
598,0.5912113,0.50734615,-0.7290039,-1.1990112,0.2888672,-1.532483,101.0
599,0.61647415,-0.05690384,-1.0706787,-1.1990112,0.2888672,-1.532483,101.0
600,0.61647415,-0.05690384,-1.0706787,-0.62340087,0.28674316,-1.4220337,101.0
601,0.32878685,-0.22466087,-1.0457916,-0.62340087,0.28674316,-1.4220337,101.0
602,0.32878685,-0.22466087,-1.0457916,-0.21558838,0.3164795,-1.4018555,101.0
603,-0.005306244,-0.25243378,-0.8046875,-0.21558838,0.3164795,-1.4018555,101.0
604,-0.005306244,-0.25243378,-0.8046875,0.34090576,0.29311523,-1.3487549,101.0
605,-0.30470848,-0.08880043,-0.49168396,0.34090576,0.29311523,-1.3487549,101.0
606,-0.30470848,-0.08880043,-0.49168396,0.7391602,0.25594482,-1.3349488,101.0
607,-0.45111465,0.39512157,-0.1402893,0.7391602,0.25594482,-1.3349488,101.0
608,-0.45111465,0.39512157,-0.1402893,0.90908206,0.27399904,-1.3795532,101.0
609,-0.30542374,0.84508896,0.1803894,0.90908206,0.27399904,-1.3795532,101.0
610,-0.30542374,0.84508896,0.1803894,0.81881106,0.3355957,-1.3445069,101.0
611,-0.004337311,0.95223045,0.34469604,0.81881106,0.3355957,-1.3445069,101.0
612,-0.004337311,0.95223045,0.34469604,0.904834,0.31010744,-1.3922974,101.0
613,0.26216698,0.9316826,0.32366943,0.904834,0.31010744,-1.3922974,101.0
614,0.26216698,0.9316826,0.32366943,0.7391602,0.3462158,-1.2786621,101.0
615,0.32478523,0.95205975,0.1304779,0.7391602,0.3462158,-1.2786621,101.0
616,0.32478523,0.95205975,0.1304779,0.39613038,0.29417726,-1.1650269,101.0
617,0.345644,0.77388,-0.07209778,0.39613038,0.29417726,-1.1650269,101.0
618,0.345644,0.77388,-0.07209778,0.32816163,0.28568116,-0.90802,101.0
619,0.8284073,0.3815422,-0.035873413,0.32816163,0.28568116,-0.90802,101.0
620,0.8284073,0.3815422,-0.035873413,0.46622315,0.20603028,-0.5809204,101.0
621,1.4470882,0.15099716,0.25601196,0.46622315,0.20603028,-0.5809204,101.0
622,1.4470882,0.15099716,0.25601196,0.43754885,0.17841797,-0.13806152,101.0
623,1.2248955,0.281003,0.5258789,0.43754885,0.17841797,-0.13806152,101.0
624,1.2248955,0.281003,0.5258789,0.4067505,0.12213135,0.41099855,101.0
625,0.2264862,0.58624077,0.4605255,0.4067505,0.12213135,0.41099855,101.0
626,0.2264862,0.58624077,0.4605255,0.46834716,0.07540283,0.95368654,101.0
627,-0.27893066,0.8520489,0.0057678223,0.46834716,0.07540283,0.95368654,101.0
628,-0.27893066,0.8520489,0.0057678223,0.74659425,-0.040356446,1.3190186,101.0
629,0.14458084,0.96783257,-0.5068512,0.74659425,-0.040356446,1.3190186,101.0
630,0.14458084,0.96783257,-0.5068512,1.0428956,-0.16354981,1.718335,101.0
631,0.71196556,0.88300705,-0.7932129,1.0428956,-0.16354981,1.718335,101.0
632,0.71196556,0.88300705,-0.7932129,1.3030884,-0.24320069,2.0093262,101.0
633,0.843132,0.6279144,-0.8538971,1.3030884,-0.24320069,2.0093262,101.0
634,0.843132,0.6279144,-0.8538971,1.5186768,-0.27293703,2.1898682,101.0
635,0.6089783,0.36236572,-0.7486725,1.5186768,-0.27293703,2.1898682,101.0
636,0.6089783,0.36236572,-0.7486725,1.6769165,-0.27293703,2.2981935,101.0
637,0.2985592,0.1895752,-0.5388489,1.6769165,-0.27293703,2.2981935,101.0
638,0.2985592,0.1895752,-0.5388489,1.7873658,-0.25700685,2.3810303,101.0
639,0.2985592,0.1895752,-0.5388489,1.7873658,-0.25700685,2.3810303,101.0
640,0.07137871,0.15776348,-0.31663513,1.7873658,-0.25700685,2.3810303,101.0
641,0.07137871,0.15776348,-0.31663513,1.7767457,-0.23045655,2.4203248,101.0
642,-0.14637566,0.2204485,-0.15394592,1.7767457,-0.23045655,2.4203248,101.0
643,-0.14637566,0.2204485,-0.15394592,1.6365601,-0.17523193,2.4521852,101.0
644,-0.39379692,0.29691505,-0.05618286,1.6365601,-0.17523193,2.4521852,101.0
645,-0.39379692,0.29691505,-0.05618286,1.4135376,-0.11044922,2.443689,101.0
646,-0.58922005,0.29623508,-0.026107788,1.4135376,-0.11044922,2.443689,101.0
647,-0.58922005,0.29623508,-0.026107788,1.179895,-0.04991455,2.4128907,101.0
648,-0.66147614,0.1659317,-0.06791687,1.179895,-0.04991455,2.4128907,101.0
649,-0.66147614,0.1659317,-0.06791687,0.95368654,-0.011682129,2.34917,101.0
650,-0.6197567,-0.0338192,-0.1647644,0.95368654,-0.011682129,2.34917,101.0
651,-0.6197567,-0.0338192,-0.1647644,0.74659425,0.03717041,2.2928834,101.0
652,-0.50813484,-0.24692822,-0.25476074,0.74659425,0.03717041,2.2928834,101.0
653,-0.50813484,-0.24692822,-0.25476074,0.60109866,0.09451904,2.2408447,101.0
654,-0.33026314,-0.3965664,-0.31936646,0.60109866,0.09451904,2.2408447,101.0
655,-0.33026314,-0.3965664,-0.31936646,0.46409914,0.12531738,2.179248,101.0
656,-0.16849518,-0.44238758,-0.3424225,0.46409914,0.12531738,2.179248,101.0
657,-0.16849518,-0.44238758,-0.3424225,0.3175415,0.1539917,2.1580079,101.0
658,-0.10177612,-0.4698639,-0.28866577,0.3175415,0.1539917,2.1580079,101.0
659,-0.10177612,-0.4698639,-0.28866577,0.1901001,0.16248779,2.1059692,101.0
660,-0.072912216,-0.43601036,-0.18367004,0.1901001,0.16248779,2.1059692,101.0
661,-0.072912216,-0.43601036,-0.18367004,0.0063720704,0.12000733,2.088977,101.0
662,-0.037395477,-0.148345,-0.14364624,0.0063720704,0.12000733,2.088977,101.0
663,-0.037395477,-0.148345,-0.14364624,-0.40144044,0.029736329,1.9339234,101.0
664,-0.076387405,0.19404411,-0.21020508,-0.40144044,0.029736329,1.9339234,101.0
665,-0.076387405,0.19404411,-0.21020508,-0.89208984,-0.06159668,1.7586914,101.0
666,-0.05610466,0.25700474,-0.33668518,-0.89208984,-0.06159668,1.7586914,101.0
667,-0.05610466,0.25700474,-0.33668518,-1.183081,-0.22408448,1.4262818,101.0
668,0.04455757,0.027283669,-0.45576477,-1.183081,-0.22408448,1.4262818,101.0
669,0.04455757,0.027283669,-0.45576477,-1.3498169,-0.33878174,1.1915772,101.0
670,-0.09044075,-0.43427658,-0.42630005,-1.3498169,-0.33878174,1.1915772,101.0
671,-0.09044075,-0.43427658,-0.42630005,-1.3083985,-0.3971924,0.901648,101.0
672,-0.079395294,-0.9451628,-0.27323914,-1.3083985,-0.3971924,0.901648,101.0
673,-0.079395294,-0.9451628,-0.27323914,-1.2032593,-0.5012695,0.4067505,101.0
674,0.7562103,-1.2615376,-0.27311707,-1.2032593,-0.5012695,0.4067505,101.0
675,0.7562103,-1.2615376,-0.27311707,-1.0959961,-0.55968016,-0.2177124,101.0
676,1.488514,-1.5944471,-0.35682678,-1.0959961,-0.55968016,-0.2177124,101.0
677,1.488514,-1.5944471,-0.35682678,-0.58410645,-0.5150757,-0.544812,101.0
678,0.6922512,-1.8955526,-0.19494629,-0.58410645,-0.5150757,-0.544812,101.0
679,0.6922512,-1.8955526,-0.19494629,0.093457036,-0.52675784,-0.97067875,101.0
680,-1.0066605,-1.6962519,0.14776611,0.093457036,-0.52675784,-0.97067875,101.0
681,-1.0066605,-1.6962519,0.14776611,0.6202149,-0.48746338,-1.3275146,101.0
682,-1.8799381,-1.0289373,0.44725037,0.6202149,-0.48746338,-1.3275146,101.0
683,-1.8799381,-1.0289373,0.44725037,1.1671509,-0.43754885,-1.5303589,101.0
684,-1.4861774,-0.2513485,0.6875,1.1671509,-0.43754885,-1.5303589,101.0
685,-1.4861774,-0.2513485,0.6875,1.7236451,-0.41099855,-1.5685914,101.0
686,-0.69309235,0.4134102,0.83369446,1.7236451,-0.41099855,-1.5685914,101.0
687,-0.69309235,0.4134102,0.83369446,2.151636,-0.3430298,-1.5866455,101.0
688,-0.16199303,0.9343538,0.8426819,2.151636,-0.3430298,-1.5866455,101.0
689,-0.16199303,0.9343538,0.8426819,2.3130615,-0.32922363,-1.6089478,101.0
690,0.10431671,1.3429174,0.6884918,2.3130615,-0.32922363,-1.6089478,101.0
691,0.10431671,1.3429174,0.6884918,2.0932252,-0.37489015,-1.5993897,101.0
692,0.27087975,1.6279602,0.51815796,2.0932252,-0.37489015,-1.5993897,101.0
693,0.27087975,1.6279602,0.51815796,1.5600952,-0.41524658,-1.5908936,101.0
694,0.35621834,1.6863766,0.55563354,1.5600952,-0.41524658,-1.5908936,101.0
695,0.35621834,1.6863766,0.55563354,0.87403566,-0.4088745,-1.6386842,101.0
696,0.27954292,1.4902754,0.7577362,0.87403566,-0.4088745,-1.6386842,101.0
697,0.27954292,1.4902754,0.7577362,0.30161133,-0.38232422,-1.7979859,101.0
698,0.13080025,1.1616058,0.8618469,0.30161133,-0.38232422,-1.7979859,101.0
699,0.13080025,1.1616058,0.8618469,-0.23895264,-0.29417726,-1.902063,101.0
700,0.06560135,0.7367554,0.7093811,-0.23895264,-0.29417726,-1.902063,101.0
701,0.06560135,0.7367554,0.7093811,-0.4800293,-0.25063476,-1.9679078,101.0
702,0.10311508,0.28892803,0.3995514,-0.4800293,-0.25063476,-1.9679078,101.0
703,0.10311508,0.28892803,0.3995514,-0.33984375,-0.2177124,-1.9902099,101.0
704,0.23009872,0.05241871,0.14990234,-0.33984375,-0.2177124,-1.9902099,101.0
705,0.23009872,0.05241871,0.14990234,-0.0722168,-0.15611573,-1.9657837,101.0
706,0.35943222,0.037773132,0.053497314,-0.0722168,-0.15611573,-1.9657837,101.0
707,0.35943222,0.037773132,0.053497314,0.115759276,-0.16248779,-1.9466676,101.0
708,0.37295914,0.22356606,0.039352417,0.115759276,-0.16248779,-1.9466676,101.0
709,0.37295914,0.22356606,0.039352417,0.6042847,-0.06584473,-1.9073731,101.0
710,0.21557999,0.48424816,0.0013122559,0.6042847,-0.06584473,-1.9073731,101.0
711,0.21557999,0.48424816,0.0013122559,1.0259033,-0.08071289,-1.7109009,101.0
712,-0.01580429,0.73102665,-0.011932373,1.0259033,-0.08071289,-1.7109009,101.0
713,-0.01580429,0.73102665,-0.011932373,1.3423828,-0.058410645,-1.6163819,101.0
714,-0.17419052,1.0243111,-0.044769287,1.3423828,-0.058410645,-1.6163819,101.0
715,-0.17419052,1.0243111,-0.044769287,1.4517701,-0.047790527,-1.4677002,101.0
716,-0.26734352,1.2867708,-0.12524414,1.4517701,-0.047790527,-1.4677002,101.0
717,-0.26734352,1.2867708,-0.12524414,1.5197388,-0.029736329,-1.360437,101.0
718,-0.2223835,1.4137917,-0.20045471,1.5197388,-0.029736329,-1.360437,101.0
719,-0.2223835,1.4137917,-0.20045471,1.5579712,-0.022302246,-1.1692749,101.0
720,-0.017457962,1.4155178,-0.26252747,1.5579712,-0.022302246,-1.1692749,101.0
721,-0.017457962,1.4155178,-0.26252747,1.4740723,-0.028674318,-0.9674927,101.0
722,0.21544075,1.3821831,-0.34620667,1.4740723,-0.028674318,-0.9674927,101.0
723,0.21544075,1.3821831,-0.34620667,1.4294678,0.021240234,-0.7072998,101.0
724,0.30299187,1.4705296,-0.4970703,1.4294678,0.021240234,-0.7072998,101.0
725,0.30299187,1.4705296,-0.4970703,0.9791748,-0.007434082,-0.5171997,101.0
726,0.57287407,1.14427,-0.5999298,0.9791748,-0.007434082,-0.5171997,101.0
727,0.57287407,1.14427,-0.5999298,1.178833,0.09770508,-0.21558838,101.0
728,1.5039539,0.483593,-0.47763062,1.178833,0.09770508,-0.21558838,101.0
729,1.5039539,0.483593,-0.47763062,1.5930176,0.0180542,-0.02442627,101.0
730,2.1774197,0.46811295,-0.22076416,1.5930176,0.0180542,-0.02442627,101.0
731,2.1774197,0.46811295,-0.22076416,1.183081,0.083898924,0.4078125,101.0
732,1.3263111,0.93440247,-0.20959473,1.183081,0.083898924,0.4078125,101.0
733,1.3263111,0.93440247,-0.20959473,0.74022216,0.20603028,0.8581055,101.0
734,-0.4156723,1.1199589,-0.5762329,0.74022216,0.20603028,0.8581055,101.0
735,-0.4156723,1.1199589,-0.5762329,0.7317261,0.25594482,1.1692749,101.0
736,-1.3654232,0.93151474,-0.98457336,0.7317261,0.25594482,1.1692749,101.0
737,-1.3654232,0.93151474,-0.98457336,0.9611206,0.31010744,1.4655762,101.0
738,-0.92300224,0.6749611,-1.2002716,0.9611206,0.31010744,1.4655762,101.0
739,-0.92300224,0.6749611,-1.2002716,1.0673218,0.26550293,1.7066529,101.0
740,0.15058708,0.4741974,-1.2614899,1.0673218,0.26550293,1.7066529,101.0
741,0.15058708,0.4741974,-1.2614899,1.0004151,0.33878174,1.8786987,101.0
742,0.15058708,0.4741974,-1.2614899,1.0004151,0.33878174,1.8786987,100.0
743,0.9428692,0.17355919,-1.1643982,1.0004151,0.33878174,1.8786987,100.0
744,0.9428692,0.17355919,-1.1643982,1.0673218,0.35683593,1.988086,100.0
745,1.2459469,-0.19576073,-0.9578705,1.0673218,0.35683593,1.988086,100.0
746,1.2459469,-0.19576073,-0.9578705,1.2754761,0.3802002,2.0879152,100.0
747,1.2617607,-0.35612106,-0.73631287,1.2754761,0.3802002,2.0879152,100.0
748,1.2617607,-0.35612106,-0.73631287,1.3253907,0.40356445,2.1526978,100.0
749,1.1247654,-0.2964573,-0.57225037,1.3253907,0.40356445,2.1526978,100.0
750,1.1247654,-0.2964573,-0.57225037,1.2064453,0.4364868,2.1866822,100.0
751,0.8396797,-0.18283272,-0.47610474,1.2064453,0.4364868,2.1866822,100.0
752,0.8396797,-0.18283272,-0.47610474,1.0152832,0.4333008,2.2312868,100.0
753,0.40500832,-0.15125847,-0.4085083,1.0152832,0.4333008,2.2312868,100.0
754,0.40500832,-0.15125847,-0.4085083,0.8028809,0.42692873,2.2716432,100.0
755,-0.07512665,-0.25333023,-0.34498596,0.8028809,0.42692873,2.2716432,100.0
756,-0.07512665,-0.25333023,-0.34498596,0.6446411,0.40462646,2.265271,100.0
757,-0.39954376,-0.4517231,-0.32188416,0.6446411,0.40462646,2.265271,100.0
758,-0.39954376,-0.4517231,-0.32188416,0.53525394,0.362146,2.2514648,100.0
759,-0.5609436,-0.6746235,-0.3657837,0.53525394,0.362146,2.2514648,100.0
760,-0.5609436,-0.6746235,-0.3657837,0.4895874,0.3164795,2.2100465,100.0
761,-0.55856895,-0.8782253,-0.44958496,0.4895874,0.3164795,2.2100465,100.0
762,-0.55856895,-0.8782253,-0.44958496,0.5235718,0.28355715,2.1399536,100.0
763,-0.31895065,-0.98981285,-0.4925232,0.5235718,0.28355715,2.1399536,100.0
764,-0.31895065,-0.98981285,-0.4925232,0.54693604,0.28355715,2.0942872,100.0
765,-0.0034275055,-0.96326065,-0.4747467,0.54693604,0.28355715,2.0942872,100.0
766,-0.0034275055,-0.96326065,-0.4747467,0.5246338,0.271875,2.090039,100.0
767,0.17611504,-0.7572422,-0.41563416,0.5246338,0.271875,2.090039,100.0
768,0.17611504,-0.7572422,-0.41563416,0.4078125,0.23045655,2.080481,100.0
769,0.24098969,-0.3289013,-0.32766724,0.4078125,0.23045655,2.080481,100.0
770,0.24098969,-0.3289013,-0.32766724,0.14549561,0.1720459,1.9721558,100.0
771,0.20731735,0.18769646,-0.21603394,0.14549561,0.1720459,1.9721558,100.0
772,0.20731735,0.18769646,-0.21603394,-0.37382814,0.090270996,1.8744507,100.0
773,0.010385513,0.60687065,-0.19137573,-0.37382814,0.090270996,1.8744507,100.0
774,0.010385513,0.60687065,-0.19137573,-0.95793456,-0.011682129,1.6195679,100.0
775,-0.2233448,0.72104263,-0.26644897,-0.95793456,-0.011682129,1.6195679,100.0
776,-0.2233448,0.72104263,-0.26644897,-1.4931885,-0.06796875,1.264856,100.0
777,-0.2798729,0.30235863,-0.29737854,-1.4931885,-0.06796875,1.264856,100.0
778,-0.2798729,0.30235863,-0.29737854,-1.8213501,-0.15930176,0.94412845,100.0
779,0.21567726,-0.4498253,-0.18283081,-1.8213501,-0.15930176,0.94412845,100.0
780,0.21567726,-0.4498253,-0.18283081,-2.061365,-0.2548828,0.5129517,100.0
781,0.8135586,-0.81422997,-0.18208313,-2.061365,-0.2548828,0.5129517,100.0
782,0.8135586,-0.81422997,-0.18208313,-2.2323487,-0.33984375,0.18585205,100.0
783,3.5067787,-1.5334396,-0.48745728,-2.2323487,-0.33984375,0.18585205,100.0
784,3.5067787,-1.5334396,-0.48745728,-2.532898,-0.48746338,-0.5607422,100.0
785,3.1850853,-1.7513123,-0.624176,-2.532898,-0.48746338,-0.5607422,100.0
786,3.1850853,-1.7513123,-0.624176,-2.275891,-0.48533937,-0.58623046,100.0
787,-0.29416847,-2.989294,-0.07020569,-2.275891,-0.48533937,-0.58623046,100.0
788,-0.29416847,-2.989294,-0.07020569,-0.62764895,-0.71154785,-1.2170655,100.0
789,-1.6344185,-2.4646282,0.26478577,-0.62764895,-0.71154785,-1.2170655,100.0
790,-1.6344185,-2.4646282,0.26478577,-0.04141846,-0.68924564,-1.3445069,100.0
791,-3.347952,-0.95865345,1.2615967,-0.04141846,-0.68924564,-1.3445069,100.0
792,-3.347952,-0.95865345,1.2615967,1.1501588,-0.59047854,-1.4846925,100.0
793,-2.4884567,-0.009159088,1.1220093,1.1501588,-0.59047854,-1.4846925,100.0
794,-2.4884567,-0.009159088,1.1220093,1.4135376,-0.57454836,-1.4921265,100.0
795,-0.77233315,0.95849323,0.7735901,1.4135376,-0.57454836,-1.4921265,100.0
796,-0.77233315,0.95849323,0.7735901,2.263147,-0.50445557,-1.5271729,100.0
797,-0.22351837,1.0365095,0.4509735,2.263147,-0.50445557,-1.5271729,100.0
798,-0.22351837,1.0365095,0.4509735,2.4224489,-0.51188964,-1.4953126,100.0
799,0.39025307,0.87542343,0.09976196,2.4224489,-0.51188964,-1.4953126,100.0
800,0.39025307,0.87542343,0.09976196,2.0985353,-0.62552494,-1.449646,100.0
801,0.41957664,1.0613499,0.002105713,2.0985353,-0.62552494,-1.449646,100.0
802,0.41957664,1.0613499,0.002105713,1.7512573,-0.63614506,-1.5144287,100.0
803,0.53611374,1.5062695,0.31069946,1.7512573,-0.63614506,-1.5144287,100.0
804,0.53611374,1.5062695,0.31069946,0.42905274,-0.60959476,-1.7321411,100.0
805,0.43553162,1.5182476,0.39286804,0.42905274,-0.60959476,-1.7321411,100.0
806,0.43553162,1.5182476,0.39286804,0.06903076,-0.5766724,-1.7809937,100.0
807,0.093481064,0.955101,0.9826813,0.06903076,-0.5766724,-1.7809937,100.0
808,0.093481064,0.955101,0.9826813,-0.6138428,-0.43754885,-1.9976441,100.0
809,-0.07151604,0.71183395,0.89471436,-0.6138428,-0.43754885,-1.9976441,100.0
810,-0.07151604,0.71183395,0.89471436,-0.69986576,-0.36639404,-2.0326905,100.0
811,-0.3406353,0.2084446,0.7220764,-0.69986576,-0.36639404,-2.0326905,100.0
812,-0.3406353,0.2084446,0.7220764,-0.66269535,-0.29736328,-2.0401247,100.0
813,-0.51867485,-0.05524063,0.36669922,-0.66269535,-0.29736328,-2.0401247,100.0
814,-0.51867485,-0.05524063,0.36669922,-0.75721437,-0.26125488,-2.0443726,100.0
815,-0.49759293,-0.03187561,0.08995056,-0.75721437,-0.26125488,-2.0443726,100.0
816,-0.49759293,-0.03187561,0.08995056,-0.5777344,-0.18160401,-2.0040162,100.0
817,-0.31780052,0.12944221,-0.060012817,-0.5777344,-0.18160401,-2.0040162,100.0
818,-0.31780052,0.12944221,-0.060012817,-0.19116211,-0.078588866,-2.0295045,100.0
819,-0.19473076,0.13116646,-0.20822144,-0.19116211,-0.078588866,-2.0295045,100.0
820,-0.19473076,0.13116646,-0.20822144,0.45347902,-0.039294433,-1.9392334,100.0
821,-0.28854752,0.34049225,-0.23994446,0.45347902,-0.039294433,-1.9392334,100.0
822,-0.28854752,0.34049225,-0.23994446,0.6159668,-0.0361084,-1.9041871,100.0
823,-0.45633888,0.5951843,-0.3115387,0.6159668,-0.0361084,-1.9041871,100.0
824,-0.45633888,0.5951843,-0.3115387,0.85491943,-0.027612304,-1.7714356,100.0
825,-0.6844921,0.961462,-0.38339233,0.85491943,-0.027612304,-1.7714356,100.0
826,-0.6844921,0.961462,-0.38339233,0.88996583,0.02442627,-1.713025,100.0
827,-0.75510025,1.2296677,-0.4537201,0.88996583,0.02442627,-1.713025,100.0
828,-0.75510025,1.2296677,-0.4537201,0.94731444,0.043542482,-1.5292969,100.0
829,-0.5122471,1.2502384,-0.4750061,0.94731444,0.043542482,-1.5292969,100.0
830,-0.5122471,1.2502384,-0.4750061,1.0174073,0.07965088,-1.3232666,100.0
831,-0.1306839,1.2249947,-0.46072388,1.0174073,0.07965088,-1.3232666,100.0
832,-0.1306839,1.2249947,-0.46072388,0.9260742,0.078588866,-1.0768799,100.0
833,0.1600895,1.2315693,-0.38371277,0.9260742,0.078588866,-1.0768799,100.0
834,0.1600895,1.2315693,-0.38371277,0.5363159,0.14549561,-0.8400513,100.0
835,0.46474075,0.99035835,-0.36088562,0.5363159,0.14549561,-0.8400513,100.0
836,0.46474075,0.99035835,-0.36088562,0.49277344,0.25913087,-0.4885254,100.0
837,0.46474075,0.99035835,-0.36088562,0.49277344,0.25913087,-0.4885254,100.0
838,1.3928623,0.29351997,-0.28485107,0.49277344,0.25913087,-0.4885254,100.0
839,1.3928623,0.29351997,-0.28485107,0.9781128,0.18585205,-0.23364258,100.0
840,2.4952831,-0.050365448,-0.034866333,0.9781128,0.18585205,-0.23364258,100.0
841,2.4952831,-0.050365448,-0.034866333,0.79119873,0.1720459,0.21983643,100.0
842,2.0423927,0.40174866,0.05708313,0.79119873,0.1720459,0.21983643,100.0
843,2.0423927,0.40174866,0.05708313,0.11257324,0.22514649,0.74871826,100.0
844,-0.15279198,0.8299675,-0.18080139,0.11257324,0.22514649,0.74871826,100.0
845,-0.15279198,0.8299675,-0.18080139,0.058410645,0.26337892,1.2096313,100.0
846,-2.0021172,0.73963356,-0.5424042,0.058410645,0.26337892,1.2096313,100.0
847,-2.0021172,0.73963356,-0.5424042,0.4248047,0.2782471,1.6195679,100.0
848,-2.1403542,0.4718094,-0.76065063,0.4248047,0.2782471,1.6195679,100.0
849,-2.1403542,0.4718094,-0.76065063,0.6159668,0.3355957,1.9976441,100.0
850,-0.9841461,0.14806557,-0.8617401,0.6159668,0.3355957,1.9976441,100.0
851,-0.9841461,0.14806557,-0.8617401,0.6573853,0.4078125,2.2461548,100.0
852,0.40234375,-0.28066826,-0.95822144,0.6573853,0.4078125,2.2461548,100.0
853,0.40234375,-0.28066826,-0.95822144,0.7604004,0.42905274,2.4553711,100.0
854,1.4610481,-0.76153374,-1.0061493,0.7604004,0.42905274,2.4553711,100.0
855,1.4610481,-0.76153374,-1.0061493,1.0970582,0.45347902,2.5944946,100.0
856,2.1399078,-1.0032692,-0.88812256,1.0970582,0.45347902,2.5944946,100.0
857,2.1399078,-1.0032692,-0.88812256,1.4220337,0.48640138,2.6762695,100.0
858,2.4209957,-0.86271095,-0.5774689,1.4220337,0.48640138,2.6762695,100.0
859,2.4209957,-0.86271095,-0.5774689,1.1586548,0.5628662,2.8536255,100.0
860,2.162796,-0.57995224,-0.21707153,1.1586548,0.5628662,2.8536255,100.0
861,2.162796,-0.57995224,-0.21707153,0.72641605,0.5915405,2.897168,100.0
862,1.4110222,-0.421566,0.048736572,0.72641605,0.5915405,2.897168,100.0
863,1.4110222,-0.421566,0.048736572,0.081774905,0.5979126,3.0192993,100.0
864,0.4545498,-0.5721283,0.23277283,0.081774905,0.5979126,3.0192993,100.0
865,0.4545498,-0.5721283,0.23277283,-0.41099855,0.5957886,3.1138184,100.0
866,-0.31324005,-1.0047245,0.35159302,-0.41099855,0.5957886,3.1138184,100.0
867,-0.31324005,-1.0047245,0.35159302,-0.7168579,0.47790527,3.1881592,100.0
868,-0.77851105,-1.4304161,0.30473328,-0.7168579,0.47790527,3.1881592,100.0
869,-0.77851105,-1.4304161,0.30473328,-1.002539,0.3440918,3.2263916,100.0
870,-1.1007881,-1.8151588,0.07862854,-1.002539,0.3440918,3.2263916,100.0
871,-1.1007881,-1.8151588,0.07862854,-1.0482056,0.15823975,3.2359498,100.0
872,-1.2293739,-2.2337685,-0.22146606,-1.0482056,0.15823975,3.2359498,100.0
873,-1.2293739,-2.2337685,-0.22146606,-0.7593384,-0.0361084,3.163733,100.0
874,-1.1039219,-2.5329494,-0.46313477,-0.7593384,-0.0361084,3.163733,100.0
875,-1.1039219,-2.5329494,-0.46313477,-0.36533204,-0.12956543,3.0617797,100.0
876,-0.8371792,-2.5762377,-0.6171875,-0.36533204,-0.12956543,3.0617797,100.0
877,-0.8371792,-2.5762377,-0.6171875,0.027612304,-0.15930176,2.88761,100.0
878,-0.6057911,-2.4147253,-0.66181946,0.027612304,-0.15930176,2.88761,100.0
879,-0.6057911,-2.4147253,-0.66181946,0.3462158,-0.1529297,2.6752076,100.0
880,-0.5648823,-2.0893478,-0.57640076,0.3462158,-0.1529297,2.6752076,100.0
881,-0.5648823,-2.0893478,-0.57640076,0.4598511,-0.124255374,2.3343017,100.0
882,-0.71235466,-1.6854067,-0.40386963,0.4598511,-0.124255374,2.3343017,100.0
883,-0.71235466,-1.6854067,-0.40386963,0.31860352,-0.078588866,1.9371094,100.0
884,-0.94527435,-1.3641815,-0.22573853,0.31860352,-0.078588866,1.9371094,100.0
885,-0.94527435,-1.3641815,-0.22573853,0.070092775,-0.083898924,1.4698242,100.0
886,-1.1666069,-1.1845217,-0.07588196,0.070092775,-0.083898924,1.4698242,100.0
887,-1.1666069,-1.1845217,-0.07588196,-0.1359375,-0.0637207,1.0036011,100.0
888,-1.2152443,-1.118516,0.013015747,-0.1359375,-0.0637207,1.0036011,100.0
889,-1.2152443,-1.118516,0.013015747,-0.32922363,-0.07115479,0.5607422,100.0
890,-1.0216331,-1.021924,-0.007019043,-0.32922363,-0.07115479,0.5607422,100.0
891,-1.0216331,-1.021924,-0.007019043,-0.541626,-0.10513916,0.12531738,100.0
892,-0.5566006,-0.887681,-0.08305359,-0.541626,-0.10513916,0.12531738,100.0
893,-0.5566006,-0.887681,-0.08305359,-0.72641605,-0.05628662,-0.41206056,100.0
894,0.6205635,-0.83867264,-0.2665863,-0.72641605,-0.05628662,-0.41206056,100.0
895,0.6205635,-0.83867264,-0.2665863,-0.87191164,-0.090270996,-1.263794,100.0
896,2.2614403,-0.79046917,-0.5626526,-0.87191164,-0.090270996,-1.263794,100.0
897,2.2614403,-0.79046917,-0.5626526,-1.0875,-0.17523193,-1.9657837,100.0
898,2.613865,-0.7113066,-0.6537781,-1.0875,-0.17523193,-1.9657837,100.0
899,2.613865,-0.7113066,-0.6537781,-1.0747559,-0.19541016,-2.3119996,100.0
900,0.88941956,-0.6432152,-0.30725098,-1.0747559,-0.19541016,-2.3119996,100.0
901,0.88941956,-0.6432152,-0.30725098,-0.68499756,-0.25700685,-2.6444092,100.0
902,-1.2201176,-0.41094685,0.30891418,-0.68499756,-0.25700685,-2.6444092,100.0
903,-1.2201176,-0.41094685,0.30891418,-0.1539917,-0.20178223,-2.8355713,100.0
904,-1.9440517,0.15127182,0.8045807,-0.1539917,-0.20178223,-2.8355713,100.0
905,-1.9440517,0.15127182,0.8045807,0.23789063,-0.20709229,-2.9067261,100.0
906,-1.2305965,0.9866791,0.960022,0.23789063,-0.20709229,-2.9067261,100.0
907,-1.2305965,0.9866791,0.960022,0.6064087,-0.15930176,-2.975757,100.0
908,0.025484085,1.6643553,0.79959106,0.6064087,-0.15930176,-2.975757,100.0
909,0.025484085,1.6643553,0.79959106,1.0397094,-0.18372802,-3.068152,100.0
910,0.9890156,1.8568382,0.4842987,1.0397094,-0.18372802,-3.068152,100.0
911,0.9890156,1.8568382,0.4842987,1.355127,-0.1985962,-3.07771,100.0
912,1.3538227,1.8250208,0.16293335,1.355127,-0.1985962,-3.07771,100.0
913,1.3538227,1.8250208,0.16293335,1.3190186,-0.24213867,-3.062842,100.0
914,1.3479023,1.9201488,-0.095962524,1.3190186,-0.24213867,-3.062842,100.0
915,1.3479023,1.9201488,-0.095962524,0.9717407,-0.29311523,-3.0426636,100.0
916,1.181118,2.159275,-0.14805603,0.9717407,-0.29311523,-3.0426636,100.0
917,1.181118,2.159275,-0.14805603,0.68074954,-0.30267334,-2.9672608,100.0
918,0.8566742,2.3289099,0.083999634,0.68074954,-0.30267334,-2.9672608,100.0
919,0.8566742,2.3289099,0.083999634,0.3812622,-0.29205322,-2.9035401,100.0
920,0.4609127,2.3674364,0.41600037,0.3812622,-0.29205322,-2.9035401,100.0
921,0.4609127,2.3674364,0.41600037,-0.17416993,-0.26019287,-2.7845948,100.0
922,-9.1171265E-4,2.2428017,0.56321716,-0.17416993,-0.26019287,-2.7845948,100.0
923,-9.1171265E-4,2.2428017,0.56321716,-0.5649902,-0.19116211,-2.6380372,100.0
924,-0.4804287,1.8969879,0.4465332,-0.5649902,-0.19116211,-2.6380372,100.0
925,-0.4804287,1.8969879,0.4465332,-0.62552494,-0.27399904,-2.3757203,100.0
926,-0.685894,1.5756588,0.2755127,-0.62552494,-0.27399904,-2.3757203,100.0
927,-0.685894,1.5756588,0.2755127,-0.5872925,-0.28780517,-2.1951783,100.0
928,-0.58932686,1.3467331,0.18617249,-0.5872925,-0.28780517,-2.1951783,100.0
929,-0.58932686,1.3467331,0.18617249,-0.37701416,-0.2984253,-1.9381714,100.0
930,-0.44124794,1.189434,0.19889832,-0.37701416,-0.2984253,-1.9381714,100.0
931,-0.44124794,1.189434,0.19889832,-0.14761963,-0.33028564,-1.6960328,100.0
932,-0.43642235,1.1808815,0.19120789,-0.14761963,-0.33028564,-1.6960328,100.0
933,-0.43642235,1.1808815,0.19120789,-0.20709229,-0.32922363,-1.4857544,100.0
934,-0.6614914,1.0214748,-0.002532959,-0.20709229,-0.32922363,-1.4857544,100.0
935,-0.6614914,1.0214748,-0.002532959,0.12956543,-0.4078125,-1.2383057,100.0
936,-0.9861393,0.83257294,-0.2729187,0.12956543,-0.4078125,-1.2383057,100.0
937,-0.9861393,0.83257294,-0.2729187,0.32497558,-0.40037844,-1.0535157,100.0
938,-1.0888863,0.8639469,-0.40411377,0.32497558,-0.40037844,-1.0535157,100.0
939,-1.0888863,0.8639469,-0.40411377,0.36427003,-0.3525879,-0.87403566,100.0
940,-0.77077866,0.8329544,-0.35301208,0.36427003,-0.3525879,-0.87403566,100.0
941,-0.77077866,0.8329544,-0.35301208,0.4970215,-0.3164795,-0.72854006,100.0
942,-0.21802711,0.70038414,-0.18284607,0.4970215,-0.3164795,-0.72854006,100.0
943,-0.21802711,0.70038414,-0.18284607,0.59260255,-0.26019287,-0.51826173,100.0
944,0.1273365,0.5916786,0.009109497,0.59260255,-0.26019287,-0.51826173,100.0
945,0.1273365,0.5916786,0.009109497,0.5055176,-0.20072022,-0.30267334,100.0
946,0.1273365,0.5916786,0.009109497,0.5055176,-0.20072022,-0.30267334,100.0
947,0.13237381,0.57567406,0.079574585,0.5055176,-0.20072022,-0.30267334,100.0
948,0.13237381,0.57567406,0.079574585,0.26125488,-0.13275146,-0.11682129,100.0
949,0.41965675,0.3793869,0.17077637,0.26125488,-0.13275146,-0.11682129,100.0
950,0.41965675,0.3793869,0.17077637,0.24213867,0.0637207,0.06903076,100.0
951,1.4056225,-0.09794426,0.4618225,0.24213867,0.0637207,0.06903076,100.0
952,1.4056225,-0.09794426,0.4618225,0.41949463,0.12850343,0.29630128,100.0
953,1.8333244,-0.28762054,0.7331848,0.41949463,0.12850343,0.29630128,100.0
954,1.8333244,-0.28762054,0.7331848,0.21558838,0.20921631,0.7083618,100.0
955,0.6509361,0.10536575,0.51797485,0.21558838,0.20921631,0.7083618,100.0
956,0.6509361,0.10536575,0.51797485,-0.13168946,0.38232422,1.1246704,100.0
957,-0.8519554,0.47976303,-0.10661316,-0.13168946,0.38232422,1.1246704,100.0
958,-0.8519554,0.47976303,-0.10661316,-0.12319336,0.52038574,1.4751343,100.0
959,-1.208458,0.39335632,-0.5718231,-0.12319336,0.52038574,1.4751343,100.0
960,-1.208458,0.39335632,-0.5718231,0.10407715,0.56817627,1.910559,100.0
961,-0.5940132,0.119348526,-0.68070984,0.10407715,0.56817627,1.910559,100.0
962,-0.5940132,0.119348526,-0.68070984,0.2166504,0.6042847,2.3077514,100.0
963,0.23705673,-0.14778328,-0.6181183,0.2166504,0.6042847,2.3077514,100.0
964,0.23705673,-0.14778328,-0.6181183,0.27399904,0.6435791,2.5891845,100.0
965,1.0414772,-0.49337387,-0.5730438,0.27399904,0.6435791,2.5891845,100.0
966,1.0414772,-0.49337387,-0.5730438,0.60216063,0.6202149,2.9258423,100.0
967,1.7339878,-0.8209686,-0.5370331,0.60216063,0.6202149,2.9258423,100.0
968,1.7339878,-0.8209686,-0.5370331,0.7869507,0.66588134,2.9279664,100.0
969,2.2478466,-0.9715824,-0.3644104,0.7869507,0.66588134,2.9279664,100.0
970,2.2478466,-0.9715824,-0.3644104,0.43861085,0.70942384,3.068152,100.0
971,2.4436016,-1.122261,-0.07606506,0.43861085,0.70942384,3.068152,100.0
972,2.4436016,-1.122261,-0.07606506,0.20178223,0.72216797,3.068152,100.0
973,2.04702,-1.2919979,0.13258362,0.20178223,0.72216797,3.068152,100.0
974,2.04702,-1.2919979,0.13258362,-0.18903808,0.6966797,3.1170044,100.0
975,1.090044,-1.3384209,0.14344788,-0.18903808,0.6966797,3.1170044,100.0
976,1.090044,-1.3384209,0.14344788,-0.7423462,0.6552612,3.1223145,100.0
977,-0.14195442,-1.4374352,-0.047943115,-0.7423462,0.6552612,3.1223145,100.0
978,-0.14195442,-1.4374352,-0.047943115,-1.0864381,0.541626,3.087268,100.0
979,-1.1985245,-1.6531715,-0.2929077,-1.0864381,0.541626,3.087268,100.0
980,-1.1985245,-1.6531715,-0.2929077,-1.1841431,0.42799073,2.9991212,100.0
981,-1.7549496,-1.9235878,-0.4420929,-1.1841431,0.42799073,2.9991212,100.0
982,-1.7549496,-1.9235878,-0.4420929,-1.0651978,0.3069214,2.9067261,100.0
983,-1.8766403,-2.1671906,-0.4895172,-1.0651978,0.3069214,2.9067261,100.0
984,-1.8766403,-2.1671906,-0.4895172,-0.75296634,0.18797608,2.7803466,100.0
985,-1.7949753,-2.294983,-0.4998932,-0.75296634,0.18797608,2.7803466,100.0
986,-1.7949753,-2.294983,-0.4998932,-0.38763428,0.07540283,2.631665,100.0
987,-1.6498489,-2.262537,-0.52349854,-0.38763428,0.07540283,2.631665,100.0
988,-1.6498489,-2.262537,-0.52349854,0.0031860352,0.023364259,2.436255,100.0
989,-1.4700375,-2.0976763,-0.5290375,0.0031860352,0.023364259,2.436255,100.0
990,-1.4700375,-2.0976763,-0.5290375,0.3536499,-0.0053100586,2.2854493,100.0
991,-1.2346001,-1.8346224,-0.44892883,0.3536499,-0.0053100586,2.2854493,100.0
992,-1.2346001,-1.8346224,-0.44892883,0.5033936,0.0,2.0475585,100.0
993,-0.9528656,-1.5341043,-0.30897522,0.5033936,0.0,2.0475585,100.0
994,-0.9528656,-1.5341043,-0.30897522,0.4715332,-0.0010620117,1.7300171,100.0
995,-0.70401573,-1.282484,-0.18336487,0.4715332,-0.0010620117,1.7300171,100.0
996,-0.70401573,-1.282484,-0.18336487,0.31329346,-0.009558106,1.3869873,100.0
997,-0.5766773,-1.1182728,-0.05305481,0.31329346,-0.009558106,1.3869873,100.0
998,-0.5766773,-1.1182728,-0.05305481,0.09451904,-0.04248047,0.9834229,100.0
999,-0.57009506,-1.1058731,0.1254425,0.09451904,-0.04248047,0.9834229,100.0
1000,-0.57009506,-1.1058731,0.1254425,-0.06159668,-0.095581055,0.54375,100.0
1001,-0.5759239,-1.1994324,0.30285645,-0.06159668,-0.095581055,0.54375,100.0
1002,-0.5759239,-1.1994324,0.30285645,-0.07115479,-0.19541016,0.12531738,100.0
1003,-0.34198952,-1.2533941,0.41638184,-0.07115479,-0.19541016,0.12531738,100.0
1004,-0.34198952,-1.2533941,0.41638184,-0.050976563,-0.21558838,-0.36427003,100.0
1005,0.6229782,-1.1460876,0.37249756,-0.050976563,-0.21558838,-0.36427003,100.0
1006,0.6229782,-1.1460876,0.37249756,-0.13699952,-0.2442627,-1.0673218,100.0
1007,2.0470276,-0.84746075,0.16784668,-0.13699952,-0.2442627,-1.0673218,100.0
1008,2.0470276,-0.84746075,0.16784668,-0.28568116,-0.25806886,-1.7045288,100.0
1009,2.4132576,-0.49971008,-0.03425598,-0.28568116,-0.25806886,-1.7045288,100.0
1010,2.4132576,-0.49971008,-0.03425598,-0.2984253,-0.37382814,-2.0677369,100.0
1011,1.0434971,-0.1856451,-0.051834106,-0.2984253,-0.37382814,-2.0677369,100.0
1012,1.0434971,-0.1856451,-0.051834106,-0.12213135,-0.47790527,-2.3789062,100.0
1013,-0.6252003,0.15397358,0.18850708,-0.12213135,-0.47790527,-2.3789062,100.0
1014,-0.6252003,0.15397358,0.18850708,0.16036378,-0.4609131,-2.5690064,100.0
1015,-1.180666,0.5940037,0.6009979,0.16036378,-0.4609131,-2.5690064,100.0
1016,-1.180666,0.5940037,0.6009979,0.43011475,-0.38763428,-2.5498903,100.0
1017,-0.6918106,1.1873121,0.8822479,0.43011475,-0.38763428,-2.5498903,100.0
1018,-0.6918106,1.1873121,0.8822479,0.6711914,-0.3058594,-2.524402,100.0
1019,0.08303833,1.7816238,0.7715912,0.6711914,-0.3058594,-2.524402,100.0
1020,0.08303833,1.7816238,0.7715912,0.7391602,-0.25913087,-2.5509522,100.0
1021,0.6435299,2.103119,0.31799316,0.7391602,-0.25913087,-2.5509522,100.0
1022,0.6435299,2.103119,0.31799316,0.52250975,-0.25063476,-2.616797,100.0
1023,0.917326,2.102539,-0.20973206,0.52250975,-0.25063476,-2.616797,100.0
1024,0.917326,2.102539,-0.20973206,0.11257324,-0.26125488,-2.6752076,100.0
1025,0.9722271,1.9518433,-0.45458984,0.11257324,-0.26125488,-2.6752076,100.0
1026,0.9722271,1.9518433,-0.45458984,-0.3536499,-0.25700685,-2.6964478,100.0
1027,0.83740044,1.8307981,-0.27793884,-0.3536499,-0.25700685,-2.6964478,100.0
1028,0.83740044,1.8307981,-0.27793884,-0.6595093,-0.22939454,-2.6614015,100.0
1029,0.59960747,1.7286158,0.1365509,-0.6595093,-0.22939454,-2.6614015,100.0
1030,0.59960747,1.7286158,0.1365509,-0.94625247,-0.16992188,-2.6635253,100.0
1031,0.30275726,1.5454407,0.4656372,-0.94625247,-0.16992188,-2.6635253,100.0
1032,0.30275726,1.5454407,0.4656372,-1.0067872,-0.16885987,-2.5817506,100.0
1033,-0.015838623,1.3818483,0.51545715,-1.0067872,-0.16885987,-2.5817506,100.0
1034,-0.015838623,1.3818483,0.51545715,-1.3678712,-0.12000733,-2.4978516,100.0
1035,-0.22612381,1.2660255,0.29663086,-1.3678712,-0.12000733,-2.4978516,100.0
1036,-0.22612381,1.2660255,0.29663086,-1.5016845,-0.057348635,-2.4787354,100.0
1037,-0.27986145,1.078434,0.008956909,-1.5016845,-0.057348635,-2.4787354,100.0
1038,-0.27986145,1.078434,0.008956909,-1.0747559,-0.14655761,-2.2896974,100.0
1039,-0.23122597,1.0022011,-0.15345764,-1.0747559,-0.14655761,-2.2896974,100.0
1040,-0.23122597,1.0022011,-0.15345764,-0.77526855,-0.15505372,-2.1888063,100.0
1041,-0.18522644,1.0413246,-0.1653595,-0.77526855,-0.15505372,-2.1888063,100.0
1042,-0.18522644,1.0413246,-0.1653595,-0.3812622,-0.19116211,-2.0284424,100.0
1043,-0.2588501,1.0078773,-0.11985779,-0.3812622,-0.19116211,-2.0284424,100.0
1044,-0.2588501,1.0078773,-0.11985779,0.12850343,-0.25594482,-1.8850708,100.0
1045,-0.43062782,1.0398464,-0.104278564,0.12850343,-0.25594482,-1.8850708,100.0
1046,-0.43062782,1.0398464,-0.104278564,0.41949463,-0.2899292,-1.7332032,100.0
1047,-0.5355053,1.1873703,-0.050231934,0.41949463,-0.2899292,-1.7332032,100.0
1048,-0.5355053,1.1873703,-0.050231934,0.52888185,-0.28568116,-1.5930176,100.0
1049,-0.52503586,1.3328304,0.079422,0.52888185,-0.28568116,-1.5930176,100.0
1050,-0.52503586,1.3328304,0.079422,0.52888185,-0.28568116,-1.5930176,101.0
1051,-0.52503586,1.3328304,0.079422,0.46516114,-0.24851075,-1.4613281,101.0
1052,-0.5381317,1.2751637,0.22634888,0.46516114,-0.24851075,-1.4613281,101.0
1053,-0.5381317,1.2751637,0.22634888,0.33028564,-0.1901001,-1.2924683,101.0
1054,-0.57938194,1.0421772,0.27381897,0.33028564,-0.1901001,-1.2924683,101.0
1055,-0.57938194,1.0421772,0.27381897,0.33878174,-0.16142578,-1.1501588,101.0
1056,-0.52778816,0.9591198,0.19110107,0.33878174,-0.16142578,-1.1501588,101.0
1057,-0.52778816,0.9591198,0.19110107,0.08071289,-0.08602295,-0.9515625,101.0
1058,-0.38999176,0.9376564,0.07218933,0.08071289,-0.08602295,-0.9515625,101.0
1059,-0.38999176,0.9376564,0.07218933,-0.15823975,0.010620117,-0.71791995,101.0
1060,0.25949097,0.548893,0.18882751,-0.15823975,0.010620117,-0.71791995,101.0
1061,0.25949097,0.548893,0.18882751,-0.026550293,0.16567384,-0.47896728,101.0
1062,1.425024,0.048196793,0.5454407,-0.026550293,0.16567384,-0.47896728,101.0
1063,1.425024,0.048196793,0.5454407,-0.016992187,0.13487549,-0.11044922,101.0
1064,1.5777016,0.0881176,0.7436981,-0.016992187,0.13487549,-0.11044922,101.0
1065,1.5777016,0.0881176,0.7436981,-0.41312256,0.12000733,0.40356445,101.0
1066,-0.008735657,0.5007191,0.50953674,-0.41312256,0.12000733,0.40356445,101.0
1067,-0.008735657,0.5007191,0.50953674,-0.6180908,0.1731079,0.89102787,101.0
1068,-1.7685127,0.71131706,0.056732178,-0.6180908,0.1731079,0.89102787,101.0
1069,-1.7685127,0.71131706,0.056732178,-0.3791382,0.21452637,1.3073364,101.0
1070,-2.116665,0.5872536,-0.26127625,-0.3791382,0.21452637,1.3073364,101.0
1071,-2.116665,0.5872536,-0.26127625,-0.06478272,0.2516968,1.7576294,101.0
1072,-1.166317,0.27326965,-0.3792572,-0.06478272,0.2516968,1.7576294,101.0
1073,-1.166317,0.27326965,-0.3792572,0.10620117,0.31223145,2.1123414,101.0
1074,0.15935326,-0.16070557,-0.44387817,0.10620117,0.31223145,2.1123414,101.0
1075,0.15935326,-0.16070557,-0.44387817,0.20709229,0.35683593,2.352356,101.0
1076,1.2149944,-0.58693886,-0.5352478,0.20709229,0.35683593,2.352356,101.0
1077,1.2149944,-0.58693886,-0.5352478,0.31860352,0.36427003,2.5392702,101.0
1078,2.0274162,-1.0062695,-0.69252014,0.31860352,0.36427003,2.5392702,101.0
1079,2.0274162,-1.0062695,-0.69252014,1.2499878,0.2081543,2.8918579,101.0
1080,2.5010338,-1.2950535,-0.881485,1.2499878,0.2081543,2.8918579,101.0
1081,2.5010338,-1.2950535,-0.881485,3.1350586,-0.093457036,2.9449584,101.0
1082,2.4845924,-0.57868195,-0.6853485,3.1350586,-0.093457036,2.9449584,101.0
1083,2.4845924,-0.57868195,-0.6853485,1.6779785,0.630835,2.7654786,101.0
1084,1.996891,0.1888256,-0.0024719238,1.6779785,0.630835,2.7654786,101.0
1085,1.996891,0.1888256,-0.0024719238,-0.3175415,1.0259033,2.5615723,101.0
1086,0.9637966,-0.49082184,0.54748535,-0.3175415,1.0259033,2.5615723,101.0
1087,0.9637966,-0.49082184,0.54748535,-0.21346436,0.61065674,2.907788,101.0
1088,-0.114486694,-1.2931099,0.50167847,-0.21346436,0.61065674,2.907788,101.0
1089,-0.114486694,-1.2931099,0.50167847,-0.1359375,0.46622315,2.7431762,101.0
1090,-0.7023449,-1.191433,0.18130493,-0.1359375,0.46622315,2.7431762,101.0
1091,-0.7023449,-1.191433,0.18130493,-1.0322754,0.53100586,2.6921997,101.0
1092,-1.0018291,-1.1107388,-0.07788086,-1.0322754,0.53100586,2.6921997,101.0
1093,-1.0018291,-1.1107388,-0.07788086,-1.6185058,0.45454103,2.6539674,101.0
1094,-1.2702866,-1.6577797,-0.25624084,-1.6185058,0.45454103,2.6539674,101.0
1095,-1.2702866,-1.6577797,-0.25624084,-1.4889405,0.32497558,2.6635253,101.0
1096,-1.382,-2.269474,-0.39907837,-1.4889405,0.32497558,2.6635253,101.0
1097,-1.382,-2.269474,-0.39907837,-1.0768799,0.2262085,2.5711305,101.0
1098,-1.229393,-2.4201202,-0.5136566,-1.0768799,0.2262085,2.5711305,101.0
1099,-1.229393,-2.4201202,-0.5136566,-0.6881836,0.16992188,2.5063477,101.0
1100,-0.8890934,-2.1644897,-0.54841614,-0.6881836,0.16992188,2.5063477,101.0
1101,-0.8890934,-2.1644897,-0.54841614,-0.4067505,0.12531738,2.3704102,101.0
1102,-0.5387287,-1.6275387,-0.46652222,-0.4067505,0.12531738,2.3704102,101.0
1103,-0.5387287,-1.6275387,-0.46652222,-0.27506104,0.1178833,2.0571167,101.0
1104,-0.36491966,-1.0376759,-0.31001282,-0.27506104,0.1178833,2.0571167,101.0
1105,-0.36491966,-1.0376759,-0.31001282,-0.29948732,0.10938721,1.6960328,101.0
1106,-0.30239677,-0.69129753,-0.16099548,-0.29948732,0.10938721,1.6960328,101.0
1107,-0.30239677,-0.69129753,-0.16099548,-0.41418457,0.11257324,1.2489258,101.0
1108,-0.25192642,-0.7038193,-0.07472229,-0.41418457,0.11257324,1.2489258,101.0
1109,-0.25192642,-0.7038193,-0.07472229,-0.64782715,0.12319336,0.82836914,101.0
1110,-0.29899025,-1.013422,-0.07266235,-0.64782715,0.12319336,0.82836914,101.0
1111,-0.29899025,-1.013422,-0.07266235,-0.8358032,0.11469727,0.41206056,101.0
1112,-0.47223663,-1.4046459,-0.111587524,-0.8358032,0.11469727,0.41206056,101.0
1113,-0.47223663,-1.4046459,-0.111587524,-0.81668705,0.093457036,0.023364259,101.0
1114,-0.51908493,-1.6751328,-0.092819214,-0.81668705,0.093457036,0.023364259,101.0
1115,-0.51908493,-1.6751328,-0.092819214,-0.5628662,0.08071289,-0.4067505,101.0
1116,0.19217873,-1.7249451,-0.023620605,-0.5628662,0.08071289,-0.4067505,101.0
1117,0.19217873,-1.7249451,-0.023620605,-0.16036378,0.06265869,-1.0598878,101.0
1118,1.6016674,-1.5326052,0.011947632,-0.16036378,0.06265869,-1.0598878,101.0
1119,1.6016674,-1.5326052,0.011947632,0.22302246,0.023364259,-1.6153198,101.0
1120,2.2187977,-1.1523905,0.0839386,0.22302246,0.023364259,-1.6153198,101.0
1121,2.2187977,-1.1523905,0.0839386,0.61915284,-0.047790527,-1.906311,101.0
1122,1.1253433,-0.6113529,0.25575256,0.61915284,-0.047790527,-1.906311,101.0
1123,1.1253433,-0.6113529,0.25575256,0.8963379,-0.13062744,-2.2100465,101.0
1124,-0.5296211,0.036014557,0.45796204,0.8963379,-0.13062744,-2.2100465,101.0
1125,-0.5296211,0.036014557,0.45796204,1.1692749,-0.19116211,-2.3672242,101.0
1126,-1.3018093,0.6610012,0.619339,1.1692749,-0.19116211,-2.3672242,101.0
1127,-1.3018093,0.6610012,0.619339,1.4687623,-0.25913087,-2.3937745,101.0
1128,-1.1717072,1.18925,0.7297821,1.4687623,-0.25913087,-2.3937745,101.0
1129,-1.1717072,1.18925,0.7297821,1.7523193,-0.32497558,-2.2907593,101.0
1130,-0.7723274,1.6381674,0.74679565,1.7523193,-0.32497558,-2.2907593,101.0
1131,-0.7723274,1.6381674,0.74679565,1.9073731,-0.34940186,-2.1452637,101.0
1132,-0.3970375,2.036584,0.57676697,1.9073731,-0.34940186,-2.1452637,101.0
1133,-0.3970375,2.036584,0.57676697,1.627002,-0.34940186,-2.0008302,101.0
1134,-0.1328392,2.3486156,0.17868042,1.627002,-0.34940186,-2.0008302,101.0
1135,-0.1328392,2.3486156,0.17868042,1.0004151,-0.36533204,-1.8457764,101.0
1136,0.026138306,2.4775257,-0.2575531,1.0004151,-0.36533204,-1.8457764,101.0
1137,0.026138306,2.4775257,-0.2575531,0.29948732,-0.3727661,-1.7799317,101.0
1138,0.1469841,2.366188,-0.40620422,0.29948732,-0.3727661,-1.7799317,101.0
1139,0.1469841,2.366188,-0.40620422,-0.32391357,-0.35046387,-1.7501954,101.0
1140,0.29395485,1.988348,-0.220047,-0.32391357,-0.35046387,-1.7501954,101.0
1141,0.29395485,1.988348,-0.220047,-0.83686525,-0.27293703,-1.7501954,101.0
1142,0.29395485,1.988348,-0.220047,-0.83686525,-0.27293703,-1.7501954,100.0
1143,0.38040352,1.4658985,0.031341553,-0.83686525,-0.27293703,-1.7501954,100.0
1144,0.38040352,1.4658985,0.031341553,-1.175647,-0.29099122,-1.7342652,100.0
1145,0.25681305,1.0224495,0.13383484,-1.175647,-0.29099122,-1.7342652,100.0
1146,0.25681305,1.0224495,0.13383484,-1.5707153,-0.22939454,-1.7576294,100.0
1147,0.039678574,0.65857315,0.08956909,-1.5707153,-0.22939454,-1.7576294,100.0
1148,0.039678574,0.65857315,0.08956909,-1.8224121,-0.18266602,-1.7958618,100.0
1149,-0.130867,0.36971664,-0.011871338,-1.8224121,-0.18266602,-1.7958618,100.0
1150,-0.130867,0.36971664,-0.011871338,-1.9392334,-0.18266602,-1.8202881,100.0
1151,-0.19937134,0.21578026,-0.12413025,-1.9392334,-0.18266602,-1.8202881,100.0
1152,-0.19937134,0.21578026,-0.12413025,-1.7586914,-0.1539917,-1.8298463,100.0
1153,-0.18988037,0.15571785,-0.15357971,-1.7586914,-0.1539917,-1.8298463,100.0
1154,-0.18988037,0.15571785,-0.15357971,-1.3784913,-0.15080567,-1.8627685,100.0
1155,-0.25964355,0.15599442,-0.074020386,-1.3784913,-0.15080567,-1.8627685,100.0
1156,-0.25964355,0.15599442,-0.074020386,-0.79332274,-0.12850343,-1.8202881,100.0
1157,-0.49733925,0.2214508,-0.02684021,-0.79332274,-0.12850343,-1.8202881,100.0
1158,-0.49733925,0.2214508,-0.02684021,-0.11363526,-0.16885987,-1.7236451,100.0
1159,-0.6721401,0.439991,-0.04258728,-0.11363526,-0.16885987,-1.7236451,100.0
1160,-0.6721401,0.439991,-0.04258728,0.36427003,-0.20390625,-1.6726685,100.0
1161,-0.5233078,0.66809464,-0.021194458,0.36427003,-0.20390625,-1.6726685,100.0
1162,-0.5233078,0.66809464,-0.021194458,0.7593384,-0.21346436,-1.6089478,100.0
1163,-0.12776566,0.6588898,0.07978821,0.7593384,-0.21346436,-1.6089478,100.0
1164,-0.12776566,0.6588898,0.07978821,1.1639649,-0.19753419,-1.4592041,100.0
1165,0.27676582,0.64406776,0.21711731,1.1639649,-0.19753419,-1.4592041,100.0
1166,0.27676582,0.64406776,0.21711731,1.4443359,-0.16779785,-1.2924683,100.0
1167,0.46279526,0.8867016,0.3059845,1.4443359,-0.16779785,-1.2924683,100.0
1168,0.46279526,0.8867016,0.3059845,1.2776002,-0.15611573,-1.0673218,100.0
1169,0.72447205,1.0055523,0.35232544,1.2776002,-0.15611573,-1.0673218,100.0
1170,0.72447205,1.0055523,0.35232544,1.1151123,0.03079834,-0.8358032,100.0
1171,1.683361,0.6720314,0.5261841,1.1151123,0.03079834,-0.8358032,100.0
1172,1.683361,0.6720314,0.5261841,1.1852051,-0.0063720704,-0.55755615,100.0
1173,2.3795261,0.53951645,0.74043274,1.1852051,-0.0063720704,-0.55755615,100.0
1174,2.3795261,0.53951645,0.74043274,0.8241211,-0.032922365,-0.016992187,100.0
1175,1.2196503,0.9908409,0.69667053,0.8241211,-0.032922365,-0.016992187,100.0
1176,1.2196503,0.9908409,0.69667053,0.06478272,0.032922365,0.52038574,100.0
1177,-1.0773811,1.3497162,0.33659363,0.06478272,0.032922365,0.52038574,100.0
1178,-1.0773811,1.3497162,0.33659363,-0.2442627,0.13487549,0.93775636,100.0
1179,-2.4675694,1.1851082,-0.0871582,-0.2442627,0.13487549,0.93775636,100.0
1180,-2.4675694,1.1851082,-0.0871582,-0.1985962,0.21027832,1.3360108,100.0
1181,-2.2639484,0.70228577,-0.3456421,-0.1985962,0.21027832,1.3360108,100.0
1182,-2.2639484,0.70228577,-0.3456421,-0.15930176,0.2899292,1.7873658,100.0
1183,-1.1730976,0.084106445,-0.49005127,-0.15930176,0.2899292,1.7873658,100.0
1184,-1.1730976,0.084106445,-0.49005127,0.029736329,0.3717041,2.075171,100.0
1185,0.060863495,-0.44620323,-0.59199524,0.029736329,0.3717041,2.075171,100.0
1186,0.060863495,-0.44620323,-0.59199524,-0.05628662,0.4980835,2.3194337,100.0
1187,1.1894741,-0.8932781,-0.6698456,-0.05628662,0.4980835,2.3194337,100.0
1188,1.1894741,-0.8932781,-0.6698456,0.47896728,0.452417,2.531836,100.0
1189,2.0372486,-1.1133289,-0.65141296,0.47896728,0.452417,2.531836,100.0
1190,2.0372486,-1.1133289,-0.65141296,0.7508423,0.50020754,2.5137818,100.0
1191,2.337696,-1.0319481,-0.48550415,0.7508423,0.50020754,2.5137818,100.0
1192,2.337696,-1.0319481,-0.48550415,0.8241211,0.5331299,2.6486573,100.0
1193,2.0828896,-0.8931236,-0.16078186,0.8241211,0.5331299,2.6486573,100.0
1194,2.0828896,-0.8931236,-0.16078186,0.57454836,0.62127686,2.6815796,100.0
1195,1.4433365,-0.67826843,0.11903381,0.57454836,0.62127686,2.6815796,100.0
1196,1.4433365,-0.67826843,0.11903381,-0.0637207,0.6467652,2.7113159,100.0
1197,0.5401077,-0.5425167,0.19111633,-0.0637207,0.6467652,2.7113159,100.0
1198,0.5401077,-0.5425167,0.19111633,-0.8496094,0.62977296,2.7336183,100.0
1199,-0.3786068,-0.76714325,0.09347534,-0.8496094,0.62977296,2.7336183,100.0
1200,-0.3786068,-0.76714325,0.09347534,-1.2818482,0.55543214,2.7229981,100.0
1201,-0.9864063,-1.2676086,-0.09024048,-1.2818482,0.55543214,2.7229981,100.0
1202,-0.9864063,-1.2676086,-0.09024048,-1.4931885,0.4056885,2.6656494,100.0
1203,-1.1910172,-1.7373543,-0.30796814,-1.4931885,0.4056885,2.6656494,100.0
1204,-1.1910172,-1.7373543,-0.30796814,-1.5186768,0.29523927,2.6720216,100.0
1205,-1.1952095,-2.0800438,-0.49111938,-1.5186768,0.29523927,2.6720216,100.0
1206,-1.1952095,-2.0800438,-0.49111938,-1.2542359,0.1901001,2.6051147,100.0
1207,-1.1309357,-2.2264729,-0.5700836,-1.2542359,0.1901001,2.6051147,100.0
1208,-1.1309357,-2.2264729,-0.5700836,-0.8326172,0.08283692,2.4702394,100.0
1209,-0.9557991,-2.078761,-0.54663086,-0.8326172,0.08283692,2.4702394,100.0
1210,-0.9557991,-2.078761,-0.54663086,-0.49171144,0.04991455,2.3268678,100.0
1211,-0.7210617,-1.7240925,-0.4728546,-0.49171144,0.04991455,2.3268678,100.0
1212,-0.7210617,-1.7240925,-0.4728546,-0.21027832,0.020178223,2.090039,100.0
1213,-0.5003605,-1.307765,-0.38258362,-0.21027832,0.020178223,2.090039,100.0
1214,-0.5003605,-1.307765,-0.38258362,-0.15080567,0.035046387,1.7852417,100.0
1215,-0.34202385,-1.0551233,-0.3072052,-0.15080567,0.035046387,1.7852417,100.0
1216,-0.34202385,-1.0551233,-0.3072052,-0.21240234,0.019116212,1.4730103,100.0
1217,-0.28499603,-1.05937,-0.23690796,-0.21240234,0.019116212,1.4730103,100.0
1218,-0.28499603,-1.05937,-0.23690796,-0.2899292,-0.014868164,1.1363525,100.0
1219,-0.30703735,-1.1325426,-0.09210205,-0.2899292,-0.014868164,1.1363525,100.0
1220,-0.30703735,-1.1325426,-0.09210205,-0.33240968,-0.04141846,0.7582764,100.0
1221,-0.44576454,-1.1209517,0.08560181,-0.33240968,-0.04141846,0.7582764,100.0
1222,-0.44576454,-1.1209517,0.08560181,-0.33771974,-0.087084964,0.37489015,100.0
1223,-0.6883259,-1.0636196,0.19924927,-0.33771974,-0.087084964,0.37489015,100.0
1224,-0.6883259,-1.0636196,0.19924927,-0.23364258,-0.11363526,0.008496094,100.0
1225,-0.5899792,-1.0736494,0.2424469,-0.23364258,-0.11363526,0.008496094,100.0
1226,-0.5899792,-1.0736494,0.2424469,-0.0361084,-0.06903076,-0.49171144,100.0
1227,0.40299225,-1.090292,0.20227051,-0.0361084,-0.06903076,-0.49171144,100.0
1228,0.40299225,-1.090292,0.20227051,0.1083252,-0.026550293,-1.0821899,100.0
1229,1.7153263,-0.9486618,0.05079651,0.1083252,-0.026550293,-1.0821899,100.0
1230,1.7153263,-0.9486618,0.05079651,0.09133301,-0.050976563,-1.5802735,100.0
1231,1.9062576,-0.6689396,-0.09480286,0.09133301,-0.050976563,-1.5802735,100.0
1232,1.9062576,-0.6689396,-0.09480286,0.1444336,-0.08602295,-1.9041871,100.0
1233,0.728302,-0.33285713,-0.006149292,0.1444336,-0.08602295,-1.9041871,100.0
1234,0.728302,-0.33285713,-0.006149292,0.4078125,-0.08496094,-2.2227905,100.0
1235,-0.49196815,0.11871147,0.3274994,0.4078125,-0.08496094,-2.2227905,100.0
1236,-0.49196815,0.11871147,0.3274994,0.59472656,-0.045666505,-2.3682861,100.0
1237,-0.8117142,0.679039,0.68304443,0.59472656,-0.045666505,-2.3682861,100.0
1238,-0.8117142,0.679039,0.68304443,0.6818115,-0.010620117,-2.4054565,100.0
1239,-0.5076103,1.1667538,0.8612976,0.6818115,-0.010620117,-2.4054565,100.0
1240,-0.5076103,1.1667538,0.8612976,0.77951664,-0.015930176,-2.4224489,100.0
1241,-0.0790863,1.4863081,0.8404999,0.77951664,-0.015930176,-2.4224489,100.0
1242,-0.0790863,1.4863081,0.8404999,0.76358646,-0.046728518,-2.4755495,100.0
1243,0.29076004,1.7088823,0.6222534,0.76358646,-0.046728518,-2.4755495,100.0
1244,0.29076004,1.7088823,0.6222534,0.4354248,-0.0637207,-2.5052857,100.0
1245,0.4443264,1.8410931,0.26235962,0.4354248,-0.0637207,-2.5052857,100.0
1246,0.4443264,1.8410931,0.26235962,0.4354248,-0.0637207,-2.5052857,99.0
1247,0.4443264,1.8410931,0.26235962,0.05628662,-0.058410645,-2.4904175,99.0
1248,0.3498459,1.8429909,-0.035446167,0.05628662,-0.058410645,-2.4904175,99.0
1249,0.3498459,1.8429909,-0.035446167,-0.20496826,-0.06478272,-2.4574952,99.0
1250,0.19804001,1.7498198,-0.0970459,-0.20496826,-0.06478272,-2.4574952,99.0
1251,0.19804001,1.7498198,-0.0970459,-0.43754885,-0.016992187,-2.441565,99.0
1252,0.05586815,1.5666885,0.058395386,-0.43754885,-0.016992187,-2.441565,99.0
1253,0.05586815,1.5666885,0.058395386,-0.6074707,0.014868164,-2.3831544,99.0
1254,-0.14973831,1.3561583,0.23596191,-0.6074707,0.014868164,-2.3831544,99.0
1255,-0.14973831,1.3561583,0.23596191,-0.7678345,0.050976563,-2.3258057,99.0
1256,-0.34923363,1.165102,0.26138306,-0.7678345,0.050976563,-2.3258057,99.0
1257,-0.34923363,1.165102,0.26138306,-0.7657105,0.07327881,-2.2344728,99.0
1258,-0.39746475,1.0084972,0.1627655,-0.7657105,0.07327881,-2.2344728,99.0
1259,-0.39746475,1.0084972,0.1627655,-0.7041138,0.078588866,-2.1813722,99.0
1260,-0.40154266,0.9180527,0.085754395,-0.7041138,0.078588866,-2.1813722,99.0
1261,-0.40154266,0.9180527,0.085754395,-0.45347902,0.047790527,-2.0146363,99.0
1262,-0.48643112,0.98822594,0.07910156,-0.45347902,0.047790527,-2.0146363,99.0
1263,-0.48643112,0.98822594,0.07910156,-0.30267334,0.059472658,-1.9328613,99.0
1264,-0.56596375,1.187212,0.11413574,-0.30267334,0.059472658,-1.9328613,99.0
1265,-0.56596375,1.187212,0.11413574,-0.271875,0.081774905,-1.81604,99.0
1266,-0.6022816,1.1259537,0.13941956,-0.271875,0.081774905,-1.81604,99.0
1267,-0.6022816,1.1259537,0.13941956,-0.047790527,0.016992187,-1.6365601,99.0
1268,-0.57694244,0.94042397,0.12402344,-0.047790527,0.016992187,-1.6365601,99.0
1269,-0.57694244,0.94042397,0.12402344,0.11363526,0.011682129,-1.5016845,99.0
1270,-0.37670326,0.9657059,0.15194702,0.11363526,0.011682129,-1.5016845,99.0
1271,-0.37670326,0.9657059,0.15194702,-0.023364259,0.038232423,-1.3498169,99.0
1272,-0.11433792,0.99359703,0.19264221,-0.023364259,0.038232423,-1.3498169,99.0
1273,-0.11433792,0.99359703,0.19264221,-0.09770508,0.021240234,-1.1597168,99.0
1274,0.022470474,0.9006996,0.18011475,-0.09770508,0.021240234,-1.1597168,99.0
1275,0.022470474,0.9006996,0.18011475,-0.14337158,-0.0010620117,-0.9430664,99.0
1276,0.06789017,0.7834377,0.14053345,-0.14337158,-0.0010620117,-0.9430664,99.0
1277,0.06789017,0.7834377,0.14053345,-0.2527588,-0.027612304,-0.7349121,99.0
1278,0.034366608,0.6862469,0.1108551,-0.2527588,-0.027612304,-0.7349121,99.0
1279,0.034366608,0.6862469,0.1108551,-0.33134767,-0.052038576,-0.62340087,99.0
1280,0.03967476,0.45313644,0.03491211,-0.33134767,-0.052038576,-0.62340087,99.0
1281,0.03967476,0.45313644,0.03491211,-0.39613038,-0.0637207,-0.23682861,99.0
1282,0.24959946,0.20353699,0.07829285,-0.39613038,-0.0637207,-0.23682861,99.0
1283,0.24959946,0.20353699,0.07829285,-0.23151855,-0.060534667,-0.13275146,99.0
1284,1.5139256,-0.24956131,0.4112091,-0.23151855,-0.060534667,-0.13275146,99.0
1285,1.5139256,-0.24956131,0.4112091,-0.022302246,-0.1996582,0.35789797,99.0
1286,1.310482,-0.16545677,0.42996216,-0.022302246,-0.1996582,0.35789797,99.0
1287,1.310482,-0.16545677,0.42996216,-0.06478272,-0.21240234,0.5543701,99.0
1288,-0.4620514,0.30620766,0.31394958,-0.06478272,-0.21240234,0.5543701,99.0
1289,-0.4620514,0.30620766,0.31394958,0.18160401,-0.12213135,1.083252,99.0
1290,-0.79758453,0.18877792,0.09669495,0.18160401,-0.12213135,1.083252,99.0
1291,-0.79758453,0.18877792,0.09669495,0.36745605,-0.10195313,1.2298096,99.0
1292,-0.68826294,-0.023513794,-0.33216858,0.36745605,-0.10195313,1.2298096,99.0
1293,-0.68826294,-0.023513794,-0.33216858,0.8496094,-0.013806152,1.724707,99.0
1294,-0.11376953,-0.21839523,-0.41111755,0.8496094,-0.013806152,1.724707,99.0
1295,-0.11376953,-0.21839523,-0.41111755,0.96643066,0.021240234,1.8755127,99.0
1296,1.1367912,-0.15219498,-0.4804077,0.96643066,0.021240234,1.8755127,99.0
1297,1.1367912,-0.15219498,-0.4804077,0.99298096,0.15823975,2.262085,99.0
1298,1.3583469,-0.27357483,-0.43292236,0.99298096,0.15823975,2.262085,99.0
1299,1.3583469,-0.27357483,-0.43292236,1.0524536,0.15823975,2.3948364,99.0
1300,1.7480164,-0.023548126,-0.38946533,1.0524536,0.15823975,2.3948364,99.0
1301,1.7480164,-0.023548126,-0.38946533,1.2064453,0.18691407,2.7368042,99.0
1302,1.5192261,-0.19794083,-0.34246826,1.2064453,0.18691407,2.7368042,99.0
1303,1.5192261,-0.19794083,-0.34246826,1.2021973,0.1731079,2.7739747,99.0
1304,0.76268196,-0.0897007,-0.24491882,1.2021973,0.1731079,2.7739747,99.0
1305,0.76268196,-0.0897007,-0.24491882,0.2442627,0.32391357,2.8430054,99.0
1306,0.43990707,-0.44116974,-0.14413452,0.2442627,0.32391357,2.8430054,99.0
1307,0.43990707,-0.44116974,-0.14413452,0.012744141,0.24638672,2.9470825,99.0
1308,-0.13201141,-0.95114136,-0.086364746,0.012744141,0.24638672,2.9470825,99.0
1309,-0.13201141,-0.95114136,-0.086364746,-0.11044922,0.12213135,2.9311523,99.0
1310,-0.5785713,-1.4151249,-0.14215088,-0.11044922,0.12213135,2.9311523,99.0
1311,-0.5785713,-1.4151249,-0.14215088,-0.45135498,0.1274414,2.9205322,99.0
1312,-0.8891392,-1.6324539,-0.2997589,-0.45135498,0.1274414,2.9205322,99.0
1313,-0.8891392,-1.6324539,-0.2997589,-0.73703617,0.07965088,2.7867188,99.0
1314,-1.1176338,-1.8635921,-0.5176544,-0.73703617,0.07965088,2.7867188,99.0
1315,-1.1176338,-1.8635921,-0.5176544,-0.7104859,0.0031860352,2.7399902,99.0
1316,-1.2556667,-2.0936928,-0.6913147,-0.7104859,0.0031860352,2.7399902,99.0
1317,-1.2556667,-2.0936928,-0.6913147,-0.47896728,-0.050976563,2.5966187,99.0
1318,-1.2298889,-2.213297,-0.78053284,-0.47896728,-0.050976563,2.5966187,99.0
1319,-1.2298889,-2.213297,-0.78053284,-0.1359375,-0.07115479,2.443689,99.0
1320,-0.97512054,-2.1671715,-0.7639618,-0.1359375,-0.07115479,2.443689,99.0
1321,-0.97512054,-2.1671715,-0.7639618,0.16992188,-0.0541626,2.265271,99.0
1322,-0.6059742,-1.9991674,-0.6545868,0.16992188,-0.0541626,2.265271,99.0
1323,-0.6059742,-1.9991674,-0.6545868,0.40356445,-0.025488282,2.0422485,99.0
1324,-0.29293442,-1.8120661,-0.49194336,0.40356445,-0.025488282,2.0422485,99.0
1325,-0.29293442,-1.8120661,-0.49194336,0.53737795,0.0021240234,1.7990478,99.0
1326,-0.037776947,-1.590766,-0.27723694,0.53737795,0.0021240234,1.7990478,99.0
1327,-0.037776947,-1.590766,-0.27723694,0.53950197,0.0541626,1.5059327,99.0
1328,0.23166847,-1.365655,-0.05329895,0.53950197,0.0541626,1.5059327,99.0
1329,0.23166847,-1.365655,-0.05329895,0.4343628,0.08814698,1.2000732,99.0
1330,0.42023468,-1.1283035,0.12063599,0.4343628,0.08814698,1.2000732,99.0
1331,0.42023468,-1.1283035,0.12063599,0.23151855,0.0637207,0.91120607,99.0
1332,0.29484177,-0.8876772,0.20799255,0.23151855,0.0637207,0.91120607,99.0
1333,0.29484177,-0.8876772,0.20799255,-0.053100586,0.010620117,0.62127686,99.0
1334,-0.05655861,-0.7231674,0.19522095,-0.053100586,0.010620117,0.62127686,99.0
1335,-0.05655861,-0.7231674,0.19522095,-0.29523927,-0.04141846,0.32603762,99.0
1336,0.13706589,-0.7273741,0.1031189,-0.29523927,-0.04141846,0.32603762,99.0
1337,0.13706589,-0.7273741,0.1031189,-0.452417,-0.06159668,-0.14655761,99.0
1338,1.3197975,-0.75498295,-0.062698364,-0.452417,-0.06159668,-0.14655761,99.0
1339,1.3197975,-0.75498295,-0.062698364,-0.69349366,-0.16992188,-0.7423462,99.0
1340,2.2264194,-0.7188673,-0.20072937,-0.69349366,-0.16992188,-0.7423462,99.0
1341,2.2264194,-0.7188673,-0.20072937,-0.86553955,-0.23045655,-1.179895,99.0
1342,1.303463,-0.6733246,-0.17230225,-0.86553955,-0.23045655,-1.179895,99.0
1343,1.303463,-0.6733246,-0.17230225,-0.6754395,-0.3334717,-1.539917,99.0
1344,-0.7588043,-0.6248045,0.043121338,-0.6754395,-0.3334717,-1.539917,99.0
1345,-0.7588043,-0.6248045,0.043121338,-0.2793091,-0.34090576,-1.901001,99.0
1346,-1.9633675,-0.3340845,0.36325073,-0.2793091,-0.34090576,-1.901001,99.0
1347,-1.9633675,-0.3340845,0.36325073,0.13487549,-0.29630128,-2.0932252,99.0
1348,-1.8120155,0.3105278,0.5733032,0.13487549,-0.29630128,-2.0932252,99.0
1349,-1.8120155,0.3105278,0.5733032,0.42374268,-0.27293703,-2.1526978,99.0
1350,-1.0850868,0.9712372,0.5437622,0.42374268,-0.27293703,-2.1526978,99.0
1351,-1.0850868,0.9712372,0.5437622,0.7476563,-0.22302246,-2.2270386,99.0
1352,-0.4805088,1.3130617,0.33709717,0.7476563,-0.22302246,-2.2270386,99.0
1353,-0.4805088,1.3130617,0.33709717,1.0004151,-0.22727051,-2.2801392,99.0
1354,-0.13660431,1.4400616,0.07470703,1.0004151,-0.22727051,-2.2801392,99.0
1355,-0.13660431,1.4400616,0.07470703,0.9154541,-0.20390625,-2.352356,99.0
1356,-0.13660431,1.4400616,0.07470703,0.9154541,-0.20390625,-2.352356,98.0
1357,0.124126434,1.5466661,-0.12324524,0.9154541,-0.20390625,-2.352356,98.0
1358,0.124126434,1.5466661,-0.12324524,0.77314454,-0.2177124,-2.4054565,98.0
1359,0.45254898,1.6948767,-0.12982178,0.77314454,-0.2177124,-2.4054565,98.0
1360,0.45254898,1.6948767,-0.12982178,0.5703003,-0.2262085,-2.3927124,98.0
1361,0.7099514,1.8179626,0.076919556,0.5703003,-0.2262085,-2.3927124,98.0
1362,0.7099514,1.8179626,0.076919556,0.2793091,-0.14549561,-2.4171388,98.0
1363,0.62363815,1.7739134,0.3401947,0.2793091,-0.14549561,-2.4171388,98.0
1364,0.62363815,1.7739134,0.3401947,0.039294433,-0.07646485,-2.4203248,98.0
1365,0.24084091,1.5865746,0.40281677,0.039294433,-0.07646485,-2.4203248,98.0
1366,0.24084091,1.5865746,0.40281677,-0.0722168,-0.032922365,-2.3778443,98.0
1367,-0.1013813,1.5282812,0.2374878,-0.0722168,-0.032922365,-2.3778443,98.0
1368,-0.1013813,1.5282812,0.2374878,-0.42799073,-0.0021240234,-2.267395,98.0
1369,-0.18156815,1.5633469,-0.013305664,-0.42799073,-0.0021240234,-2.267395,98.0
1370,-0.18156815,1.5633469,-0.013305664,-0.7349121,0.02442627,-2.2185426,98.0
1371,-0.09922218,1.4688053,-0.21591187,-0.7349121,0.02442627,-2.2185426,98.0
1372,-0.09922218,1.4688053,-0.21591187,-0.58304447,-0.02442627,-2.0528686,98.0
1373,-0.011701584,1.2455883,-0.21723938,-0.58304447,-0.02442627,-2.0528686,98.0
1374,-0.011701584,1.2455883,-0.21723938,-0.2357666,-0.10195313,-1.8500245,98.0
1375,0.0814476,1.0854225,-0.06098938,-0.2357666,-0.10195313,-1.8500245,98.0
1376,0.0814476,1.0854225,-0.06098938,-0.033984374,-0.12956543,-1.7491333,98.0
1377,0.008909225,1.0092812,0.058776855,-0.033984374,-0.12956543,-1.7491333,98.0
1378,0.008909225,1.0092812,0.058776855,0.15505372,-0.17735596,-1.5983276,98.0
1379,-0.28087425,0.9347439,0.07026672,0.15505372,-0.17735596,-1.5983276,98.0
1380,-0.28087425,0.9347439,0.07026672,0.40144044,-0.22089843,-1.4135376,98.0
1381,-0.4226246,1.047039,0.045211792,0.40144044,-0.22089843,-1.4135376,98.0
1382,-0.4226246,1.047039,0.045211792,0.44073486,-0.1901001,-1.2531738,98.0
1383,-0.25110054,1.1923313,0.07208252,0.44073486,-0.1901001,-1.2531738,98.0
1384,-0.25110054,1.1923313,0.07208252,0.17523193,-0.13699952,-1.0970582,98.0
1385,-0.028455734,1.0481281,0.10826111,0.17523193,-0.13699952,-1.0970582,98.0
1386,-0.028455734,1.0481281,0.10826111,0.23045655,-0.1444336,-0.9515625,98.0
1387,0.03237343,0.82728386,0.15214539,0.23045655,-0.1444336,-0.9515625,98.0
1388,0.03237343,0.82728386,0.15214539,0.039294433,-0.090270996,-0.7869507,98.0
1389,-0.12678719,0.71562386,0.16091919,0.039294433,-0.090270996,-0.7869507,98.0
1390,-0.12678719,0.71562386,0.16091919,-0.15930176,-0.05522461,-0.6244629,98.0
1391,-0.0044937134,0.51213455,0.1713562,-0.15930176,-0.05522461,-0.6244629,98.0
1392,-0.0044937134,0.51213455,0.1713562,-0.14337158,0.09451904,-0.4428589,98.0
1393,0.98013306,0.1557293,0.35847473,-0.14337158,0.09451904,-0.4428589,98.0
1394,0.98013306,0.1557293,0.35847473,-0.008496094,0.11682129,-0.24001466,98.0
1395,1.6041756,0.046556473,0.63209534,-0.008496094,0.11682129,-0.24001466,98.0
1396,1.6041756,0.046556473,0.63209534,-0.16885987,0.118945315,0.18585205,98.0
1397,0.4531765,0.37646675,0.6186218,-0.16885987,0.118945315,0.18585205,98.0
1398,0.4531765,0.37646675,0.6186218,-0.5331299,0.20072022,0.60959476,98.0
1399,-1.3518505,0.62337685,0.27607727,-0.5331299,0.20072022,0.60959476,98.0
1400,-1.3518505,0.62337685,0.27607727,-0.5713623,0.28674316,0.9834229,98.0
1401,-1.9644756,0.51096916,-0.05999756,-0.5713623,0.28674316,0.9834229,98.0
1402,-1.9644756,0.51096916,-0.05999756,-0.33771974,0.30373535,1.3891114,98.0
1403,-1.191124,0.2540512,-0.20536804,-0.33771974,0.30373535,1.3891114,98.0
1404,-1.191124,0.2540512,-0.20536804,-0.18372802,0.3058594,1.808606,98.0
1405,0.034576416,-0.02850914,-0.24085999,-0.18372802,0.3058594,1.808606,98.0
1406,0.034576416,-0.02850914,-0.24085999,-0.10938721,0.2984253,2.1091554,98.0
1407,1.0404301,-0.37114716,-0.31192017,-0.10938721,0.2984253,2.1091554,98.0
1408,1.0404301,-0.37114716,-0.31192017,0.0021240234,0.270813,2.3863404,98.0
1409,1.7142906,-0.81150436,-0.42443848,0.0021240234,0.270813,2.3863404,98.0
1410,1.7142906,-0.81150436,-0.42443848,0.33028564,0.18372802,2.625293,98.0
1411,2.0308685,-1.1271458,-0.44943237,0.33028564,0.18372802,2.625293,98.0
1412,2.0308685,-1.1271458,-0.44943237,0.67650145,0.1083252,2.4946656,98.0
1413,2.038391,-1.0494709,-0.26931763,0.67650145,0.1083252,2.4946656,98.0
1414,2.038391,-1.0494709,-0.26931763,0.19116211,0.29523927,2.5998046,98.0
1415,1.5894032,-1.0058365,-0.041137695,0.19116211,0.29523927,2.5998046,98.0
1416,1.5894032,-1.0058365,-0.041137695,-0.027612304,0.25806886,2.5870607,98.0
1417,0.60473824,-1.1231022,0.015579224,-0.027612304,0.25806886,2.5870607,98.0
1418,0.60473824,-1.1231022,0.015579224,-0.32072756,0.19753419,2.540332,98.0
1419,-0.47293472,-1.138277,-0.12301636,-0.32072756,0.19753419,2.540332,98.0
1420,-0.47293472,-1.138277,-0.12301636,-0.6796875,0.17523193,2.4256349,98.0
1421,-1.2146511,-1.2584,-0.30119324,-0.6796875,0.17523193,2.4256349,98.0
1422,-1.2146511,-1.2584,-0.30119324,-0.6839356,0.08602295,2.3332398,98.0
1423,-1.5254211,-1.4751282,-0.36260986,-0.6839356,0.08602295,2.3332398,98.0
1424,-1.5254211,-1.4751282,-0.36260986,-0.54693604,0.02442627,2.3045654,98.0
1425,-1.5130615,-1.5676517,-0.36218262,-0.54693604,0.02442627,2.3045654,98.0
1426,-1.5130615,-1.5676517,-0.36218262,-0.39506838,-0.020178223,2.1919923,98.0
1427,-1.3519154,-1.521761,-0.4210968,-0.39506838,-0.020178223,2.1919923,98.0
1428,-1.3519154,-1.521761,-0.4210968,-0.27718505,-0.04141846,2.090039,98.0
1429,-1.1726704,-1.4947767,-0.51460266,-0.27718505,-0.04141846,2.090039,98.0
1430,-1.1726704,-1.4947767,-0.51460266,-0.027612304,-0.057348635,1.9625977,98.0
1431,-0.9193249,-1.5259724,-0.52783203,-0.027612304,-0.057348635,1.9625977,98.0
1432,-0.9193249,-1.5259724,-0.52783203,0.17947999,-0.0541626,1.8309082,98.0
1433,-0.51194954,-1.4906626,-0.39387512,0.17947999,-0.0541626,1.8309082,98.0
1434,-0.51194954,-1.4906626,-0.39387512,0.24532472,-0.035046387,1.6705445,98.0
1435,-0.09662056,-1.3504772,-0.19285583,0.24532472,-0.035046387,1.6705445,98.0
1436,-0.09662056,-1.3504772,-0.19285583,0.1901001,-0.028674318,1.4772583,98.0
1437,0.14253998,-1.1790028,-0.051467896,0.1901001,-0.028674318,1.4772583,98.0
1438,0.14253998,-1.1790028,-0.051467896,0.0637207,-0.03186035,1.2287476,98.0
1439,0.24227905,-1.0576677,0.045547485,0.0637207,-0.03186035,1.2287476,98.0
1440,0.24227905,-1.0576677,0.045547485,-0.043542482,-0.03717041,0.91120607,98.0
1441,0.29001427,-1.0127974,0.14015198,-0.043542482,-0.03717041,0.91120607,98.0
1442,0.29001427,-1.0127974,0.14015198,-0.10938721,-0.058410645,0.53737795,98.0
1443,0.20310402,-1.0062704,0.26470947,-0.10938721,-0.058410645,0.53737795,98.0
1444,0.20310402,-1.0062704,0.26470947,-0.0998291,-0.1274414,0.20390625,98.0
1445,-0.01996231,-0.9800892,0.3487091,-0.0998291,-0.1274414,0.20390625,98.0
1446,-0.01996231,-0.9800892,0.3487091,-0.035046387,-0.18372802,-0.19328614,98.0
1447,0.41861343,-0.9859638,0.38397217,-0.035046387,-0.18372802,-0.19328614,98.0
1448,0.41861343,-0.9859638,0.38397217,0.15186767,-0.1083252,-0.80394286,98.0
1449,1.9653854,-0.9766617,0.39697266,0.15186767,-0.1083252,-0.80394286,98.0
1450,1.9653854,-0.9766617,0.39697266,0.23364258,-0.115759276,-1.4209718,98.0
1451,1.9653854,-0.9766617,0.39697266,0.23364258,-0.115759276,-1.4209718,98.0
1452,2.9831715,-0.69259644,0.3630371,0.23364258,-0.115759276,-1.4209718,98.0
1453,2.9831715,-0.69259644,0.3630371,0.0637207,-0.17947999,-1.6939087,98.0
1454,1.7628803,-0.21274376,0.31976318,0.0637207,-0.17947999,-1.6939087,98.0
1455,1.7628803,-0.21274376,0.31976318,-0.0010620117,-0.22514649,-1.9477295,98.0
1456,-0.6023426,0.13698292,0.3765564,-0.0010620117,-0.22514649,-1.9477295,98.0
1457,-0.6023426,0.13698292,0.3765564,0.36427003,-0.19541016,-2.0942872,98.0
1458,-1.9468403,0.49014091,0.5840759,0.36427003,-0.19541016,-2.0942872,98.0
1459,-1.9468403,0.49014091,0.5840759,0.7434082,-0.1529297,-2.0337524,98.0
1460,-1.7867813,1.1442127,0.7484894,0.7434082,-0.1529297,-2.0337524,98.0
1461,-1.7867813,1.1442127,0.7484894,0.9143921,-0.10513916,-1.8659546,98.0
1462,-0.9288883,1.8398571,0.62557983,0.9143921,-0.10513916,-1.8659546,98.0
1463,-0.9288883,1.8398571,0.62557983,0.80394286,-0.08602295,-1.7979859,98.0
1464,-0.22229767,2.087596,0.23272705,0.80394286,-0.08602295,-1.7979859,98.0
1465,-0.22229767,2.087596,0.23272705,0.4694092,-0.10620117,-1.7703736,98.0
1466,0.06505585,1.8668423,-0.1635437,0.4694092,-0.10620117,-1.7703736,98.0
1467,0.06505585,1.8668423,-0.1635437,0.0722168,-0.098767094,-1.7342652,98.0
1468,0.08248901,1.5154839,-0.31193542,0.0722168,-0.098767094,-1.7342652,98.0
1469,0.08248901,1.5154839,-0.31193542,-0.26975098,-0.0637207,-1.6609863,98.0
1470,-0.01084137,1.2550879,-0.21281433,-0.26975098,-0.0637207,-1.6609863,98.0
1471,-0.01084137,1.2550879,-0.21281433,-0.5065796,-0.0541626,-1.6121339,98.0
1472,-0.15475464,1.1068649,-0.062042236,-0.5065796,-0.0541626,-1.6121339,98.0
1473,-0.15475464,1.1068649,-0.062042236,-0.6903076,-0.0180542,-1.6057618,98.0
1474,-0.2971077,0.9708433,-0.010574341,-0.6903076,-0.0180542,-1.6057618,98.0
1475,-0.2971077,0.9708433,-0.010574341,-0.7805786,0.015930176,-1.6004517,98.0
1476,-0.42177963,0.79889107,-0.06561279,-0.7805786,0.015930176,-1.6004517,98.0
1477,-0.42177963,0.79889107,-0.06561279,-0.7306641,0.045666505,-1.5579712,98.0
1478,-0.532711,0.7052269,-0.1487732,-0.7306641,0.045666505,-1.5579712,98.0
1479,-0.532711,0.7052269,-0.1487732,-0.632959,0.12319336,-1.5123047,98.0
1480,-0.5227623,0.8796234,-0.2049408,-0.632959,0.12319336,-1.5123047,98.0
1481,-0.5227623,0.8796234,-0.2049408,-0.8400513,0.14337158,-1.4570801,98.0
1482,-0.3551731,1.0760994,-0.2291565,-0.8400513,0.14337158,-1.4570801,98.0
1483,-0.3551731,1.0760994,-0.2291565,-1.1236085,0.23151855,-1.4825684,98.0
1484,-0.23500443,0.931118,-0.21058655,-1.1236085,0.23151855,-1.4825684,98.0
1485,-0.23500443,0.931118,-0.21058655,-0.991919,0.16142578,-1.5101807,98.0
1486,-0.21617699,0.6456032,-0.1073761,-0.991919,0.16142578,-1.5101807,98.0
1487,-0.21617699,0.6456032,-0.1073761,-0.8230591,0.10407715,-1.4592041,98.0
1488,-0.09789276,0.49628067,0.00730896,-0.8230591,0.10407715,-1.4592041,98.0
1489,-0.09789276,0.49628067,0.00730896,-0.66588134,0.07327881,-1.4730103,98.0
1490,0.08706665,0.4957676,0.09510803,-0.66588134,0.07327881,-1.4730103,98.0
1491,0.08706665,0.4957676,0.09510803,-0.52888185,0.053100586,-1.4623902,98.0
1492,0.14551926,0.5459423,0.16822815,-0.52888185,0.053100586,-1.4623902,98.0
1493,0.14551926,0.5459423,0.16822815,-0.32709962,0.03079834,-1.4061035,98.0
1494,0.17662048,0.54013634,0.23220825,-0.32709962,0.03079834,-1.4061035,98.0
1495,0.17662048,0.54013634,0.23220825,-0.13062744,0.013806152,-1.3413209,98.0
1496,0.35723877,0.47681046,0.3119812,-0.13062744,0.013806152,-1.3413209,98.0
1497,0.35723877,0.47681046,0.3119812,0.015930176,-0.015930176,-1.2255615,98.0
1498,0.52075195,0.4513092,0.37399292,0.015930176,-0.015930176,-1.2255615,98.0
1499,0.52075195,0.4513092,0.37399292,0.12000733,-0.0541626,-1.0790039,98.0
1500,0.39530182,0.5193958,0.3757019,0.12000733,-0.0541626,-1.0790039,98.0
1501,0.39530182,0.5193958,0.3757019,0.12956543,-0.07115479,-0.86341554,98.0
1502,0.19409752,0.5676651,0.38697815,0.12956543,-0.07115479,-0.86341554,98.0
1503,0.19409752,0.5676651,0.38697815,0.124255374,0.0063720704,-0.62977296,98.0
1504,0.7382126,0.41854858,0.49951172,0.124255374,0.0063720704,-0.62977296,98.0
1505,0.7382126,0.41854858,0.49951172,0.18903808,-0.026550293,-0.44816896,98.0
1506,1.5683651,0.37469482,0.6069336,0.18903808,-0.026550293,-0.44816896,98.0
1507,1.5683651,0.37469482,0.6069336,-0.09664307,-0.081774905,-0.007434082,98.0
1508,0.97169495,0.58885574,0.57440186,-0.09664307,-0.081774905,-0.007434082,98.0
1509,0.97169495,0.58885574,0.57440186,-0.44710693,-0.13275146,0.43117675,98.0
1510,-0.8374748,0.68276787,0.38182068,-0.44710693,-0.13275146,0.43117675,98.0
1511,-0.8374748,0.68276787,0.38182068,-0.40144044,-0.10195313,0.81881106,98.0
1512,-1.903635,0.4989357,0.08708191,-0.40144044,-0.10195313,0.81881106,98.0
1513,-1.903635,0.4989357,0.08708191,-0.13275146,-0.06903076,1.1374146,98.0
1514,-1.4706249,0.17059708,-0.19284058,-0.13275146,-0.06903076,1.1374146,98.0
1515,-1.4706249,0.17059708,-0.19284058,0.026550293,-0.0361084,1.4666382,98.0
1516,-0.35351372,-0.1724453,-0.39790344,0.026550293,-0.0361084,1.4666382,98.0
1517,-0.35351372,-0.1724453,-0.39790344,0.29523927,-0.023364259,1.7491333,98.0
1518,0.66272163,-0.4612217,-0.5307007,0.29523927,-0.023364259,1.7491333,98.0
1519,0.66272163,-0.4612217,-0.5307007,0.7168579,-0.043542482,1.991272,98.0
1520,1.3510017,-0.59013176,-0.55574036,0.7168579,-0.043542482,1.991272,98.0
1521,1.3510017,-0.59013176,-0.55574036,0.9345703,0.012744141,2.0942872,98.0
1522,1.6346111,-0.6119499,-0.50450134,0.9345703,0.012744141,2.0942872,98.0
1523,1.6346111,-0.6119499,-0.50450134,1.3253907,-0.038232423,2.1091554,98.0
1524,1.4755955,-0.48399353,-0.35317993,1.3253907,-0.038232423,2.1091554,98.0
1525,1.4755955,-0.48399353,-0.35317993,1.5739014,-0.020178223,2.1144655,98.0
1526,1.0890694,-0.059253693,-0.20654297,1.5739014,-0.020178223,2.1144655,98.0
1527,1.0890694,-0.059253693,-0.20654297,0.66588134,0.18160401,2.0560548,98.0
1528,0.46574974,-0.018325806,-0.10151672,0.66588134,0.18160401,2.0560548,98.0
1529,0.46574974,-0.018325806,-0.10151672,-0.24001466,0.24001466,2.2249146,98.0
1530,-0.32773018,-0.6415653,-0.103256226,-0.24001466,0.24001466,2.2249146,98.0
1531,-0.32773018,-0.6415653,-0.103256226,-0.26550293,-0.027612304,2.167566,98.0
1532,-0.86642075,-0.99619865,-0.1933136,-0.26550293,-0.027612304,2.167566,98.0
1533,-0.86642075,-0.99619865,-0.1933136,-0.5278198,-0.06903076,2.1165893,98.0
1534,-1.0609474,-1.0323601,-0.33486938,-0.5278198,-0.06903076,2.1165893,98.0
1535,-1.0609474,-1.0323601,-0.33486938,-0.7508423,-0.14549561,2.1314576,98.0
1536,-1.1057053,-1.3248749,-0.56578064,-0.7508423,-0.14549561,2.1314576,98.0
1537,-1.1057053,-1.3248749,-0.56578064,-0.44073486,-0.23364258,2.1537597,98.0
1538,-1.105793,-1.7137089,-0.76431274,-0.44073486,-0.23364258,2.1537597,98.0
1539,-1.105793,-1.7137089,-0.76431274,0.06265869,-0.23045655,2.092163,98.0
1540,-0.9968891,-1.8347492,-0.81399536,0.06265869,-0.23045655,2.092163,98.0
1541,-0.9968891,-1.8347492,-0.81399536,0.47365722,-0.21134034,2.0316284,98.0
1542,-0.776577,-1.6313496,-0.73069763,0.47365722,-0.21134034,2.0316284,98.0
1543,-0.776577,-1.6313496,-0.73069763,0.68924564,-0.16885987,1.9434814,98.0
1544,-0.5487881,-1.2830343,-0.5808258,0.68924564,-0.16885987,1.9434814,98.0
1545,-0.5487881,-1.2830343,-0.5808258,0.69986576,-0.13275146,1.807544,98.0
1546,-0.37273407,-0.9705925,-0.38119507,0.69986576,-0.13275146,1.807544,98.0
1547,-0.37273407,-0.9705925,-0.38119507,0.61702883,-0.07434082,1.5898316,98.0
1548,-0.18581009,-0.7319298,-0.15811157,0.61702883,-0.07434082,1.5898316,98.0
1549,-0.18581009,-0.7319298,-0.15811157,0.44179687,-0.093457036,1.3211426,98.0
1550,-0.18581009,-0.7319298,-0.15811157,0.44179687,-0.093457036,1.3211426,96.0
1551,0.069223404,-0.521286,0.012512207,0.44179687,-0.093457036,1.3211426,96.0
1552,0.069223404,-0.521286,0.012512207,0.14655761,-0.093457036,0.9685547,96.0
1553,0.3288765,-0.4572258,0.09700012,0.14655761,-0.093457036,0.9685547,96.0
1554,0.3288765,-0.4572258,0.09700012,-0.11469727,-0.06584473,0.5798584,96.0
1555,0.59985733,-0.6415739,0.123931885,-0.11469727,-0.06584473,0.5798584,96.0
