,accx,accy,accz,gyrox,gyroy,gyroz,heart rate
0,walk,walk,walk,walk,walk,walk,walk
1,0.317334,-2.029309,1.6561158,0.0,0.0,0.0,0.0
2,0.317334,-2.029309,1.6561158,-0.2793091,0.3812622,-0.4248047,0.0
3,0.027536623,-1.7934302,1.2330225,-0.2793091,0.3812622,-0.4248047,0.0
4,0.027536623,-1.7934302,1.2330225,-0.11469727,0.32922363,-0.3717041,0.0
5,0.027536623,-1.7934302,1.2330225,-0.046728518,0.30479738,-0.3451538,0.0
6,-0.12792188,-1.3731109,0.69889355,-0.046728518,0.30479738,-0.3451538,0.0
7,-0.109405376,-1.1139429,0.24538195,-0.046728518,0.30479738,-0.3451538,0.0
8,-0.109405376,-1.1139429,0.24538195,0.07752686,0.26868898,-0.3355957,0.0
9,-0.0170409,-1.084648,-0.05303526,0.07752686,0.26868898,-0.3355957,0.0
10,-0.0170409,-1.084648,-0.05303526,0.16885987,0.22514649,-0.3164795,0.0
11,0.062258393,-1.0345154,-0.26083642,0.16885987,0.22514649,-0.3164795,0.0
12,0.062258393,-1.0345154,-0.26083642,0.20284425,0.16142578,-0.29948732,0.0
13,0.17109579,-0.81689453,-0.37201142,0.20284425,0.16142578,-0.29948732,0.0
14,0.17109579,-0.81689453,-0.37201142,0.14868164,0.107263185,-0.3058594,0.0
15,0.3184074,-0.6017945,-0.3243059,0.14868164,0.107263185,-0.3058594,0.0
16,0.3184074,-0.6017945,-0.3243059,0.08496094,0.06796875,-0.3069214,0.0
17,0.41557795,-0.5666406,-0.19870257,0.08496094,0.06796875,-0.3069214,0.0
18,0.41557795,-0.5666406,-0.19870257,0.095581055,-0.0010620117,-0.30054933,0.0
19,0.4569863,-0.57146454,-0.124147594,0.095581055,-0.0010620117,-0.30054933,0.0
20,0.4569863,-0.57146454,-0.124147594,0.10301514,-0.060534667,-0.29417726,0.0
21,0.49668038,-0.42918086,-0.109047055,0.10301514,-0.060534667,-0.29417726,0.0
22,0.49668038,-0.42918086,-0.109047055,0.070092775,-0.083898924,-0.2803711,0.0
23,0.4891168,-0.22673082,-0.09357309,0.070092775,-0.083898924,-0.2803711,0.0
24,0.4891168,-0.22673082,-0.09357309,0.07327881,-0.10089111,-0.2442627,0.0
25,0.3808686,-0.07774687,-0.05754888,0.07327881,-0.10089111,-0.2442627,0.0
26,0.3808686,-0.07774687,-0.05754888,0.08071289,-0.10089111,-0.22089843,0.0
27,0.21839118,0.051804066,-0.007074237,0.08071289,-0.10089111,-0.22089843,0.0
28,0.21839118,0.051804066,-0.007074237,0.04991455,-0.08602295,-0.21558838,0.0
29,0.10035992,0.18645048,0.03702861,0.04991455,-0.08602295,-0.21558838,0.0
30,0.10035992,0.18645048,0.03702861,-0.010620117,-0.060534667,-0.22939454,0.0
31,0.10035992,0.18645048,0.03702861,-0.016992187,-0.046728518,-0.24532472,0.0
32,0.020900726,0.23944378,0.078731775,-0.016992187,-0.046728518,-0.24532472,0.0
33,0.020900726,0.23944378,0.078731775,-0.016992187,-0.046728518,-0.24532472,76.0
34,-0.028140247,0.21614003,0.09722614,-0.016992187,-0.046728518,-0.24532472,76.0
35,-0.028140247,0.21614003,0.09722614,-0.0053100586,-0.032922365,-0.26019287,76.0
36,-0.03697753,0.25720143,0.06370622,-0.0053100586,-0.032922365,-0.26019287,76.0
37,-0.03697753,0.25720143,0.06370622,-0.0031860352,-0.014868164,-0.271875,76.0
38,-0.032230973,0.36649132,0.05664122,-0.0031860352,-0.014868164,-0.271875,76.0
39,-0.032230973,0.36649132,0.05664122,-0.046728518,0.004248047,-0.2803711,76.0
40,-0.034415126,0.42959452,0.06922656,-0.046728518,0.004248047,-0.2803711,76.0
41,-0.034415126,0.42959452,0.06922656,-0.081774905,0.014868164,-0.2899292,76.0
42,-0.056865573,0.4553089,0.013328016,-0.081774905,0.014868164,-0.2899292,76.0
43,-0.056865573,0.4553089,0.013328016,-0.11151123,0.016992187,-0.29099122,76.0
44,-0.1028533,0.5060806,-0.09874922,-0.11151123,0.016992187,-0.29099122,76.0
45,-0.1028533,0.5060806,-0.09874922,-0.09133301,0.008496094,-0.26656494,76.0
46,-0.17787588,0.60181284,-0.20940709,-0.09133301,0.008496094,-0.26656494,76.0
47,-0.17787588,0.60181284,-0.20940709,-0.09133301,0.008496094,-0.22408448,76.0
48,-0.24475431,0.68237793,-0.2957117,-0.09133301,0.008496094,-0.22408448,76.0
49,-0.24475431,0.68237793,-0.2957117,-0.095581055,0.010620117,-0.19434814,76.0
50,-0.24907494,0.63425684,-0.2960542,-0.095581055,0.010620117,-0.19434814,76.0
51,-0.24907494,0.63425684,-0.2960542,-0.11257324,0.007434082,-0.20496826,76.0
52,-0.1985153,0.55793035,-0.25049084,-0.11257324,0.007434082,-0.20496826,76.0
53,-0.1985153,0.55793035,-0.25049084,-0.11363526,0.0053100586,-0.2262085,76.0
54,-0.12292358,0.5553043,-0.225234,-0.11363526,0.0053100586,-0.2262085,76.0
55,-0.12292358,0.5553043,-0.225234,-0.13062744,0.010620117,-0.24001466,76.0
56,-0.021336913,0.5752982,-0.22788009,-0.13062744,0.010620117,-0.24001466,76.0
57,-0.021336913,0.5752982,-0.22788009,-0.16248779,0.02442627,-0.2442627,76.0
58,-0.021336913,0.5752982,-0.22788009,-0.21240234,0.04141846,-0.2548828,76.0
59,0.051216602,0.58053887,-0.2566449,-0.21240234,0.04141846,-0.2548828,76.0
60,0.01824379,0.52778554,-0.27413917,-0.21240234,0.04141846,-0.2548828,76.0
61,0.01824379,0.52778554,-0.27413917,-0.22196046,0.04885254,-0.271875,76.0
62,-0.110441566,0.45048773,-0.25914288,-0.22196046,0.04885254,-0.271875,76.0
63,-0.110441566,0.45048773,-0.25914288,-0.21558838,0.043542482,-0.27718505,76.0
64,-0.21183959,0.40349323,-0.19780502,-0.21558838,0.043542482,-0.27718505,76.0
65,-0.21183959,0.40349323,-0.19780502,-0.20284425,0.033984374,-0.2824951,76.0
66,-0.18963769,0.4085002,-0.13154724,-0.20284425,0.033984374,-0.2824951,76.0
67,-0.18963769,0.4085002,-0.13154724,-0.25806886,0.052038576,-0.31116945,76.0
68,-0.10106319,0.38693196,-0.09654639,-0.25806886,0.052038576,-0.31116945,76.0
69,-0.10106319,0.38693196,-0.09654639,-0.28568116,0.059472658,-0.362146,76.0
70,-0.022854954,0.32264376,-0.057595998,-0.28568116,0.059472658,-0.362146,76.0
71,-0.022854954,0.32264376,-0.057595998,-0.29205322,0.06265869,-0.4088745,76.0
72,0.01985079,0.24120826,0.019682478,-0.29205322,0.06265869,-0.4088745,76.0
73,0.01985079,0.24120826,0.019682478,-0.2824951,0.060534667,-0.43967286,76.0
74,0.059862554,0.17181182,0.14706923,-0.2824951,0.060534667,-0.43967286,76.0
75,0.059862554,0.17181182,0.14706923,-0.26975098,0.0637207,-0.4598511,76.0
76,0.059862554,0.17181182,0.14706923,-0.32391357,0.107263185,-0.48533937,76.0
77,0.1721332,0.18211499,0.30747473,-0.32391357,0.107263185,-0.48533937,76.0
78,0.3207876,0.23674425,0.37196857,-0.32391357,0.107263185,-0.48533937,76.0
79,0.3207876,0.23674425,0.37196857,-0.40144044,0.16461182,-0.5097656,76.0
80,0.39980638,0.2218295,0.30413002,-0.40144044,0.16461182,-0.5097656,76.0
81,0.39980638,0.2218295,0.30413002,-0.42055663,0.18372802,-0.5543701,76.0
82,0.39634657,0.081772685,0.2807796,-0.42055663,0.18372802,-0.5543701,76.0
83,0.39634657,0.081772685,0.2807796,-0.4163086,0.14018555,-0.6573853,76.0
84,0.45212364,-0.14376155,0.453298,-0.4163086,0.14018555,-0.6573853,76.0
85,0.45212364,-0.14376155,0.453298,-0.31223145,0.10301514,-0.7497803,76.0
86,0.62063444,-0.31872016,0.61117357,-0.31223145,0.10301514,-0.7497803,76.0
87,0.62063444,-0.31872016,0.61117357,-0.22089843,0.0998291,-0.8623535,76.0
88,0.74013543,-0.4435748,0.48445886,-0.22089843,0.0998291,-0.8623535,76.0
89,0.74013543,-0.4435748,0.48445886,-0.124255374,0.06903076,-0.9281983,76.0
90,0.70833147,-0.5728774,0.19701535,-0.124255374,0.06903076,-0.9281983,76.0
91,0.70833147,-0.5728774,0.19701535,-0.09133301,0.019116212,-1.0142212,76.0
92,0.57811534,-0.73502314,0.026923776,-0.09133301,0.019116212,-1.0142212,76.0
93,0.57811534,-0.73502314,0.026923776,-0.13275146,-0.0021240234,-1.1193603,76.0
94,0.41343212,-0.9701841,0.026031196,-0.13275146,-0.0021240234,-1.1193603,76.0
95,0.41343212,-0.9701841,0.026031196,-0.16992188,-0.08814698,-1.2021973,76.0
96,0.31746447,-1.2069944,0.123949945,-0.16992188,-0.08814698,-1.2021973,76.0
97,0.31746447,-1.2069944,0.123949945,-0.12213135,-0.21877442,-1.2393677,76.0
98,0.332829,-1.1958201,0.20572734,-0.12213135,-0.21877442,-1.2393677,76.0
99,0.332829,-1.1958201,0.20572734,-0.10195313,-0.33240968,-1.2521118,76.0
100,0.32820165,-0.800467,0.055719554,-0.10195313,-0.33240968,-1.2521118,76.0
101,0.32820165,-0.800467,0.055719554,-0.22833252,-0.40356445,-1.2510499,76.0
102,0.16795683,-0.2664479,-0.3641768,-0.22833252,-0.40356445,-1.2510499,76.0
103,0.16795683,-0.2664479,-0.3641768,-0.33984375,-0.45772704,-1.2393677,76.0
104,-0.09509015,0.13326502,-0.8702599,-0.33984375,-0.45772704,-1.2393677,76.0
105,-0.09509015,0.13326502,-0.8702599,-0.3791382,-0.4970215,-1.2393677,76.0
106,-0.28924346,0.314803,-1.345268,-0.3791382,-0.4970215,-1.2393677,76.0
107,-0.28924346,0.314803,-1.345268,-0.4343628,-0.5331299,-1.2839721,76.0
108,-0.2759261,0.33309233,-1.7781065,-0.4343628,-0.5331299,-1.2839721,76.0
109,-0.2759261,0.33309233,-1.7781065,-0.5851685,-0.5883545,-1.3859253,76.0
110,-0.08482778,0.3358953,-2.1737914,-0.5851685,-0.5883545,-1.3859253,76.0
111,-0.08482778,0.3358953,-2.1737914,-0.9632446,-0.630835,-1.537793,76.0
112,0.13229644,0.41885054,-2.4766674,-0.9632446,-0.630835,-1.537793,76.0
113,0.13229644,0.41885054,-2.4766674,-1.5845215,-0.6403931,-1.724707,76.0
114,0.23092258,0.5606909,-2.626793,-1.5845215,-0.6403931,-1.724707,76.0
115,0.23092258,0.5606909,-2.626793,-2.3236816,-0.6680054,-1.9243653,76.0
116,0.20210862,0.5949149,-2.6394958,-2.3236816,-0.6680054,-1.9243653,76.0
117,0.20210862,0.5949149,-2.6394958,-2.9269044,-0.74447024,-2.1388917,76.0
118,0.14357162,0.3599285,-2.5880861,-2.9269044,-0.74447024,-2.1388917,76.0
119,0.14357162,0.3599285,-2.5880861,-2.9438965,-0.88040775,-2.3682861,76.0
120,0.01928842,0.34571862,-2.2509131,-2.9438965,-0.88040775,-2.3682861,76.0
121,0.01928842,0.34571862,-2.2509131,-2.7824707,-0.9717407,-2.4893556,76.0
122,0.11106062,-0.5805296,-1.5730085,-2.7824707,-0.9717407,-2.4893556,76.0
123,0.11106062,-0.5805296,-1.5730085,-1.9254273,-1.3391968,-2.6380372,76.0
124,-0.08220863,-0.4551952,-0.8162317,-1.9254273,-1.3391968,-2.6380372,76.0
125,-0.08220863,-0.4551952,-0.8162317,-1.718335,-1.4517701,-2.6348512,76.0
126,0.0066940784,0.14694011,0.5622611,-1.718335,-1.4517701,-2.6348512,76.0
127,0.0066940784,0.14694011,0.5622611,-1.901001,-1.6036377,-2.6783936,76.0
128,-0.1299963,0.6833725,0.68625927,-1.901001,-1.6036377,-2.6783936,76.0
129,-0.1299963,0.6833725,0.68625927,-2.0603027,-1.6556762,-2.7113159,76.0
130,0.3037789,0.84347534,0.63949823,-2.0603027,-1.6556762,-2.7113159,76.0
131,0.3037789,0.84347534,0.63949823,-1.991272,-2.0348146,-2.8164551,76.0
132,0.11057687,0.4248047,0.80216265,-1.991272,-2.0348146,-2.8164551,76.0
133,0.11057687,0.4248047,0.80216265,-1.7533814,-2.1909301,-2.8451295,76.0
134,0.8074801,-0.7529541,2.2345157,-1.7533814,-2.1909301,-2.8451295,76.0
135,0.8074801,-0.7529541,2.2345157,-1.1629028,-2.5753784,-2.893982,76.0
136,0.6589358,-0.6506909,2.4686916,-1.1629028,-2.5753784,-2.893982,76.0
137,0.6589358,-0.6506909,2.4686916,-1.1416626,-2.6741455,-2.9470825,76.0
138,1.82074,-0.12221289,2.2847679,-1.1416626,-2.6741455,-2.9470825,76.0
139,1.82074,-0.12221289,2.2847679,-1.453894,-3.0416017,-3.1924074,76.0
140,1.6343508,-0.041666746,1.7479438,-1.453894,-3.0416017,-3.1924074,76.0
141,1.6343508,-0.041666746,1.7479438,-1.6694825,-3.1966553,-3.358081,76.0
142,2.4135842,-0.12163901,0.98501265,-1.6694825,-3.1966553,-3.358081,76.0
143,2.4135842,-0.12163901,0.98501265,-2.1548219,-3.4695923,-3.6734986,76.0
144,2.4135842,-0.12163901,0.98501265,-2.1548219,-3.4695923,-3.6734986,75.0
145,2.9630938,-0.378134,0.97909904,-2.1548219,-3.4695923,-3.6734986,75.0
146,2.9630938,-0.378134,0.97909904,-2.3013794,-3.6458862,-3.893335,75.0
147,3.2385292,-0.3392626,1.4469633,-2.3013794,-3.6458862,-3.893335,75.0
148,3.2385292,-0.3392626,1.4469633,-2.8260133,-3.3729494,-3.8359864,75.0
149,2.238028,-0.29813123,1.4963036,-2.8260133,-3.3729494,-3.8359864,75.0
150,2.238028,-0.29813123,1.4963036,-3.0585938,-3.1711671,-3.711731,75.0
151,0.89714813,0.01254487,0.2989716,-3.0585938,-3.1711671,-3.711731,75.0
152,0.89714813,0.01254487,0.2989716,-3.538623,-2.441565,-3.1201904,75.0
153,0.13663912,0.0467546,0.107768595,-3.538623,-2.441565,-3.1201904,75.0
154,0.13663912,0.0467546,0.107768595,-3.5906618,-2.176062,-2.8759277,75.0
155,-0.7527127,0.26268446,-0.44591403,-3.5906618,-2.176062,-2.8759277,75.0
156,-0.7527127,0.26268446,-0.44591403,-3.629956,-1.622754,-2.355542,75.0
157,-1.3200049,0.30557,-0.68020535,-3.629956,-1.622754,-2.355542,75.0
158,-1.3200049,0.30557,-0.68020535,-3.4101198,-1.1246704,-1.803296,75.0
159,-1.846055,-0.036854982,-0.81639326,-3.4101198,-1.1246704,-1.803296,75.0
160,-1.846055,-0.036854982,-0.81639326,-2.5159059,-0.95793456,-1.270166,75.0
161,-2.4525642,-0.23149812,-0.8514056,-2.5159059,-0.95793456,-1.270166,75.0
162,-2.4525642,-0.23149812,-0.8514056,-2.270581,-0.7147339,-0.8644776,75.0
163,-3.4456697,-0.026201963,-0.69183004,-2.270581,-0.7147339,-0.8644776,75.0
164,-3.4456697,-0.026201963,-0.69183004,-1.5569092,-0.6117188,-0.4895874,75.0
165,-3.2636037,0.10878694,-0.4120822,-1.5569092,-0.6117188,-0.4895874,75.0
166,-3.2636037,0.10878694,-0.4120822,-1.4677002,-0.55543214,-0.41843262,75.0
167,-3.4655216,0.5565486,-0.053054333,-1.4677002,-0.55543214,-0.41843262,75.0
168,-3.4655216,0.5565486,-0.053054333,-1.5229248,-0.48533937,-0.3812622,75.0
169,-3.4054008,1.0903072,0.38641405,-1.5229248,-0.48533937,-0.3812622,75.0
170,-3.4054008,1.0903072,0.38641405,-1.9795898,-0.41737062,-0.4364868,75.0
171,-3.0138714,1.3320236,0.7563603,-1.9795898,-0.41737062,-0.4364868,75.0
172,-3.0138714,1.3320236,0.7563603,-2.5998046,-0.29736328,-0.5235718,75.0
173,-2.485621,0.8799256,0.9920877,-2.5998046,-0.29736328,-0.5235718,75.0
174,-2.485621,0.8799256,0.9920877,-2.3757203,-0.3727661,-0.5777344,75.0
175,-1.9904256,0.06698978,1.0861751,-2.3757203,-0.3727661,-0.5777344,75.0
176,-1.9904256,0.06698978,1.0861751,-2.2960694,-0.39188233,-0.5915405,75.0
177,-1.4713078,-0.27829295,1.107966,-2.2960694,-0.39188233,-0.5915405,75.0
178,-1.4713078,-0.27829295,1.107966,-2.1473877,-0.45029297,-0.6701294,75.0
179,-0.87426305,0.075241625,1.1772419,-2.1473877,-0.45029297,-0.6701294,75.0
180,-0.87426305,0.075241625,1.1772419,-2.0964112,-0.5235718,-0.75296634,75.0
181,-0.20581913,0.57706344,1.3483853,-2.0964112,-0.5235718,-0.75296634,75.0
182,-0.20581913,0.57706344,1.3483853,-2.1006591,-0.5703003,-0.76358646,75.0
183,0.3734795,0.631475,1.549509,-2.1006591,-0.5703003,-0.76358646,75.0
184,0.3734795,0.631475,1.549509,-2.0082643,-0.5915405,-0.7423462,75.0
185,0.7391279,0.16324882,1.6065384,-2.0082643,-0.5915405,-0.7423462,75.0
186,0.7391279,0.16324882,1.6065384,-1.7661256,-0.6690674,-0.70198977,75.0
187,0.9383604,-0.3479898,1.5604383,-1.7661256,-0.6690674,-0.70198977,75.0
188,0.9383604,-0.3479898,1.5604383,-1.3349488,-0.7497803,-0.6488892,75.0
189,1.1052537,-0.451573,1.6585313,-1.3349488,-0.7497803,-0.6488892,75.0
190,1.1052537,-0.451573,1.6585313,-0.901648,-0.78376466,-0.5968506,75.0
191,1.3659168,-0.2672521,1.8629212,-0.901648,-0.78376466,-0.5968506,75.0
192,1.3659168,-0.2672521,1.8629212,-0.6595093,-0.7540283,-0.51932377,75.0
193,1.6683073,-0.13383341,1.9973559,-0.6595093,-0.7540283,-0.51932377,75.0
194,1.6683073,-0.13383341,1.9973559,-0.51826173,-0.6786255,-0.3993164,75.0
195,1.7439964,-0.10590705,1.9780483,-0.51826173,-0.6786255,-0.3993164,75.0
196,1.7439964,-0.10590705,1.9780483,-0.5320679,-0.53950197,-0.2442627,75.0
197,1.5656806,-0.14923978,1.75706,-0.5320679,-0.53950197,-0.2442627,75.0
198,1.5656806,-0.14923978,1.75706,-0.5798584,-0.33878174,-0.07327881,75.0
199,1.278985,-0.2207346,1.3569179,-0.5798584,-0.33878174,-0.07327881,75.0
200,1.278985,-0.2207346,1.3569179,-0.5161377,-0.20390625,0.12531738,75.0
201,0.5686836,-0.16711503,0.98603487,-0.5161377,-0.20390625,0.12531738,75.0
202,0.5686836,-0.16711503,0.98603487,-0.32178956,-0.028674318,0.32391357,75.0
203,-0.4109466,0.045983255,0.6973362,-0.32178956,-0.028674318,0.32391357,75.0
204,-0.4109466,0.045983255,0.6973362,-0.007434082,0.18903808,0.5235718,75.0
205,-0.94162357,0.2987373,0.31996632,-0.007434082,0.18903808,0.5235718,75.0
206,-0.94162357,0.2987373,0.31996632,0.27293703,0.45454103,0.725354,75.0
207,-0.68235165,0.4725836,-0.23450518,0.27293703,0.45454103,0.725354,75.0
208,-0.68235165,0.4725836,-0.23450518,0.4694092,0.70942384,0.8973999,75.0
209,0.14611089,0.52544236,-0.8479557,0.4694092,0.70942384,0.8973999,75.0
210,0.14611089,0.52544236,-0.8479557,0.54375,0.9685547,1.0556396,75.0
211,0.91279936,0.47440663,-1.3369584,0.54375,0.9685547,1.0556396,75.0
212,0.91279936,0.47440663,-1.3369584,0.6467652,1.2011353,1.2255615,75.0
213,1.1854763,0.4393886,-1.6095083,0.6467652,1.2011353,1.2255615,75.0
214,1.1854763,0.4393886,-1.6095083,0.8028809,1.4050416,1.3827393,75.0
215,1.0382493,0.55539274,-1.7552581,0.8028809,1.4050416,1.3827393,75.0
216,1.0382493,0.55539274,-1.7552581,0.9547486,1.5515991,1.5091187,75.0
217,0.73243046,0.7914578,-1.8576977,0.9547486,1.5515991,1.5091187,75.0
218,0.73243046,0.7914578,-1.8576977,0.9897949,1.6578003,1.6110718,75.0
219,0.3161323,0.9857907,-1.914747,0.9897949,1.6578003,1.6110718,75.0
220,0.3161323,0.9857907,-1.914747,0.9218262,1.7332032,1.7066529,75.0
221,-0.2905023,1.04426,-1.917784,0.9218262,1.7332032,1.7066529,75.0
222,-0.2905023,1.04426,-1.917784,0.8230591,1.7979859,1.7958618,75.0
223,-0.8923384,1.0062577,-1.877257,0.8230591,1.7979859,1.7958618,75.0
224,-0.8923384,1.0062577,-1.877257,0.71791995,1.8510865,1.8617066,75.0
225,-1.197147,0.98191047,-1.8396596,0.71791995,1.8510865,1.8617066,75.0
226,-1.197147,0.98191047,-1.8396596,0.6435791,1.8723267,1.897815,75.0
227,-1.1432157,0.98390484,-1.8408684,0.6435791,1.8723267,1.897815,75.0
228,-1.1432157,0.98390484,-1.8408684,0.6138428,1.8362182,1.8914429,75.0
229,-0.8800877,0.9617089,-1.8843524,0.6138428,1.8362182,1.8914429,75.0
230,-0.8800877,0.9617089,-1.8843524,0.6180908,1.7640015,1.812854,75.0
231,-0.55833036,0.8526435,-1.9003897,0.6180908,1.7640015,1.812854,75.0
232,-0.55833036,0.8526435,-1.9003897,0.6786255,1.6620483,1.6801026,75.0
233,-0.26353443,0.6883037,-1.8624504,0.6786255,1.6620483,1.6801026,75.0
234,-0.26353443,0.6883037,-1.8624504,0.7890747,1.5346069,1.5038086,75.0
235,-0.011315823,0.55716157,-1.7648993,0.7890747,1.5346069,1.5038086,75.0
236,-0.011315823,0.55716157,-1.7648993,0.83898926,1.4209718,1.2999023,75.0
237,0.20031011,0.5003679,-1.6330864,0.83898926,1.4209718,1.2999023,75.0
238,0.20031011,0.5003679,-1.6330864,0.8379273,1.3137085,1.0970582,75.0
239,0.20031011,0.5003679,-1.6330864,0.8379273,1.3137085,1.0970582,76.0
240,0.26828027,0.44611955,-1.4301753,0.8379273,1.3137085,1.0970582,76.0
241,0.26828027,0.44611955,-1.4301753,0.69986576,1.2244996,0.88359374,76.0
242,0.32719743,0.37785506,-1.1813474,0.69986576,1.2244996,0.88359374,76.0
243,0.32719743,0.37785506,-1.1813474,0.48746338,1.1384766,0.6595093,76.0
244,0.66321063,0.35431027,-0.9935155,0.48746338,1.1384766,0.6595093,76.0
245,0.66321063,0.35431027,-0.9935155,0.21134034,1.0471436,0.42692873,76.0
246,1.2043844,0.34773064,-0.84437275,0.21134034,1.0471436,0.42692873,76.0
247,1.2043844,0.34773064,-0.84437275,-0.14549561,0.95581055,0.18054199,76.0
248,1.7283269,0.29962015,-0.66782,-0.14549561,0.95581055,0.18054199,76.0
249,1.7283269,0.29962015,-0.66782,-0.53950197,0.8485474,-0.07540283,76.0
250,2.0750687,0.2092762,-0.48642874,-0.53950197,0.8485474,-0.07540283,76.0
251,2.0750687,0.2092762,-0.48642874,-0.8952759,0.71154785,-0.3079834,76.0
252,2.1981654,0.1092422,-0.3244946,-0.8952759,0.71154785,-0.3079834,76.0
253,2.1981654,0.1092422,-0.3244946,-1.2075074,0.50870365,-0.58410645,76.0
254,2.021606,0.10980582,-0.17509842,-1.2075074,0.50870365,-0.58410645,76.0
255,2.021606,0.10980582,-0.17509842,-1.632312,0.24532472,-0.8294312,76.0
256,1.2986083,0.18192434,-0.015237331,-1.632312,0.24532472,-0.8294312,76.0
257,1.2986083,0.18192434,-0.015237331,-1.9126831,-0.08602295,-1.0545777,76.0
258,0.11908674,0.32213855,0.2456348,-1.9126831,-0.08602295,-1.0545777,76.0
259,0.11908674,0.32213855,0.2456348,-2.069861,-0.42161867,-1.2021973,76.0
260,-0.9410465,0.54275703,0.68358064,-2.069861,-0.42161867,-1.2021973,76.0
261,-0.9410465,0.54275703,0.68358064,-2.0581787,-0.6711914,-1.3105224,76.0
262,-1.1699882,0.6917374,1.210268,-2.0581787,-0.6711914,-1.3105224,76.0
263,-1.1699882,0.6917374,1.210268,-2.0454347,-0.81881106,-1.360437,76.0
264,-0.5664592,0.65708876,1.5006118,-2.0454347,-0.81881106,-1.360437,76.0
265,-0.5664592,0.65708876,1.5006118,-2.1367676,-0.89208984,-1.4135376,76.0
266,0.17271137,0.5008173,1.3138072,-2.1367676,-0.89208984,-1.4135376,76.0
267,0.17271137,0.5008173,1.3138072,-2.3396118,-0.96218264,-1.5346069,76.0
268,0.45851827,0.24116898,0.86891687,-2.3396118,-0.96218264,-1.5346069,76.0
269,0.45851827,0.24116898,0.86891687,-2.5923707,-1.0556396,-1.7427613,76.0
270,0.14441466,-0.17808533,0.6197796,-2.5923707,-1.0556396,-1.7427613,76.0
271,0.14441466,-0.17808533,0.6197796,-2.7389283,-1.1299804,-1.9710938,76.0
272,-0.65573287,-0.6899657,0.7739731,-2.7389283,-1.1299804,-1.9710938,76.0
273,-0.65573287,-0.6899657,0.7739731,-2.6539674,-1.1437867,-2.1558838,76.0
274,-1.6721327,-1.1240795,1.166139,-2.6539674,-1.1437867,-2.1558838,76.0
275,-1.6721327,-1.1240795,1.166139,-2.3013794,-1.1076783,-2.252527,76.0
276,-2.5490832,-1.3103476,1.4735363,-2.3013794,-1.1076783,-2.252527,76.0
277,-2.5490832,-1.3103476,1.4735363,-1.8532104,-1.0545777,-2.253589,76.0
278,-3.0101407,-1.2649164,1.5572592,-1.8532104,-1.0545777,-2.253589,76.0
279,-3.0101407,-1.2649164,1.5572592,-1.3901733,-1.0110352,-2.18031,76.0
280,-2.9373972,-1.1610055,1.4715033,-1.3901733,-1.0110352,-2.18031,76.0
281,-2.9373972,-1.1610055,1.4715033,-0.97386473,-0.97067875,-2.0656128,76.0
282,-2.3749912,-1.1376667,1.3257866,-0.97386473,-0.97067875,-2.0656128,76.0
283,-2.3749912,-1.1376667,1.3257866,-0.6711914,-0.93775636,-1.9774659,76.0
284,-1.6047292,-1.2128067,1.1894013,-0.6711914,-0.93775636,-1.9774659,76.0
285,-1.6047292,-1.2128067,1.1894013,-0.49489745,-0.9165161,-1.9243653,76.0
286,-0.94219404,-1.3822448,1.1644605,-0.49489745,-0.9165161,-1.9243653,76.0
287,-0.94219404,-1.3822448,1.1644605,-0.3175415,-0.8963379,-1.8893188,76.0
288,-0.46258092,-1.5536718,1.3633556,-0.3175415,-0.8963379,-1.8893188,76.0
289,-0.46258092,-1.5536718,1.3633556,-0.1720459,-0.86766356,-1.8574585,76.0
290,-0.13705689,-1.649749,1.7160995,-0.1720459,-0.86766356,-1.8574585,76.0
291,-0.13705689,-1.649749,1.7160995,-0.1178833,-0.814563,-1.81073,76.0
292,0.052805662,-1.6876338,2.004569,-0.1178833,-0.814563,-1.81073,76.0
293,0.052805662,-1.6876338,2.004569,-0.0637207,-0.7688965,-1.7629395,76.0
294,0.22871912,-1.6902193,2.079595,-0.0637207,-0.7688965,-1.7629395,76.0
295,0.22871912,-1.6902193,2.079595,-0.10620117,-0.72004396,-1.7236451,76.0
296,0.5684245,-1.7936916,1.9743695,-0.10620117,-0.72004396,-1.7236451,76.0
297,0.5684245,-1.7936916,1.9743695,-0.016992187,-0.67225343,-1.7087768,76.0
298,1.1379671,-2.0358567,1.9055209,-0.016992187,-0.67225343,-1.7087768,76.0
299,1.1379671,-2.0358567,1.9055209,0.28355715,-0.61278075,-1.6896607,76.0
300,1.7567117,-2.2430286,1.8877835,0.28355715,-0.61278075,-1.6896607,76.0
301,1.7567117,-2.2430286,1.8877835,0.5235718,-0.4704712,-1.6163819,76.0
302,2.09149,-2.2337174,1.6355567,0.5235718,-0.4704712,-1.6163819,76.0
303,2.09149,-2.2337174,1.6355567,0.542688,-0.3058594,-1.3912354,76.0
304,1.9733019,-1.999352,1.0731549,0.542688,-0.3058594,-1.3912354,76.0
305,1.9733019,-1.999352,1.0731549,0.3334717,-0.10513916,-0.9685547,76.0
306,1.60673,-1.6097355,0.48773527,0.3334717,-0.10513916,-0.9685547,76.0
307,1.60673,-1.6097355,0.48773527,0.13168946,0.09451904,-0.38869628,76.0
308,0.87731504,-0.9983964,0.17264652,0.13168946,0.09451904,-0.38869628,76.0
309,0.87731504,-0.9983964,0.17264652,0.11363526,0.34940186,0.28674316,76.0
310,-0.29381442,-0.0852406,0.058600903,0.11363526,0.34940186,0.28674316,76.0
311,-0.29381442,-0.0852406,0.058600903,0.50233155,0.5076416,0.8782837,76.0
312,-1.0857962,0.81781816,-0.22791195,0.50233155,0.5076416,0.8782837,76.0
313,-1.0857962,0.81781816,-0.22791195,0.8219971,0.68074954,1.2871583,76.0
314,-0.772763,1.1316228,-0.79913855,0.8219971,0.68074954,1.2871583,76.0
315,-0.772763,1.1316228,-0.79913855,0.8527954,0.8687256,1.5038086,76.0
316,0.400442,0.8104739,-1.3418012,0.8527954,0.8687256,1.5038086,76.0
317,0.400442,0.8104739,-1.3418012,0.94412845,1.0099732,1.5940796,76.0
318,1.5745773,0.3948512,-1.5599887,0.94412845,1.0099732,1.5940796,76.0
319,1.5745773,0.3948512,-1.5599887,0.89846194,1.178833,1.6503662,76.0
320,2.0743592,0.2508421,-1.5098808,0.89846194,1.178833,1.6503662,76.0
321,2.0743592,0.2508421,-1.5098808,0.9143921,1.3614991,1.718335,76.0
322,1.7611475,0.44703603,-1.3790593,0.9143921,1.3614991,1.718335,76.0
323,1.7611475,0.44703603,-1.3790593,1.0513916,1.4188477,1.8054199,76.0
324,0.88068295,0.98525333,-1.312891,1.0513916,1.4188477,1.8054199,76.0
325,0.88068295,0.98525333,-1.312891,0.8527954,1.5069946,1.9169312,76.0
326,-0.25358367,1.6286201,-1.3600173,0.8527954,1.5069946,1.9169312,76.0
327,-0.25358367,1.6286201,-1.3600173,0.6042847,1.5770874,2.081543,76.0
328,-1.3079329,2.0923128,-1.4891369,0.6042847,1.5770874,2.081543,76.0
329,-1.3079329,2.0923128,-1.4891369,0.4056885,1.630188,2.2429688,76.0
330,-1.9427452,2.2979345,-1.6485484,0.4056885,1.630188,2.2429688,76.0
331,-1.9427452,2.2979345,-1.6485484,0.4056885,1.630188,2.2429688,76.0
332,-1.9427452,2.2979345,-1.6485484,0.2814331,1.6854126,2.3969605,76.0
333,-2.0756683,2.1954644,-1.8343416,0.2814331,1.6854126,2.3969605,76.0
334,-2.0756683,2.1954644,-1.8343416,0.36002198,1.6960328,2.540332,76.0
335,-1.8083618,1.8893671,-2.0601125,0.36002198,1.6960328,2.540332,76.0
336,-1.8083618,1.8893671,-2.0601125,0.5511841,1.6885986,2.6380372,76.0
337,-1.2670875,1.6118965,-2.2210147,0.5511841,1.6885986,2.6380372,76.0
338,-1.2670875,1.6118965,-2.2210147,0.7593384,1.6705445,2.6667116,76.0
339,-0.6095317,1.5105622,-2.2545462,0.7593384,1.6705445,2.6667116,76.0
340,-0.6095317,1.5105622,-2.2545462,0.9154541,1.6418701,2.617859,76.0
341,0.036752105,1.5526881,-2.1445305,0.9154541,1.6418701,2.617859,76.0
342,0.036752105,1.5526881,-2.1445305,0.94625247,1.6238159,2.4936035,76.0
343,0.60593975,1.5921626,-1.9048579,0.94625247,1.6238159,2.4936035,76.0
344,0.60593975,1.5921626,-1.9048579,0.8878418,1.6174439,2.3226197,76.0
345,1.0859969,1.5153317,-1.6391696,0.8878418,1.6174439,2.3226197,76.0
346,1.0859969,1.5153317,-1.6391696,0.71367186,1.6089478,2.0995972,76.0
347,1.52849,1.346262,-1.4253981,0.71367186,1.6089478,2.0995972,76.0
348,1.52849,1.346262,-1.4253981,0.4258667,1.6089478,1.8712647,76.0
349,1.9984024,1.1232133,-1.2747667,0.4258667,1.6089478,1.8712647,76.0
350,1.9984024,1.1232133,-1.2747667,0.15080567,1.5600952,1.6046997,76.0
351,2.4910436,0.99736214,-1.1461561,0.15080567,1.5600952,1.6046997,76.0
352,2.4910436,0.99736214,-1.1461561,-0.22302246,1.4570801,1.273352,76.0
353,2.7334967,1.1338761,-1.020294,-0.22302246,1.4570801,1.273352,76.0
354,2.7334967,1.1338761,-1.020294,-0.77314454,1.2542359,0.8772217,76.0
355,2.3289237,1.4892907,-0.8658445,-0.77314454,1.2542359,0.8772217,76.0
356,2.3289237,1.4892907,-0.8658445,-1.3944215,0.9781128,0.44816896,76.0
357,1.3744669,1.7324724,-0.61153555,-1.3944215,0.9781128,0.44816896,76.0
358,1.3744669,1.7324724,-0.61153555,-1.7820557,0.6202149,-0.04141846,76.0
359,0.41452694,1.4982948,-0.20551252,-1.7820557,0.6202149,-0.04141846,76.0
360,0.41452694,1.4982948,-0.20551252,-1.8861328,0.2262085,-0.5012695,76.0
361,-0.3783636,0.78349924,0.3596623,-1.8861328,0.2262085,-0.5012695,76.0
362,-0.3783636,0.78349924,0.3596623,-1.5176147,-0.2548828,-0.87615967,76.0
363,-1.08388,-0.011786938,1.0997171,-1.5176147,-0.2548828,-0.87615967,76.0
364,-1.08388,-0.011786938,1.0997171,-0.7742066,-0.67650145,-1.1214844,76.0
365,-1.550014,-0.32107496,1.8167613,-0.7742066,-0.67650145,-1.1214844,76.0
366,-1.550014,-0.32107496,1.8167613,0.09770508,-0.99722904,-1.2499878,76.0
367,-1.4216154,0.019714832,2.041422,0.09770508,-0.99722904,-1.2499878,76.0
368,-1.4216154,0.019714832,2.041422,0.5936646,-1.1809571,-1.3179566,76.0
369,-0.66696763,0.482862,1.5380813,0.5936646,-1.1809571,-1.3179566,76.0
370,-0.66696763,0.482862,1.5380813,0.58623046,-1.2903442,-1.4061035,76.0
371,0.3223586,0.5177469,0.6312829,0.58623046,-1.2903442,-1.4061035,76.0
372,0.3223586,0.5177469,0.6312829,0.25594482,-1.4230957,-1.6248779,76.0
373,1.066566,-0.022155285,-0.09501028,0.25594482,-1.4230957,-1.6248779,76.0
374,1.066566,-0.022155285,-0.09501028,-0.020178223,-1.6078857,-1.9668458,76.0
375,1.2051325,-0.83148146,-0.2322582,-0.020178223,-1.6078857,-1.9668458,76.0
376,1.2051325,-0.83148146,-0.2322582,-0.25700685,-1.7820557,-2.3279297,76.0
377,0.63113475,-1.5005245,0.23705721,-0.25700685,-1.7820557,-2.3279297,76.0
378,0.63113475,-1.5005245,0.23705721,-0.32497558,-1.8871949,-2.6040528,76.0
379,-0.4736445,-1.7888353,1.0186008,-0.32497558,-1.8871949,-2.6040528,76.0
380,-0.4736445,-1.7888353,1.0186008,-0.2538208,-1.9084351,-2.7304323,76.0
381,-1.6818943,-1.6788955,1.721143,-0.2538208,-1.9084351,-2.7304323,76.0
382,-1.6818943,-1.6788955,1.721143,-0.18054199,-1.8702027,-2.703882,76.0
383,-2.5444412,-1.3573985,2.080772,-0.18054199,-1.8702027,-2.703882,76.0
384,-2.5444412,-1.3573985,2.080772,-0.21983643,-1.8001099,-2.5690064,76.0
385,-2.8811584,-1.0698056,2.1366756,-0.21983643,-1.8001099,-2.5690064,76.0
386,-2.8811584,-1.0698056,2.1366756,-0.32391357,-1.713025,-2.4235108,76.0
387,-2.7403638,-1.0083835,2.0712912,-0.32391357,-1.713025,-2.4235108,76.0
388,-2.7403638,-1.0083835,2.0712912,-0.32709962,-1.6195679,-2.3077514,76.0
389,-2.290863,-1.1851003,1.9756854,-0.32709962,-1.6195679,-2.3077514,76.0
390,-2.290863,-1.1851003,1.9756854,-0.29099122,-1.5229248,-2.2185426,76.0
391,-1.7819214,-1.4657316,1.8960634,-0.29099122,-1.5229248,-2.2185426,76.0
392,-1.7819214,-1.4657316,1.8960634,-0.23151855,-1.4209718,-2.1505737,76.0
393,-1.3887085,-1.7144921,1.8817067,-0.23151855,-1.4209718,-2.1505737,76.0
394,-1.3887085,-1.7144921,1.8817067,-0.15823975,-1.2903442,-2.088977,76.0
395,-1.0826831,-1.8587275,1.9135563,-0.15823975,-1.2903442,-2.088977,76.0
396,-1.0826831,-1.8587275,1.9135563,-0.095581055,-1.1522827,-2.0199463,76.0
397,-0.69938624,-1.9160104,1.8678079,-0.095581055,-1.1522827,-2.0199463,76.0
398,-0.69938624,-1.9160104,1.8678079,-0.115759276,-1.0099732,-1.9498535,76.0
399,-0.10778779,-1.9619099,1.6444294,-0.115759276,-1.0099732,-1.9498535,76.0
400,-0.10778779,-1.9619099,1.6444294,-0.22514649,-0.8857178,-1.8925049,76.0
401,0.633301,-2.1354704,1.3910198,-0.22514649,-0.8857178,-1.8925049,76.0
402,0.633301,-2.1354704,1.3910198,-0.18585205,-0.7540283,-1.7852417,76.0
403,1.3194338,-2.4119897,1.2734604,-0.18585205,-0.7540283,-1.7852417,76.0
404,1.3194338,-2.4119897,1.2734604,-0.03079834,-0.6159668,-1.5749635,76.0
405,1.7357106,-2.6098409,1.2466125,-0.03079834,-0.6159668,-1.5749635,76.0
406,1.7357106,-2.6098409,1.2466125,0.007434082,-0.45347902,-1.2149414,76.0
407,1.8119817,-2.6298404,1.1515627,0.007434082,-0.45347902,-1.2149414,76.0
408,1.8119817,-2.6298404,1.1515627,0.07115479,-0.24851075,-0.6881836,76.0
409,1.6306522,-2.2127223,0.92820835,0.07115479,-0.24851075,-0.6881836,76.0
410,1.6306522,-2.2127223,0.92820835,0.009558106,-0.028674318,-0.08814698,76.0
411,1.1421438,-1.2039425,0.6172004,0.009558106,-0.028674318,-0.08814698,76.0
412,1.1421438,-1.2039425,0.6172004,0.021240234,0.23045655,0.45029297,76.0
413,0.34497726,-0.018732786,0.25170708,0.021240234,0.23045655,0.45029297,76.0
414,0.34497726,-0.018732786,0.25170708,0.30479738,0.47365722,0.87615967,76.0
415,0.017326951,0.6641154,-0.33150768,0.30479738,0.47365722,0.87615967,76.0
416,0.017326951,0.6641154,-0.33150768,0.3812622,0.7126099,1.1459106,76.0
417,0.70443773,0.5625179,-1.0714321,0.3812622,0.7126099,1.1459106,76.0
418,0.70443773,0.5625179,-1.0714321,0.41737062,0.86766356,1.268042,76.0
419,1.7537968,0.12256074,-1.5690842,0.41737062,0.86766356,1.268042,76.0
420,1.7537968,0.12256074,-1.5690842,0.47471926,1.0301514,1.360437,76.0
421,2.2304788,-0.06225419,-1.6730042,0.47471926,1.0301514,1.360437,76.0
422,2.2304788,-0.06225419,-1.6730042,0.47896728,1.2000732,1.5027466,76.0
423,1.8627155,0.2733779,-1.5219727,0.47896728,1.2000732,1.5027466,76.0
424,1.8627155,0.2733779,-1.5219727,0.4715332,1.355127,1.6854126,76.0
425,1.0012808,0.9971447,-1.355603,0.4715332,1.355127,1.6854126,76.0
426,1.0012808,0.9971447,-1.355603,0.27612305,1.4974365,1.9317993,76.0
427,9.0265274E-4,1.7421739,-1.3447852,0.27612305,1.4974365,1.9317993,76.0
428,9.0265274E-4,1.7421739,-1.3447852,0.053100586,1.6036377,2.2227905,76.0
429,9.0265274E-4,1.7421739,-1.3447852,0.053100586,1.6036377,2.2227905,75.0
430,-1.0168562,2.2259655,-1.5112531,0.053100586,1.6036377,2.2227905,75.0
431,-1.0168562,2.2259655,-1.5112531,-0.03186035,1.6620483,2.5052857,75.0
432,-1.8417077,2.427623,-1.7551084,-0.03186035,1.6620483,2.5052857,75.0
433,-1.8417077,2.427623,-1.7551084,-0.022302246,1.6875366,2.7410524,75.0
434,-2.16863,2.3844814,-1.9631565,-0.022302246,1.6875366,2.7410524,75.0
435,-2.16863,2.3844814,-1.9631565,-0.0010620117,1.7119629,2.9247804,75.0
436,-1.9221476,2.1706953,-2.108086,-0.0010620117,1.7119629,2.9247804,75.0
437,-1.9221476,2.1706953,-2.108086,0.12319336,1.7024049,3.0426636,75.0
438,-1.3103012,1.9024866,-2.1849308,0.12319336,1.7024049,3.0426636,75.0
439,-1.3103012,1.9024866,-2.1849308,0.3812622,1.6641724,3.078772,75.0
440,-0.65219605,1.686772,-2.1627152,0.3812622,1.6641724,3.078772,75.0
441,-0.65219605,1.686772,-2.1627152,0.6711914,1.621692,3.0235474,75.0
442,-0.13901758,1.5911779,-2.041244,0.6711914,1.621692,3.0235474,75.0
443,-0.13901758,1.5911779,-2.041244,0.86766356,1.5760254,2.902478,75.0
444,0.17319751,1.6010063,-1.8728634,0.86766356,1.5760254,2.902478,75.0
445,0.17319751,1.6010063,-1.8728634,0.9154541,1.5569092,2.7251222,75.0
446,0.31272793,1.6338689,-1.7042723,0.9154541,1.5569092,2.7251222,75.0
447,0.31272793,1.6338689,-1.7042723,0.8581055,1.537793,2.5169678,75.0
448,0.4945426,1.6476593,-1.5461328,0.8581055,1.537793,2.5169678,75.0
449,0.4945426,1.6476593,-1.5461328,0.6244629,1.5208008,2.272705,75.0
450,0.87443054,1.5950317,-1.3992352,0.6244629,1.5208008,2.272705,75.0
451,0.87443054,1.5950317,-1.3992352,0.29311523,1.4687623,1.9625977,75.0
452,1.3774498,1.4199586,-1.2680087,0.29311523,1.4687623,1.9625977,75.0
453,1.3774498,1.4199586,-1.2680087,-0.043542482,1.3434448,1.5887696,75.0
454,1.77497,1.1729298,-1.124551,-0.043542482,1.3434448,1.5887696,75.0
455,1.77497,1.1729298,-1.124551,-0.41418457,1.1437867,1.1310425,75.0
456,1.8036187,0.94771886,-0.9342723,-0.41418457,1.1437867,1.1310425,75.0
457,1.8036187,0.94771886,-0.9342723,-0.66481936,0.8793457,0.6244629,75.0
458,1.4365108,0.7665982,-0.63555264,-0.66481936,0.8793457,0.6244629,75.0
459,1.4365108,0.7665982,-0.63555264,-0.79332274,0.5734863,0.115759276,75.0
460,0.91905737,0.58909655,-0.24134016,-0.79332274,0.5734863,0.115759276,75.0
461,0.91905737,0.58909655,-0.24134016,-0.8666016,0.21240234,-0.39188233,75.0
462,0.39397383,0.37775898,0.17188168,-0.8666016,0.21240234,-0.39188233,75.0
463,0.39397383,0.37775898,0.17188168,-0.8517334,-0.20284425,-0.82836914,75.0
464,-0.27776527,0.19168472,0.5932672,-0.8517334,-0.20284425,-0.82836914,75.0
465,-0.27776527,0.19168472,0.5932672,-0.6117188,-0.6488892,-1.1321045,75.0
466,-0.8984816,0.11202717,1.0814986,-0.6117188,-0.6488892,-1.1321045,75.0
467,-0.8984816,0.11202717,1.0814986,-0.22196046,-1.0418335,-1.3742431,75.0
468,-0.83745,0.04629898,1.4910045,-0.22196046,-1.0418335,-1.3742431,75.0
469,-0.83745,0.04629898,1.4910045,0.18797608,-1.3689331,-1.5898316,75.0
470,-0.06433272,-0.14196491,1.5896298,0.18797608,-1.3689331,-1.5898316,75.0
471,-0.06433272,-0.14196491,1.5896298,0.49489745,-1.629126,-1.7947998,75.0
472,0.7238512,-0.44050074,1.3969601,0.49489745,-1.629126,-1.7947998,75.0
473,0.7238512,-0.44050074,1.3969601,0.6605713,-1.8224121,-2.0188844,75.0
474,0.94138575,-0.72614336,1.0987816,0.6605713,-1.8224121,-2.0188844,75.0
475,0.94138575,-0.72614336,1.0987816,0.72854006,-1.9413575,-2.264209,75.0
476,0.48708057,-0.9227848,0.8441987,0.72854006,-1.9413575,-2.264209,75.0
477,0.48708057,-0.9227848,0.8441987,0.7497803,-1.992334,-2.442627,75.0
478,-0.37609482,-1.0261428,0.65937996,0.7497803,-1.992334,-2.442627,75.0
479,-0.37609482,-1.0261428,0.65937996,0.68924564,-1.992334,-2.5052857,75.0
480,-1.3105927,-0.98599005,0.57242584,0.68924564,-1.992334,-2.5052857,75.0
481,-1.3105927,-0.98599005,0.57242584,0.5501221,-1.9413575,-2.4628053,75.0
482,-2.0157104,-0.82966113,0.6425598,0.5501221,-1.9413575,-2.4628053,75.0
483,-2.0157104,-0.82966113,0.6425598,0.44604492,-1.8595825,-2.366162,75.0
484,-2.318391,-0.65496445,0.89093995,0.44604492,-1.8595825,-2.366162,75.0
485,-2.318391,-0.65496445,0.89093995,0.3430298,-1.7820557,-2.2408447,75.0
486,-2.2014537,-0.58647156,1.2760943,0.3430298,-1.7820557,-2.2408447,75.0
487,-2.2014537,-0.58647156,1.2760943,0.2262085,-1.6705445,-2.1303957,75.0
488,-1.8356624,-0.7486086,1.6490982,0.2262085,-1.6705445,-2.1303957,75.0
489,-1.8356624,-0.7486086,1.6490982,0.08071289,-1.531421,-2.0348146,75.0
490,-1.4812253,-1.1248634,1.8648717,0.08071289,-1.531421,-2.0348146,75.0
491,-1.4812253,-1.1248634,1.8648717,-0.052038576,-1.3827393,-1.9657837,75.0
492,-1.2805125,-1.4777472,1.8893706,-0.052038576,-1.3827393,-1.9657837,75.0
493,-1.2805125,-1.4777472,1.8893706,-0.17416993,-1.2287476,-1.8903809,75.0
494,-1.2084187,-1.6789263,1.8170018,-0.17416993,-1.2287476,-1.8903809,75.0
495,-1.2084187,-1.6789263,1.8170018,-0.19116211,-1.075818,-1.7799317,75.0
496,-1.1835685,-1.7155653,1.772974,-0.19116211,-1.075818,-1.7799317,75.0
497,-1.1835685,-1.7155653,1.772974,-0.070092775,-0.93350834,-1.6174439,75.0
498,-1.0767865,-1.6156285,1.7010207,-0.070092775,-0.93350834,-1.6174439,75.0
499,-1.0767865,-1.6156285,1.7010207,0.007434082,-0.7763306,-1.448584,75.0
500,-0.6859653,-1.5131205,1.4783826,0.007434082,-0.7763306,-1.448584,75.0
501,-0.6859653,-1.5131205,1.4783826,0.04141846,-0.62764895,-1.2945923,75.0
502,0.12053931,-1.5178816,1.1387362,0.04141846,-0.62764895,-1.2945923,75.0
503,0.12053931,-1.5178816,1.1387362,0.0722168,-0.4725952,-1.1554688,75.0
504,1.0544393,-1.554198,0.83348656,0.0722168,-0.4725952,-1.1554688,75.0
505,1.0544393,-1.554198,0.83348656,0.047790527,-0.33771974,-0.98236084,75.0
506,1.4911344,-1.5186758,0.64232635,0.047790527,-0.33771974,-0.98236084,75.0
507,1.4911344,-1.5186758,0.64232635,-0.14124756,-0.19222413,-0.7306641,75.0
508,1.2609618,-1.4117546,0.54055786,-0.14124756,-0.19222413,-0.7306641,75.0
509,1.2609618,-1.4117546,0.54055786,-0.29736328,-0.011682129,-0.3971924,75.0
510,1.100847,-1.2238007,0.4287963,-0.29736328,-0.011682129,-0.3971924,75.0
511,1.100847,-1.2238007,0.4287963,-0.4067505,0.118945315,-0.07327881,75.0
512,1.0278945,-0.90319824,0.25849104,-0.4067505,0.118945315,-0.07327881,75.0
513,1.0278945,-0.90319824,0.25849104,-0.5278198,0.32285157,0.29523927,75.0
514,0.6495373,-0.62260747,0.023162365,-0.5278198,0.32285157,0.29523927,75.0
515,0.6495373,-0.62260747,0.023162365,-0.12319336,0.4609131,0.5713623,75.0
516,0.5411997,-0.4864161,-0.39772987,-0.12319336,0.4609131,0.5713623,75.0
517,0.5411997,-0.4864161,-0.39772987,0.0998291,0.6117188,0.77739257,75.0
518,1.0815315,-0.5184419,-0.99270797,0.0998291,0.6117188,0.77739257,75.0
519,1.0815315,-0.5184419,-0.99270797,0.33240968,0.6796875,0.88996583,75.0
520,1.7956696,-0.5713942,-1.4444103,0.33240968,0.6796875,0.88996583,75.0
521,1.7956696,-0.5713942,-1.4444103,0.631897,0.7072998,0.9802368,75.0
522,1.9185913,-0.33265257,-1.518553,0.631897,0.7072998,0.9802368,75.0
523,1.9185913,-0.33265257,-1.518553,0.81031495,0.75296634,1.0917481,75.0
524,1.2539525,0.26382184,-1.3059068,0.81031495,0.75296634,1.0917481,75.0
525,1.2539525,0.26382184,-1.3059068,0.72641605,0.8591675,1.2393677,75.0
526,0.16663861,0.92483926,-1.0660877,0.72641605,0.8591675,1.2393677,75.0
527,0.16663861,0.92483926,-1.0660877,0.5171997,0.9759888,1.44115,75.0
528,-0.9215355,1.3784213,-1.0268447,0.5171997,0.9759888,1.44115,75.0
529,-0.9215355,1.3784213,-1.0268447,0.34940186,1.0694458,1.6716064,75.0
530,-1.7777436,1.5846096,-1.2178869,0.34940186,1.0694458,1.6716064,75.0
531,-1.7777436,1.5846096,-1.2178869,0.36427003,1.1214844,1.8946289,75.0
532,-2.2240503,1.5841062,-1.4816704,0.36427003,1.1214844,1.8946289,75.0
533,-2.2240503,1.5841062,-1.4816704,0.542688,1.1597168,2.092163,75.0
534,-2.1274948,1.4733152,-1.6913666,0.542688,1.1597168,2.092163,75.0
535,-2.1274948,1.4733152,-1.6913666,0.75721437,1.1905152,2.2217286,75.0
536,-1.610199,1.360891,-1.8030689,0.75721437,1.1905152,2.2217286,75.0
537,-1.610199,1.360891,-1.8030689,0.9154541,1.2181275,2.275891,75.0
538,-1.610199,1.360891,-1.8030689,0.9154541,1.2181275,2.275891,76.0
539,-0.9512573,1.3057415,-1.8192008,0.9154541,1.2181275,2.275891,76.0
540,-0.9512573,1.3057415,-1.8192008,1.0333375,1.2393677,2.263147,76.0
541,-0.40453613,1.3225962,-1.7702532,1.0333375,1.2393677,2.263147,76.0
542,-0.40453613,1.3225962,-1.7702532,1.0736939,1.265918,2.2111084,76.0
543,-0.015291482,1.387264,-1.6667275,1.0736939,1.265918,2.2111084,76.0
544,-0.015291482,1.387264,-1.6667275,0.996167,1.3030884,2.1282716,76.0
545,0.30106026,1.4351774,-1.5399494,0.996167,1.3030884,2.1282716,76.0
546,0.30106026,1.4351774,-1.5399494,0.82836914,1.364685,2.0422485,76.0
547,0.6205235,1.4231908,-1.4208512,0.82836914,1.364685,2.0422485,76.0
548,0.6205235,1.4231908,-1.4208512,0.5968506,1.3976074,1.9264892,76.0
549,1.006868,1.3621123,-1.2891712,0.5968506,1.3976074,1.9264892,76.0
550,1.006868,1.3621123,-1.2891712,0.2888672,1.4177856,1.7905518,76.0
551,1.4718397,1.2604661,-1.1333146,0.2888672,1.4177856,1.7905518,76.0
552,1.4718397,1.2604661,-1.1333146,-0.019116212,1.4050416,1.6333741,76.0
553,1.8804625,1.1560779,-0.9724355,-0.019116212,1.4050416,1.6333741,76.0
554,1.8804625,1.1560779,-0.9724355,-0.29311523,1.3423828,1.445398,76.0
555,2.052124,1.1080775,-0.82086825,-0.29311523,1.3423828,1.445398,76.0
556,2.052124,1.1080775,-0.82086825,-0.6042847,1.2032593,1.2223755,76.0
557,1.7906005,1.1383543,-0.65083504,-0.6042847,1.2032593,1.2223755,76.0
558,1.7906005,1.1383543,-0.65083504,-0.7890747,1.0067872,0.9866089,76.0
559,1.1944435,1.1323023,-0.40876627,-0.7890747,1.0067872,0.9866089,76.0
560,1.1944435,1.1323023,-0.40876627,-0.75296634,0.76358646,0.6924316,76.0
561,1.1944435,1.1323023,-0.40876627,-0.62127686,0.45666504,0.3058594,76.0
562,0.7770879,0.9933176,-0.121117115,-0.62127686,0.45666504,0.3058594,76.0
563,0.6215725,0.76151204,0.12008619,-0.62127686,0.45666504,0.3058594,76.0
564,0.6215725,0.76151204,0.12008619,-0.62127686,0.13487549,-0.04885254,76.0
565,0.25974584,0.5273495,0.36374474,-0.62127686,0.13487549,-0.04885254,76.0
566,0.25974584,0.5273495,0.36374474,-0.62340087,-0.20072022,-0.32391357,76.0
567,-0.2603798,0.35999012,0.7131882,-0.62340087,-0.20072022,-0.32391357,76.0
568,-0.2603798,0.35999012,0.7131882,-0.41949463,-0.541626,-0.54693604,76.0
569,-0.27843332,0.20104122,1.086029,-0.41949463,-0.541626,-0.54693604,76.0
570,-0.27843332,0.20104122,1.086029,-0.038232423,-0.8857178,-0.7954468,76.0
571,0.44162083,-0.013056278,1.300183,-0.038232423,-0.8857178,-0.7954468,76.0
572,0.44162083,-0.013056278,1.300183,0.25063476,-1.1841431,-1.0513916,76.0
573,1.1112313,-0.23256397,1.3116796,0.25063476,-1.1841431,-1.0513916,76.0
574,1.1112313,-0.23256397,1.3116796,0.38444826,-1.3954834,-1.2945923,76.0
575,0.9638996,-0.35973287,1.2166289,0.38444826,-1.3954834,-1.2945923,76.0
576,0.9638996,-0.35973287,1.2166289,0.4078125,-1.5282348,-1.5558472,76.0
577,0.09101701,-0.4078791,1.1063477,0.4078125,-1.5282348,-1.5558472,76.0
578,0.09101701,-0.4078791,1.1063477,0.31329346,-1.5813354,-1.7735596,76.0
579,-1.0330336,-0.41181374,0.9985547,0.31329346,-1.5813354,-1.7735596,76.0
580,-1.0330336,-0.41181374,0.9985547,0.15930176,-1.5707153,-1.8946289,76.0
581,-2.061205,-0.35027623,0.9330723,0.15930176,-1.5707153,-1.8946289,76.0
582,-2.061205,-0.35027623,0.9330723,-0.0063720704,-1.5208008,-1.9233032,76.0
583,-2.8370376,-0.24941039,0.94432163,-0.0063720704,-1.5208008,-1.9233032,76.0
584,-2.8370376,-0.24941039,0.94432163,-0.124255374,-1.4528321,-1.8925049,76.0
585,-3.2786267,-0.21609306,1.058094,-0.124255374,-1.4528321,-1.8925049,76.0
586,-3.2786267,-0.21609306,1.058094,-0.08920898,-1.3891114,-1.8287842,76.0
587,-3.306068,-0.28593612,1.2499542,-0.08920898,-1.3891114,-1.8287842,76.0
588,-3.306068,-0.28593612,1.2499542,-0.028674318,-1.2945923,-1.7480713,76.0
589,-2.9331722,-0.40216208,1.3501465,-0.028674318,-1.2945923,-1.7480713,76.0
590,-2.9331722,-0.40216208,1.3501465,-0.043542482,-1.1809571,-1.6620483,76.0
591,-2.2969527,-0.60191774,1.2245753,-0.043542482,-1.1809571,-1.6620483,76.0
592,-2.2969527,-0.60191774,1.2245753,-0.0998291,-1.0567017,-1.635498,76.0
593,-1.4951917,-0.9153354,0.95760214,-0.0998291,-1.0567017,-1.635498,76.0
594,-1.4951917,-0.9153354,0.95760214,-0.04248047,-1.002539,-1.6588624,76.0
595,-0.6245713,-1.2428274,0.8291676,-0.04248047,-1.002539,-1.6588624,76.0
596,-0.6245713,-1.2428274,0.8291676,0.059472658,-0.97067875,-1.6832886,76.0
597,0.105921626,-1.4978998,1.0256877,0.059472658,-0.97067875,-1.6832886,76.0
598,0.105921626,-1.4978998,1.0256877,0.19541016,-0.9430664,-1.7055908,76.0
599,0.61474216,-1.6373824,1.423846,0.19541016,-0.9430664,-1.7055908,76.0
600,0.61474216,-1.6373824,1.423846,0.24957275,-0.8793457,-1.720459,76.0
601,1.0404387,-1.673175,1.7185202,0.24957275,-0.8793457,-1.720459,76.0
602,1.0404387,-1.673175,1.7185202,0.17947999,-0.75296634,-1.7077149,76.0
603,1.5658472,-1.6668848,1.6800895,0.17947999,-0.75296634,-1.7077149,76.0
604,1.5658472,-1.6668848,1.6800895,0.010620117,-0.59260255,-1.6684204,76.0
605,2.1826825,-1.6215572,1.2731488,0.010620117,-0.59260255,-1.6684204,76.0
606,2.1826825,-1.6215572,1.2731488,-0.362146,-0.4056885,-1.5494751,76.0
607,2.2447424,-1.620842,0.66839695,-0.362146,-0.4056885,-1.5494751,76.0
608,2.2447424,-1.620842,0.66839695,-0.75509036,-0.22302246,-1.2531738,76.0
609,1.504058,-1.7818664,0.21037674,-0.75509036,-0.22302246,-1.2531738,76.0
610,1.504058,-1.7818664,0.21037674,-0.6531372,-0.081774905,-0.8071289,76.0
611,1.0781243,-1.802068,0.054214478,-0.6531372,-0.081774905,-0.8071289,76.0
612,1.0781243,-1.802068,0.054214478,-0.34090576,-0.012744141,-0.37595215,76.0
613,0.9487177,-1.356669,0.0801146,-0.34090576,-0.012744141,-0.37595215,76.0
614,0.9487177,-1.356669,0.0801146,-0.21240234,0.11257324,0.08071289,76.0
615,0.097060084,-0.7487141,0.1090014,-0.21240234,0.11257324,0.08071289,76.0
616,0.097060084,-0.7487141,0.1090014,0.26550293,0.19116211,0.3802002,76.0
617,-0.7606211,-0.46056795,-0.076934576,0.26550293,0.19116211,0.3802002,76.0
618,-0.7606211,-0.46056795,-0.076934576,0.6085327,0.362146,0.5341919,76.0
619,-0.4259529,-0.5641453,-0.54488516,0.6085327,0.362146,0.5341919,76.0
620,-0.4259529,-0.5641453,-0.54488516,0.8421753,0.47896728,0.57242435,76.0
621,0.7399628,-0.74675083,-1.0578198,0.8421753,0.47896728,0.57242435,76.0
622,0.7399628,-0.74675083,-1.0578198,0.8952759,0.5968506,0.5968506,76.0
623,1.5486352,-0.7838266,-1.3612828,0.8952759,0.5968506,0.5968506,76.0
624,1.5486352,-0.7838266,-1.3612828,0.9674927,0.7104859,0.6138428,76.0
625,1.5326216,-0.5297712,-1.4530766,0.9674927,0.7104859,0.6138428,76.0
626,1.5326216,-0.5297712,-1.4530766,0.9696167,0.81243896,0.6860596,76.0
627,0.9062121,0.03222561,-1.4762552,0.9696167,0.81243896,0.6860596,76.0
628,0.9062121,0.03222561,-1.4762552,0.7126099,0.9398804,0.84748536,76.0
629,0.44354892,0.39086843,-1.4198347,0.7126099,0.9398804,0.84748536,76.0
630,0.44354892,0.39086843,-1.4198347,0.5787964,0.99510497,0.95368654,76.0
631,-0.9415109,1.108105,-1.5620763,0.5787964,0.99510497,0.95368654,76.0
632,-0.9415109,1.108105,-1.5620763,0.2527588,1.1374146,1.3200806,76.0
633,-1.1596785,1.211606,-1.5113676,0.2527588,1.1374146,1.3200806,76.0
634,-1.1596785,1.211606,-1.5113676,0.22196046,1.1639649,1.44646,76.0
635,-1.1596785,1.211606,-1.5113676,0.22196046,1.1639649,1.44646,76.0
636,-2.0889733,1.2596657,-1.6624144,0.22196046,1.1639649,1.44646,76.0
637,-2.0889733,1.2596657,-1.6624144,0.27718505,1.2298096,1.7714356,76.0
638,-1.7832636,1.1736383,-1.61958,0.27718505,1.2298096,1.7714356,76.0
639,-1.7832636,1.1736383,-1.61958,0.37701416,1.2361816,1.8521484,76.0
640,-1.4174068,0.87022173,-1.777854,0.37701416,1.2361816,1.8521484,76.0
641,-1.4174068,0.87022173,-1.777854,0.70942384,1.2213135,1.9753418,76.0
642,-0.8923849,0.85020566,-1.700811,0.70942384,1.2213135,1.9753418,76.0
643,-0.8923849,0.85020566,-1.700811,0.78376466,1.2128174,1.9827759,76.0
644,-0.37827557,0.8301768,-1.686247,0.78376466,1.2128174,1.9827759,76.0
645,-0.37827557,0.8301768,-1.686247,0.996167,1.1809571,1.9381714,76.0
646,-0.12698567,0.87415123,-1.563231,0.996167,1.1809571,1.9381714,76.0
647,-0.12698567,0.87415123,-1.563231,1.0110352,1.1724609,1.906311,76.0
648,-0.059523106,1.0739914,-1.424999,1.0110352,1.1724609,1.906311,76.0
649,-0.059523106,1.0739914,-1.424999,0.87191164,1.1565307,1.7852417,76.0
650,0.11748162,1.0684949,-1.3013029,0.87191164,1.1565307,1.7852417,76.0
651,0.11748162,1.0684949,-1.3013029,0.81987303,1.1395386,1.7416992,76.0
652,0.47297698,1.0744249,-1.1233299,0.81987303,1.1395386,1.7416992,76.0
653,0.47297698,1.0744249,-1.1233299,0.5777344,1.0736939,1.5707153,76.0
654,0.7540896,0.9714296,-1.0130436,0.5777344,1.0736939,1.5707153,76.0
655,0.7540896,0.9714296,-1.0130436,0.5246338,1.0397094,1.4995606,76.0
656,1.6200075,0.7914381,-0.74974155,0.5246338,1.0397094,1.4995606,76.0
657,1.6200075,0.7914381,-0.74974155,0.3717041,0.86766356,1.2181275,76.0
658,1.7731178,0.69058454,-0.62479305,0.3717041,0.86766356,1.2181275,76.0
659,1.7731178,0.69058454,-0.62479305,0.3058594,0.7858887,1.0981201,76.0
660,2.3460577,0.5155169,-0.24742961,0.3058594,0.7858887,1.0981201,76.0
661,2.3460577,0.5155169,-0.24742961,0.13487549,0.45666504,0.67437744,76.0
662,2.1079497,0.41713762,-0.097675085,0.13487549,0.45666504,0.67437744,76.0
663,2.1079497,0.41713762,-0.097675085,0.10938721,0.32285157,0.5246338,76.0
664,1.8989453,0.25670815,0.22547317,0.10938721,0.32285157,0.5246338,76.0
665,1.8989453,0.25670815,0.22547317,0.06159668,0.052038576,0.20496826,76.0
666,1.579813,0.12671661,0.48473644,0.06159668,0.052038576,0.20496826,76.0
667,1.579813,0.12671661,0.48473644,-0.09451904,-0.25913087,-0.15080567,76.0
668,-0.28993368,0.19612432,0.7844324,-0.09451904,-0.25913087,-0.15080567,76.0
669,-0.28993368,0.19612432,0.7844324,-0.057348635,-0.79013675,-0.36108398,76.0
670,-1.4383678,0.21747088,0.9007516,-0.057348635,-0.79013675,-0.36108398,76.0
671,-1.4383678,0.21747088,0.9007516,0.17629395,-0.95368654,-0.36851808,76.0
672,-3.928807,0.3618796,1.5087726,0.17629395,-0.95368654,-0.36851808,76.0
673,-3.928807,0.3618796,1.5087726,1.2149414,-1.2446778,-0.34727785,76.0
674,-3.3852086,0.19718194,1.3647695,1.2149414,-1.2446778,-0.34727785,76.0
675,-3.3852086,0.19718194,1.3647695,1.4337158,-1.2945923,-0.32709962,76.0
676,-1.9292363,0.10061669,0.9813297,1.4337158,-1.2945923,-0.32709962,76.0
677,-1.9292363,0.10061669,0.9813297,1.5887696,-1.3880494,-0.37382814,76.0
678,-0.16133338,-0.08911109,0.34539092,1.5887696,-1.3880494,-0.37382814,76.0
679,-0.16133338,-0.08911109,0.34539092,1.5537232,-1.4995606,-0.6180908,76.0
680,0.85995924,-0.42592764,-0.065874815,1.5537232,-1.4995606,-0.6180908,76.0
681,0.85995924,-0.42592764,-0.065874815,1.4984986,-1.6110718,-0.89102787,76.0
682,0.8806188,-0.8585156,0.07195842,1.4984986,-1.6110718,-0.89102787,76.0
683,0.8806188,-0.8585156,0.07195842,1.4602661,-1.6376221,-1.1013062,76.0
684,0.34256876,-1.0984702,0.59181964,1.4602661,-1.6376221,-1.1013062,76.0
685,0.34256876,-1.0984702,0.59181964,1.4262818,-1.5526612,-1.1512207,76.0
686,-0.27284443,-0.97286797,1.0426818,1.4262818,-1.5526612,-1.1512207,76.0
687,-0.27284443,-0.97286797,1.0426818,1.2627319,-1.3986695,-1.1140503,76.0
688,-0.9388566,-0.37745202,1.1847315,1.2627319,-1.3986695,-1.1140503,76.0
689,-0.9388566,-0.37745202,1.1847315,0.8666016,-1.1660889,-0.91014403,76.0
690,-0.98694956,-0.29435658,1.0368721,0.8666016,-1.1660889,-0.91014403,76.0
691,-0.98694956,-0.29435658,1.0368721,0.75721437,-1.1055542,-0.84111327,76.0
692,-0.9844449,-0.23161566,0.8455255,0.75721437,-1.1055542,-0.84111327,76.0
693,-0.9844449,-0.23161566,0.8455255,0.6701294,-1.0004151,-0.70942384,76.0
694,-0.89934796,-0.40414023,0.7441572,0.6701294,-1.0004151,-0.70942384,76.0
695,-0.89934796,-0.40414023,0.7441572,0.6616333,-0.8973999,-0.56392825,76.0
696,-0.8818807,-0.7037321,0.7229625,0.6616333,-0.8973999,-0.56392825,76.0
697,-0.8818807,-0.7037321,0.7229625,0.7742066,-0.80181885,-0.42268068,76.0
698,-0.87526774,-0.99150133,0.71185386,0.7742066,-0.80181885,-0.42268068,76.0
699,-0.87526774,-0.99150133,0.71185386,1.0439576,-0.7349121,-0.3058594,76.0
700,-0.8742743,-1.0743167,0.73627996,1.0439576,-0.7349121,-0.3058594,76.0
701,-0.8742743,-1.0743167,0.73627996,1.2871583,-0.6595093,-0.19222413,76.0
702,-0.94898,-0.86696076,0.7891705,1.2871583,-0.6595093,-0.19222413,76.0
703,-0.94898,-0.86696076,0.7891705,1.4167236,-0.56180423,-0.095581055,76.0
704,-1.0339887,-0.5364031,0.8061777,1.4167236,-0.56180423,-0.095581055,76.0
705,-1.0339887,-0.5364031,0.8061777,1.4252198,-0.4428589,-0.020178223,76.0
706,-0.90059185,-0.28980365,0.69650465,1.4252198,-0.4428589,-0.020178223,76.0
707,-0.90059185,-0.28980365,0.69650465,1.26167,-0.29311523,0.040356446,76.0
708,-0.20429921,-0.21820767,0.36262363,1.26167,-0.29311523,0.040356446,76.0
709,-0.20429921,-0.21820767,0.36262363,0.9696167,-0.06690674,0.095581055,76.0
710,0.12158263,-0.26017404,0.18694949,0.9696167,-0.06690674,0.095581055,76.0
711,0.12158263,-0.26017404,0.18694949,0.8708496,-0.0021240234,0.11044922,76.0
712,0.7171148,-0.37205526,-0.047461927,0.8708496,-0.0021240234,0.11044922,76.0
713,0.7171148,-0.37205526,-0.047461927,0.68074954,0.10620117,0.16036378,76.0
714,1.0886822,-0.42877215,-0.21842605,0.68074954,0.10620117,0.16036378,76.0
715,1.0886822,-0.42877215,-0.21842605,0.5065796,0.18903808,0.2442627,76.0
716,1.3763412,-0.4356569,-0.41329068,0.5065796,0.18903808,0.2442627,76.0
717,1.3763412,-0.4356569,-0.41329068,0.28461915,0.25806886,0.3058594,76.0
718,1.7642932,-0.43371838,-0.6614431,0.28461915,0.25806886,0.3058594,76.0
719,1.7642932,-0.43371838,-0.6614431,0.0053100586,0.31223145,0.39082032,76.0
720,2.1363735,-0.47944546,-0.8017131,0.0053100586,0.31223145,0.39082032,76.0
721,2.1363735,-0.47944546,-0.8017131,-0.04248047,0.3334717,0.49383545,76.0
722,2.2585618,-0.5994011,-0.71911705,-0.04248047,0.3334717,0.49383545,76.0
723,2.2585618,-0.5994011,-0.71911705,0.13912354,0.34727785,0.64782715,76.0
724,2.1672134,-0.71466494,-0.5795295,0.13912354,0.34727785,0.64782715,76.0
725,2.1672134,-0.71466494,-0.5795295,0.50870365,0.31966552,0.7678345,76.0
726,2.1767516,-0.7056675,-0.61467344,0.50870365,0.31966552,0.7678345,76.0
727,2.1767516,-0.7056675,-0.61467344,0.86341554,0.23895264,0.8421753,76.0
728,2.1951854,-0.5392654,-0.7320708,0.86341554,0.23895264,0.8421753,76.0
729,2.1951854,-0.5392654,-0.7320708,1.1629028,0.14124756,0.8729736,76.0
730,1.7512534,-0.29833126,-0.7083617,1.1629028,0.14124756,0.8729736,76.0
731,1.7512534,-0.29833126,-0.7083617,1.3115845,0.107263185,0.8782837,76.0
732,1.7512534,-0.29833126,-0.7083617,1.3115845,0.107263185,0.8782837,78.0
733,0.6743548,-0.053569794,-0.54011464,1.3115845,0.107263185,0.8782837,78.0
734,0.6743548,-0.053569794,-0.54011464,1.3806152,0.12956543,0.9218262,78.0
735,-0.69479346,0.2117219,-0.48568058,1.3806152,0.12956543,0.9218262,78.0
736,-0.69479346,0.2117219,-0.48568058,1.364685,0.18054199,1.0057251,78.0
737,-1.8859253,0.5293751,-0.6907784,1.364685,0.18054199,1.0057251,78.0
738,-1.8859253,0.5293751,-0.6907784,1.2765381,0.23895264,1.1161743,78.0
739,-2.6027222,0.7587296,-0.98024726,1.2765381,0.23895264,1.1161743,78.0
740,-2.6027222,0.7587296,-0.98024726,1.2372437,0.32178956,1.2244996,78.0
741,-2.7281737,0.79422736,-1.1232603,1.2372437,0.32178956,1.2244996,78.0
742,-2.7281737,0.79422736,-1.1232603,1.3391968,0.4056885,1.3307008,78.0
743,-2.7281737,0.79422736,-1.1232603,1.4273437,0.51082766,1.4358399,78.0
744,-2.4011183,0.7294249,-1.1140013,1.4273437,0.51082766,1.4358399,78.0
745,-1.9766074,0.8115306,-1.3735619,1.4273437,0.51082766,1.4358399,78.0
746,-1.9766074,0.8115306,-1.3735619,1.4878784,0.61065674,1.5091187,78.0
747,-1.9766074,0.8115306,-1.3735619,1.4815063,0.7041138,1.538855,78.0
748,-1.9766074,0.8115306,-1.3735619,1.3806152,0.7986328,1.5346069,78.0
749,-1.515368,0.8325985,-1.348105,1.3806152,0.7986328,1.5346069,78.0
750,-0.55052686,0.8764548,-1.4111257,1.3806152,0.7986328,1.5346069,78.0
751,-0.55052686,0.8764548,-1.4111257,1.2383057,0.86553955,1.4900025,78.0
752,-0.55052686,0.8764548,-1.4111257,0.9770508,0.9303223,1.3944215,78.0
753,0.26465666,0.7538982,-1.1888006,0.9770508,0.9303223,1.3944215,78.0
754,0.26465666,0.7538982,-1.1888006,0.66588134,0.9653687,1.2552979,78.0
755,1.1123478,0.62662935,-0.9631865,0.66588134,0.9653687,1.2552979,78.0
756,1.1123478,0.62662935,-0.9631865,0.2888672,0.9770508,1.0768799,78.0
757,1.9119487,0.49065894,-0.7743945,0.2888672,0.9770508,1.0768799,78.0
758,1.9119487,0.49065894,-0.7743945,-0.09133301,0.94731444,0.8846558,78.0
759,2.5849545,0.3334695,-0.63173485,-0.09133301,0.94731444,0.8846558,78.0
760,2.5849545,0.3334695,-0.63173485,-0.43011475,0.85491943,0.6605713,78.0
761,2.9887033,0.20655835,-0.48610067,-0.43011475,0.85491943,0.6605713,78.0
762,2.9887033,0.20655835,-0.48610067,-0.6223389,0.6690674,0.4704712,78.0
763,2.8985677,0.1479249,-0.26358747,-0.6223389,0.6690674,0.4704712,78.0
764,2.8985677,0.1479249,-0.26358747,-0.7083618,0.4248047,0.29630128,78.0
765,2.3192449,0.1542896,0.060541153,-0.7083618,0.4248047,0.29630128,78.0
766,2.3192449,0.1542896,0.060541153,-0.65632325,0.12956543,0.15080567,78.0
767,1.4719975,0.23916656,0.37555695,-0.65632325,0.12956543,0.15080567,78.0
768,1.4719975,0.23916656,0.37555695,-0.631897,-0.18479005,0.0053100586,78.0
769,0.29502964,0.38172632,0.59339,-0.631897,-0.18479005,0.0053100586,78.0
770,0.29502964,0.38172632,0.59339,-0.56605226,-0.5256958,-0.09133301,78.0
771,-1.0423455,0.50287867,0.8464527,-0.56605226,-0.5256958,-0.09133301,78.0
772,-1.0423455,0.50287867,0.8464527,-0.29099122,-0.83686525,-0.16779785,78.0
773,-1.7855487,0.5047687,1.21559,-0.29099122,-0.83686525,-0.16779785,78.0
774,-1.7855487,0.5047687,1.21559,0.19434814,-1.0163453,-0.20072022,78.0
775,-1.5711513,0.45546293,1.4658802,0.19434814,-1.0163453,-0.20072022,78.0
776,-1.5711513,0.45546293,1.4658802,0.58198243,-1.081128,-0.20496826,78.0
777,-0.80847144,0.48937035,1.2813346,0.58198243,-1.081128,-0.20496826,78.0
778,-0.80847144,0.48937035,1.2813346,0.5777344,-1.0641358,-0.24001466,78.0
779,-0.21749258,0.5223557,0.67947435,0.5777344,-1.0641358,-0.24001466,78.0
780,-0.21749258,0.5223557,0.67947435,0.3993164,-1.0577637,-0.33028564,78.0
781,-0.151057,0.34361696,0.024634123,0.3993164,-1.0577637,-0.33028564,78.0
782,-0.151057,0.34361696,0.024634123,0.26656494,-1.1087402,-0.5129517,78.0
783,-0.46031094,-0.008236408,-0.2500682,0.26656494,-1.1087402,-0.5129517,78.0
784,-0.46031094,-0.008236408,-0.2500682,0.1529297,-1.1565307,-0.70092773,78.0
785,-0.9213736,-0.34579813,-0.019646883,0.1529297,-1.1565307,-0.70092773,78.0
786,-0.9213736,-0.34579813,-0.019646883,0.18691407,-1.1586548,-0.814563,78.0
787,-1.4261614,-0.4923978,0.48978782,0.18691407,-1.1586548,-0.814563,78.0
788,-1.4261614,-0.4923978,0.48978782,0.23789063,-1.1055542,-0.8612915,78.0
789,-1.8339956,-0.36862528,0.89274585,0.23789063,-1.1055542,-0.8612915,78.0
790,-1.8339956,-0.36862528,0.89274585,0.12000733,-1.0163453,-0.85598147,78.0
791,-1.9910125,-0.14109159,1.0144163,0.12000733,-1.0163453,-0.85598147,78.0
792,-1.9910125,-0.14109159,1.0144163,-0.081774905,-0.9366943,-0.811377,78.0
793,-1.8826294,0.024968505,0.98417723,-0.081774905,-0.9366943,-0.811377,78.0
794,-1.8826294,0.024968505,0.98417723,-0.31435546,-0.85598147,-0.75615233,78.0
795,-1.6690918,0.03884685,0.9811528,-0.31435546,-0.85598147,-0.75615233,78.0
796,-1.6690918,0.03884685,0.9811528,-0.48109132,-0.7519043,-0.7072998,78.0
797,-1.4495556,-0.17483068,0.9900858,-0.48109132,-0.7519043,-0.7072998,78.0
798,-1.4495556,-0.17483068,0.9900858,-0.47684327,-0.6595093,-0.68074954,78.0
799,-1.177064,-0.5725672,0.9596101,-0.47684327,-0.6595093,-0.68074954,78.0
800,-1.177064,-0.5725672,0.9596101,-0.32603762,-0.58198243,-0.63720703,78.0
801,-0.9316536,-0.9097872,0.95711684,-0.32603762,-0.58198243,-0.63720703,78.0
802,-0.9316536,-0.9097872,0.95711684,-0.038232423,-0.51826173,-0.5564942,78.0
803,-0.7568219,-0.9247414,1.0168898,-0.038232423,-0.51826173,-0.5564942,78.0
804,-0.7568219,-0.9247414,1.0168898,0.21452637,-0.4322388,-0.4630371,78.0
805,-0.7568219,-0.9247414,1.0168898,0.21558838,-0.30161133,-0.38338622,78.0
806,-0.42607522,-0.65283024,1.0314195,0.21558838,-0.30161133,-0.38338622,78.0
807,1.6120939,-0.22996682,0.6121352,0.21558838,-0.30161133,-0.38338622,78.0
808,1.6120939,-0.22996682,0.6121352,0.0361084,-0.14337158,-0.34833986,78.0
809,1.6120939,-0.22996682,0.6121352,-0.3154175,0.043542482,-0.3430298,78.0
810,1.6120939,-0.22996682,0.6121352,-0.7497803,0.24213867,-0.30161133,78.0
811,1.5376122,-0.33184946,0.12722033,-0.7497803,0.24213867,-0.30161133,78.0
812,1.5376122,-0.33184946,0.12722033,-1.1384766,0.42055663,-0.20709229,78.0
813,1.1229608,-0.48138532,-0.26192003,-1.1384766,0.42055663,-0.20709229,78.0
814,1.1229608,-0.48138532,-0.26192003,-1.535669,0.5501221,-0.038232423,78.0
815,0.83954304,-0.6118051,-0.5278466,-1.535669,0.5501221,-0.038232423,78.0
816,0.83954304,-0.6118051,-0.5278466,-1.7671875,0.61278075,0.11044922,78.0
817,1.0104162,-0.7216584,-0.64322454,-1.7671875,0.61278075,0.11044922,78.0
818,1.0104162,-0.7216584,-0.64322454,-1.8574585,0.59260255,0.1985962,78.0
819,1.1383744,-0.92770517,-0.51352984,-1.8574585,0.59260255,0.1985962,78.0
820,1.1383744,-0.92770517,-0.51352984,-1.5494751,0.56180423,0.30054933,78.0
821,1.1682924,-1.349879,-0.2329064,-1.5494751,0.56180423,0.30054933,78.0
822,1.1682924,-1.349879,-0.2329064,-0.7954468,0.45772704,0.30267334,78.0
823,1.8368556,-1.7363119,-0.09902045,-0.7954468,0.45772704,0.30267334,78.0
824,1.8368556,-1.7363119,-0.09902045,-0.16673584,0.32603762,0.19541016,78.0
825,2.9072776,-1.7467523,-0.191814,-0.16673584,0.32603762,0.19541016,78.0
826,2.9072776,-1.7467523,-0.191814,0.026550293,0.20072022,0.11044922,78.0
827,3.02404,-1.3424826,-0.28673977,0.026550293,0.20072022,0.11044922,78.0
828,3.02404,-1.3424826,-0.28673977,0.040356446,0.09664307,0.11151123,78.0
829,1.8434141,-0.7478142,-0.1318332,0.040356446,0.09664307,0.11151123,78.0
830,1.8434141,-0.7478142,-0.1318332,0.16673584,0.014868164,0.2442627,78.0
831,0.33508277,-0.0743134,0.2665183,0.16673584,0.014868164,0.2442627,78.0
832,0.33508277,-0.0743134,0.2665183,0.3717041,-0.021240234,0.5278198,78.0
833,-0.7552004,0.6069312,0.6084783,0.3717041,-0.021240234,0.5278198,78.0
834,-0.7552004,0.6069312,0.6084783,0.3717041,-0.021240234,0.5278198,78.0
835,-0.7552004,0.6069312,0.6084783,0.7126099,-0.0180542,0.8612915,78.0
836,-1.4225075,1.0980816,0.6139678,0.7126099,-0.0180542,0.8612915,78.0
837,-1.4225075,1.0980816,0.6139678,1.1108643,0.040356446,1.173523,78.0
838,-1.8655572,1.2546983,0.2520995,1.1108643,0.040356446,1.173523,78.0
839,-1.8655572,1.2546983,0.2520995,1.4974365,0.16461182,1.447522,78.0
840,-1.9644917,1.182201,-0.30635262,1.4974365,0.16461182,1.447522,78.0
841,-1.9644917,1.182201,-0.30635262,1.8479004,0.362146,1.6471802,78.0
842,-1.6419059,1.156564,-0.89699864,1.8479004,0.362146,1.6471802,78.0
843,-1.6419059,1.156564,-0.89699864,1.988086,0.59260255,1.7597535,78.0
844,-1.1146111,1.3292308,-1.3610194,1.988086,0.59260255,1.7597535,78.0
845,-1.1146111,1.3292308,-1.3610194,1.910559,0.8602295,1.803296,78.0
846,-0.6456928,1.616058,-1.6135591,1.910559,0.8602295,1.803296,78.0
847,-0.6456928,1.616058,-1.6135591,1.6418701,1.1267945,1.7778076,78.0
848,-0.30576324,1.8644528,-1.6766628,1.6418701,1.1267945,1.7778076,78.0
849,-0.30576324,1.8644528,-1.6766628,1.1629028,1.3614991,1.7013428,78.0
850,-0.13950801,1.9062474,-1.655112,1.1629028,1.3614991,1.7013428,78.0
851,-0.13950801,1.9062474,-1.655112,0.6425171,1.4613281,1.5930176,78.0
852,-0.10474604,1.6151224,-1.5432303,0.6425171,1.4613281,1.5930176,78.0
853,-0.10474604,1.6151224,-1.5432303,0.32072756,1.4432739,1.4305298,78.0
854,-0.06575489,1.0952108,-1.2500138,0.32072756,1.4432739,1.4305298,78.0
855,-0.06575489,1.0952108,-1.2500138,0.1709839,1.4114136,1.26698,78.0
856,0.04377055,0.561923,-0.8398793,0.1709839,1.4114136,1.26698,78.0
857,0.04377055,0.561923,-0.8398793,0.08283692,1.3721192,1.0938721,78.0
858,0.1660223,0.18458486,-0.52858067,0.08283692,1.3721192,1.0938721,78.0
859,0.1660223,0.18458486,-0.52858067,-0.093457036,1.3062744,0.82836914,78.0
860,0.37853312,0.02059269,-0.40968084,-0.093457036,1.3062744,0.82836914,78.0
861,0.37853312,0.02059269,-0.40968084,-0.2516968,1.1575928,0.4630371,78.0
862,0.76123714,0.027216434,-0.3861308,-0.2516968,1.1575928,0.4630371,78.0
863,0.76123714,0.027216434,-0.3861308,-0.43117675,0.98129886,0.11044922,78.0
864,0.92502975,0.17410469,-0.23749352,-0.43117675,0.98129886,0.11044922,78.0
865,0.92502975,0.17410469,-0.23749352,-0.48109132,0.77739257,-0.13912354,78.0
866,0.7345917,0.3334732,0.05646515,-0.48109132,0.77739257,-0.13912354,78.0
867,0.7345917,0.3334732,0.05646515,-0.4364868,0.5671143,-0.37382814,78.0
868,0.66419935,0.34213257,0.2781434,-0.4364868,0.5671143,-0.37382814,78.0
869,0.66419935,0.34213257,0.2781434,-0.49277344,0.2803711,-0.66481936,78.0
870,0.54427457,0.14487302,0.48287868,-0.49277344,0.2803711,-0.66481936,78.0
871,0.54427457,0.14487302,0.48287868,-0.45772704,-0.059472658,-0.81243896,78.0
872,0.28295386,-0.16229987,0.87811184,-0.45772704,-0.059472658,-0.81243896,78.0
873,0.28295386,-0.16229987,0.87811184,-0.12319336,-0.42161867,-1.0343994,78.0
874,0.31805003,-0.46172464,1.3617303,-0.12319336,-0.42161867,-1.0343994,78.0
875,0.31805003,-0.46172464,1.3617303,0.14337158,-0.6467652,-1.174585,78.0
876,0.65761375,-0.69038796,1.5032392,0.14337158,-0.6467652,-1.174585,78.0
877,0.65761375,-0.69038796,1.5032392,0.33028564,-0.8527954,-1.260608,78.0
878,1.1262374,-0.6838777,1.186539,0.33028564,-0.8527954,-1.260608,78.0
879,1.1262374,-0.6838777,1.186539,0.1720459,-0.9685547,-1.3285767,78.0
880,1.2794812,-0.4644605,0.734534,0.1720459,-0.9685547,-1.3285767,78.0
881,1.2794812,-0.4644605,0.734534,-0.14018555,-1.0184692,-1.3370727,78.0
882,0.81655383,-0.25659037,0.4448781,-0.14018555,-1.0184692,-1.3370727,78.0
883,0.81655383,-0.25659037,0.4448781,-0.3971924,-0.996167,-1.2829102,78.0
884,-0.050126076,-0.22460818,0.3457706,-0.3971924,-0.996167,-1.2829102,78.0
885,-0.050126076,-0.22460818,0.3457706,-0.3993164,-0.9632446,-1.1841431,78.0
886,-0.9777961,-0.30938625,0.29170442,-0.3993164,-0.9632446,-1.1841431,78.0
887,-0.9777961,-0.30938625,0.29170442,-0.271875,-0.8931519,-0.99722904,78.0
888,-1.7578716,-0.37228924,0.17026532,-0.271875,-0.8931519,-0.99722904,78.0
889,-1.7578716,-0.37228924,0.17026532,-0.008496094,-0.8336792,-0.80394286,78.0
890,-2.2890732,-0.31440854,0.021478415,-0.008496094,-0.8336792,-0.80394286,78.0
891,-2.2890732,-0.31440854,0.021478415,0.23789063,-0.7805786,-0.64570314,78.0
892,-2.4830165,-0.13410735,-0.050956845,0.23789063,-0.7805786,-0.64570314,78.0
893,-2.4830165,-0.13410735,-0.050956845,0.32603762,-0.7189819,-0.55543214,78.0
894,-2.3297238,-0.011961162,-0.034222484,0.32603762,-0.7189819,-0.55543214,78.0
895,-2.3297238,-0.011961162,-0.034222484,0.33240968,-0.66588134,-0.5076416,78.0
896,-1.993674,-0.029832602,0.08318114,0.33240968,-0.66588134,-0.5076416,78.0
897,-1.993674,-0.029832602,0.08318114,0.33134767,-0.6265869,-0.48746338,78.0
898,-1.608782,-0.12913954,0.25034618,0.33134767,-0.6265869,-0.48746338,78.0
899,-1.608782,-0.12913954,0.25034618,0.31435546,-0.5851685,-0.5033936,78.0
900,-1.218764,-0.23741806,0.37304306,0.31435546,-0.5851685,-0.5033936,78.0
901,-1.218764,-0.23741806,0.37304306,0.26656494,-0.5320679,-0.5161377,78.0
902,-0.84715474,-0.3194877,0.40827334,0.26656494,-0.5320679,-0.5161377,78.0
903,-0.84715474,-0.3194877,0.40827334,0.2081543,-0.47365722,-0.5129517,78.0
904,-0.5165422,-0.3814813,0.3754956,0.2081543,-0.47365722,-0.5129517,78.0
905,-0.5165422,-0.3814813,0.3754956,0.22196046,-0.4322388,-0.47684327,78.0
906,-0.2861097,-0.4170869,0.34253514,0.22196046,-0.4322388,-0.47684327,78.0
907,-0.2861097,-0.4170869,0.34253514,0.2782471,-0.42055663,-0.4163086,78.0
908,-0.04424417,-0.43977305,0.3860398,0.2782471,-0.42055663,-0.4163086,78.0
909,-0.04424417,-0.43977305,0.3860398,0.3536499,-0.41099855,-0.36002198,78.0
910,0.31133318,-0.4314327,0.5172791,0.3536499,-0.41099855,-0.36002198,78.0
911,0.31133318,-0.4314327,0.5172791,0.33878174,-0.3717041,-0.2899292,78.0
912,0.74533117,-0.37178192,0.6164356,0.33878174,-0.3717041,-0.2899292,78.0
913,0.74533117,-0.37178192,0.6164356,0.17947999,-0.28461915,-0.26975098,78.0
914,1.283533,-0.4168347,0.5560025,0.17947999,-0.28461915,-0.26975098,78.0
915,1.283533,-0.4168347,0.5560025,0.0063720704,-0.21134034,-0.26975098,78.0
916,1.283533,-0.4168347,0.5560025,-0.13912354,-0.1901001,-0.24213867,78.0
917,1.70616,-0.58380955,0.45367652,-0.13912354,-0.1901001,-0.24213867,78.0
918,2.378783,-1.0314153,0.6085711,-0.13912354,-0.1901001,-0.24213867,78.0
919,2.378783,-1.0314153,0.6085711,-0.26019287,-0.16779785,-0.11469727,78.0
920,2.378783,-1.0314153,0.6085711,-0.13168946,-0.22089843,-0.047790527,78.0
921,2.378783,-1.0314153,0.6085711,-0.14868164,-0.2793091,0.03186035,78.0
922,1.846166,-0.9878764,0.68879783,-0.14868164,-0.2793091,0.03186035,78.0
923,1.846166,-0.9878764,0.68879783,0.20284425,-0.2984253,0.16142578,78.0
924,0.9545939,-1.0346981,0.72204655,0.20284425,-0.2984253,0.16142578,78.0
925,0.9545939,-1.0346981,0.72204655,0.77314454,-0.28674316,0.19541016,78.0
926,0.8528842,-1.0252683,0.43300834,0.77314454,-0.28674316,0.19541016,78.0
927,0.8528842,-1.0252683,0.43300834,1.0450195,-0.24851075,0.1996582,78.0
928,1.3721023,-0.8076415,-0.018046439,1.0450195,-0.24851075,0.1996582,78.0
929,1.3721023,-0.8076415,-0.018046439,1.0790039,-0.13806152,0.2177124,78.0
930,1.7004895,-0.4018749,-0.33506703,1.0790039,-0.13806152,0.2177124,78.0
931,1.7004895,-0.4018749,-0.33506703,0.88996583,0.032922365,0.25594482,78.0
932,1.5521398,0.01906395,-0.4851923,0.88996583,0.032922365,0.25594482,78.0
933,1.5521398,0.01906395,-0.4851923,0.53100586,0.24320069,0.38551027,78.0
934,0.9925785,0.35546112,-0.55663526,0.53100586,0.24320069,0.38551027,78.0
935,0.9925785,0.35546112,-0.55663526,0.18585205,0.4598511,0.63614506,78.0
936,0.27128458,0.6539612,-0.67271304,0.18585205,0.4598511,0.63614506,78.0
937,0.27128458,0.6539612,-0.67271304,-0.05522461,0.6616333,0.9143921,78.0
938,-0.33658576,0.8990235,-0.936083,-0.05522461,0.6616333,0.9143921,78.0
939,-0.33658576,0.8990235,-0.936083,-0.22833252,0.83049315,1.1979493,78.0
940,-0.88619995,1.0098194,-1.24247,-0.22833252,0.83049315,1.1979493,78.0
941,-0.88619995,1.0098194,-1.24247,-0.26444092,0.9430664,1.449646,78.0
942,-0.88619995,1.0098194,-1.24247,-0.26444092,0.9430664,1.449646,79.0
943,-1.329248,1.0125065,-1.3599916,-0.26444092,0.9430664,1.449646,79.0
944,-1.329248,1.0125065,-1.3599916,-0.18054199,1.0333375,1.627002,79.0
945,-1.4938183,0.9952468,-1.3129811,-0.18054199,1.0333375,1.627002,79.0
946,-1.4938183,0.9952468,-1.3129811,0.007434082,1.1034302,1.7363892,79.0
947,-1.340416,0.9861145,-1.2635319,0.007434082,1.1034302,1.7363892,79.0
948,-1.340416,0.9861145,-1.2635319,0.2081543,1.1416626,1.7618774,79.0
949,-1.0043762,0.95408934,-1.2260723,0.2081543,1.1416626,1.7618774,79.0
950,-1.0043762,0.95408934,-1.2260723,0.32816163,1.1639649,1.7087768,79.0
951,-0.6875464,0.9089502,-1.1226182,0.32816163,1.1639649,1.7087768,79.0
952,-0.6875464,0.9089502,-1.1226182,0.41206056,1.176709,1.6057618,79.0
953,-0.4555791,0.93756056,-0.94196653,0.41206056,1.176709,1.6057618,79.0
954,-0.4555791,0.93756056,-0.94196653,0.3812622,1.1905152,1.44646,79.0
955,-0.30335492,1.0167965,-0.8141446,0.3812622,1.1905152,1.44646,79.0
956,-0.30335492,1.0167965,-0.8141446,0.31435546,1.1501588,1.2510499,79.0
957,-0.27331138,1.0647433,-0.76493883,0.31435546,1.1501588,1.2510499,79.0
958,-0.27331138,1.0647433,-0.76493883,0.1985962,1.0875,0.998291,79.0
959,-0.27331138,1.0647433,-0.76493883,0.008496094,1.0078491,0.75296634,79.0
960,-0.3026579,1.0009522,-0.7276981,0.008496094,1.0078491,0.75296634,79.0
961,-0.6559691,0.64506114,-0.78994656,0.008496094,1.0078491,0.75296634,79.0
962,-0.6559691,0.64506114,-0.78994656,-0.21452637,0.86766356,0.50445557,79.0
963,-0.6559691,0.64506114,-0.78994656,-0.41949463,0.6149048,0.271875,79.0
964,-0.87741196,0.1408658,-0.6075921,-0.41949463,0.6149048,0.271875,79.0
965,-0.87741196,0.1408658,-0.6075921,-0.29630128,0.19434814,-0.045666505,79.0
966,-0.83027434,-0.4595486,-0.13275337,-0.29630128,0.19434814,-0.045666505,79.0
967,-0.83027434,-0.4595486,-0.13275337,0.09451904,-0.29099122,-0.4343628,79.0
968,-0.39169753,-0.9492917,0.7069931,0.09451904,-0.29099122,-0.4343628,79.0
969,-0.39169753,-0.9492917,0.7069931,0.60109866,-0.6860596,-0.7986328,79.0
970,0.39068252,-1.2185398,1.5194886,0.60109866,-0.6860596,-0.7986328,79.0
971,0.39068252,-1.2185398,1.5194886,0.9834229,-0.91120607,-1.1331666,79.0
972,1.4991062,-1.2859159,1.7438014,0.9834229,-0.91120607,-1.1331666,79.0
973,1.4991062,-1.2859159,1.7438014,1.0216553,-1.0577637,-1.4560181,79.0
974,2.3878348,-1.1258885,1.3278291,1.0216553,-1.0577637,-1.4560181,79.0
975,2.3878348,-1.1258885,1.3278291,0.75721437,-1.174585,-1.5484132,79.0
976,2.2471454,-0.78036165,0.8347975,0.75721437,-1.174585,-1.5484132,79.0
977,2.2471454,-0.78036165,0.8347975,0.6680054,-1.2298096,-1.4751343,79.0
978,1.1458731,-0.3485569,0.68684435,0.6680054,-1.2298096,-1.4751343,79.0
979,1.1458731,-0.3485569,0.68684435,0.53100586,-1.1236085,-1.2903442,79.0
980,0.06016767,0.020092458,0.61199987,0.53100586,-1.1236085,-1.2903442,79.0
981,0.06016767,0.020092458,0.61199987,0.38338622,-1.0120972,-1.0460815,79.0
982,-0.084263325,0.14325902,0.27236366,0.38338622,-1.0120972,-1.0460815,79.0
983,-0.084263325,0.14325902,0.27236366,0.15080567,-0.9600586,-0.8591675,79.0
984,0.37908602,-0.01342012,-0.118644714,0.15080567,-0.9600586,-0.8591675,79.0
985,0.37908602,-0.01342012,-0.118644714,-0.023364259,-0.9505005,-0.6701294,79.0
986,0.6381078,-0.30720827,-0.2179749,-0.023364259,-0.9505005,-0.6701294,79.0
987,0.6381078,-0.30720827,-0.2179749,-0.10620117,-0.9611206,-0.54693604,79.0
988,0.4730351,-0.5601953,0.04733646,-0.10620117,-0.9611206,-0.54693604,79.0
989,0.4730351,-0.5601953,0.04733646,-0.0541626,-0.98236084,-0.47684327,79.0
990,-0.06499243,-0.63404495,0.475479,-0.0541626,-0.98236084,-0.47684327,79.0
991,-0.06499243,-0.63404495,0.475479,0.019116212,-0.9483765,-0.35683593,79.0
992,-0.935905,-0.46990687,0.72309554,0.019116212,-0.9483765,-0.35683593,79.0
993,-0.935905,-0.46990687,0.72309554,0.057348635,-0.8889038,-0.21027832,79.0
994,-1.9827572,-0.07952657,0.60156,0.057348635,-0.8889038,-0.21027832,79.0
995,-1.9827572,-0.07952657,0.60156,0.0637207,-0.8421753,-0.11151123,79.0
996,-2.828198,0.3888812,0.28477585,0.0637207,-0.8421753,-0.11151123,79.0
997,-2.828198,0.3888812,0.28477585,0.09451904,-0.7954468,-0.052038576,79.0
998,-3.0839207,0.7050991,0.10025716,0.09451904,-0.7954468,-0.052038576,79.0
999,-3.0839207,0.7050991,0.10025716,0.1985962,-0.7423462,-0.0053100586,79.0
1000,-2.7105937,0.77720183,0.122588515,0.1985962,-0.7423462,-0.0053100586,79.0
1001,-2.7105937,0.77720183,0.122588515,0.26868898,-0.67650145,-0.009558106,79.0
1002,-1.997186,0.6617273,0.17929637,0.26868898,-0.67650145,-0.009558106,79.0
1003,-1.997186,0.6617273,0.17929637,0.23258057,-0.6180908,-0.06159668,79.0
1004,-1.2991892,0.41153517,0.19177693,0.23258057,-0.6180908,-0.06159668,79.0
1005,-1.2991892,0.41153517,0.19177693,0.16992188,-0.5479981,-0.10301514,79.0
1006,-0.7628988,0.16219932,0.20199335,0.16992188,-0.5479981,-0.10301514,79.0
1007,-0.7628988,0.16219932,0.20199335,0.18372802,-0.4959595,-0.12531738,79.0
1008,-0.20051682,0.1117419,0.24830121,0.18372802,-0.4959595,-0.12531738,79.0
1009,-0.20051682,0.1117419,0.24830121,0.107263185,-0.45560303,-0.15717773,79.0
1010,0.4583366,0.19858539,0.38415122,0.107263185,-0.45560303,-0.15717773,79.0
1011,0.4583366,0.19858539,0.38415122,0.0541626,-0.44710693,-0.1529297,79.0
1012,0.85436463,0.18504018,0.6035612,0.0541626,-0.44710693,-0.1529297,79.0
1013,0.85436463,0.18504018,0.6035612,0.12531738,-0.48109132,-0.11257324,79.0
1014,0.94588184,0.04443109,0.824243,0.12531738,-0.48109132,-0.11257324,79.0
1015,0.94588184,0.04443109,0.824243,0.22408448,-0.47578126,-0.09770508,79.0
1016,1.2444618,-0.11436969,0.9437206,0.22408448,-0.47578126,-0.09770508,79.0
1017,1.2444618,-0.11436969,0.9437206,0.31116945,-0.42692873,-0.118945315,79.0
1018,1.2444618,-0.11436969,0.9437206,0.2803711,-0.3695801,-0.15930176,79.0
1019,1.889112,-0.20526528,0.8900351,0.2803711,-0.3695801,-0.15930176,79.0
1020,3.07086,-0.31493244,0.55449635,0.2803711,-0.3695801,-0.15930176,79.0
1021,3.07086,-0.31493244,0.55449635,0.04885254,-0.26868898,-0.17523193,79.0
1022,3.07086,-0.31493244,0.55449635,-0.18585205,-0.20709229,-0.18372802,79.0
1023,3.07086,-0.31493244,0.55449635,-0.40250245,-0.23895264,-0.20921631,79.0
1024,2.5788074,-0.52207536,0.42273524,-0.40250245,-0.23895264,-0.20921631,79.0
1025,2.5788074,-0.52207536,0.42273524,-0.45772704,-0.32285157,-0.18054199,79.0
1026,2.5788074,-0.52207536,0.42273524,-0.45772704,-0.32285157,-0.18054199,80.0
1027,1.3858242,-0.7316862,0.6301194,-0.45772704,-0.32285157,-0.18054199,80.0
1028,1.3858242,-0.7316862,0.6301194,-0.19541016,-0.33771974,-0.18585205,80.0
1029,-0.062202454,-0.96940655,0.8871033,-0.19541016,-0.33771974,-0.18585205,80.0
1030,-0.062202454,-0.96940655,0.8871033,0.22833252,-0.26975098,-0.17947999,80.0
1031,-0.49454963,-1.2279544,0.7111719,0.22833252,-0.26975098,-0.17947999,80.0
1032,-0.49454963,-1.2279544,0.7111719,0.630835,-0.24107666,-0.24532472,80.0
1033,0.4403466,-1.3037137,0.1753096,0.630835,-0.24107666,-0.24532472,80.0
1034,0.4403466,-1.3037137,0.1753096,0.7827026,-0.1901001,-0.33134767,80.0
1035,1.584748,-1.2263938,-0.29614145,0.7827026,-0.1901001,-0.33134767,80.0
1036,1.584748,-1.2263938,-0.29614145,0.7720825,-0.08283692,-0.35789797,80.0
1037,1.8547978,-1.1447625,-0.5448111,0.7720825,-0.08283692,-0.35789797,80.0
1038,1.8547978,-1.1447625,-0.5448111,0.74022216,0.052038576,-0.28780517,80.0
1039,1.1586795,-1.0130756,-0.62392265,0.74022216,0.052038576,-0.28780517,80.0
1040,1.1586795,-1.0130756,-0.62392265,0.7582764,0.18479005,-0.08283692,80.0
1041,0.027041197,-0.68198156,-0.59416986,0.7582764,0.18479005,-0.08283692,80.0
1042,0.027041197,-0.68198156,-0.59416986,0.811377,0.3154175,0.1985962,80.0
1043,-1.1254983,-0.12871504,-0.568683,0.811377,0.3154175,0.1985962,80.0
1044,-1.1254983,-0.12871504,-0.568683,0.8326172,0.46834716,0.49064943,80.0
1045,-2.1288166,0.41026044,-0.6628688,0.8326172,0.46834716,0.49064943,80.0
1046,-2.1288166,0.41026044,-0.6628688,0.8294312,0.6287109,0.7455322,80.0
1047,-2.7684464,0.71478057,-0.8361178,0.8294312,0.6287109,0.7455322,80.0
1048,-2.7684464,0.71478057,-0.8361178,0.72641605,0.81987303,0.9547486,80.0
1049,-2.823766,0.78134596,-1.0568948,0.72641605,0.81987303,0.9547486,80.0
1050,-2.823766,0.78134596,-1.0568948,0.5787964,1.0057251,1.1055542,80.0
1051,-2.2857707,0.7225255,-1.332967,0.5787964,1.0057251,1.1055542,80.0
1052,-2.2857707,0.7225255,-1.332967,0.41099855,1.1586548,1.1883911,80.0
1053,-1.4465976,0.6431083,-1.590214,0.41099855,1.1586548,1.1883911,80.0
1054,-1.4465976,0.6431083,-1.590214,0.27293703,1.2786621,1.2234375,80.0
1055,-0.7555568,0.58803403,-1.7377353,0.27293703,1.2786621,1.2234375,80.0
1056,-0.7555568,0.58803403,-1.7377353,0.12531738,1.3625611,1.2276856,80.0
1057,-0.38465786,0.5821826,-1.7679348,0.12531738,1.3625611,1.2276856,80.0
1058,-0.38465786,0.5821826,-1.7679348,-0.032922365,1.4103516,1.2096313,80.0
1059,-0.14673996,0.6115713,-1.709172,-0.032922365,1.4103516,1.2096313,80.0
1060,-0.14673996,0.6115713,-1.709172,-0.2177124,1.4315919,1.1671509,80.0
1061,0.2095856,0.643322,-1.5570836,-0.2177124,1.4315919,1.1671509,80.0
1062,0.2095856,0.643322,-1.5570836,-0.42161867,1.448584,1.1076783,80.0
1063,0.7650196,0.66409606,-1.3633182,-0.42161867,1.448584,1.1076783,80.0
1064,0.7650196,0.66409606,-1.3633182,-0.6966797,1.4528321,1.0046631,80.0
1065,1.525773,0.6810694,-1.1753349,-0.6966797,1.4528321,1.0046631,80.0
1066,1.525773,0.6810694,-1.1753349,-1.0726318,1.447522,0.84748536,80.0
1067,2.4157357,0.6983711,-1.0176361,-1.0726318,1.447522,0.84748536,80.0
1068,2.4157357,0.6983711,-1.0176361,-1.5792115,1.3965454,0.61278075,80.0
1069,3.2019978,0.6762018,-0.84916735,-1.5792115,1.3965454,0.61278075,80.0
1070,3.2019978,0.6762018,-0.84916735,-2.0677369,1.2818482,0.32285157,80.0
1071,3.5208757,0.6723091,-0.62662363,-2.0677369,1.2818482,0.32285157,80.0
1072,3.5208757,0.6723091,-0.62662363,-2.4978516,1.0779419,-0.0063720704,80.0
1073,3.1132216,0.69838196,-0.34507322,-2.4978516,1.0779419,-0.0063720704,80.0
1074,3.1132216,0.69838196,-0.34507322,-2.716626,0.79969484,-0.28355715,80.0
1075,2.1589975,0.84137154,-0.072310925,-2.716626,0.79969484,-0.28355715,80.0
1076,2.1589975,0.84137154,-0.072310925,-2.7782228,0.42692873,-0.66481936,80.0
1077,0.86554027,1.105751,0.15116024,-2.7782228,0.42692873,-0.66481936,80.0
1078,0.86554027,1.105751,0.15116024,-2.7527344,0.004248047,-0.98448485,80.0
1079,-0.5952022,1.0588806,0.49729538,-2.7527344,0.004248047,-0.98448485,80.0
1080,-0.5952022,1.0588806,0.49729538,-2.061365,-0.48746338,-1.173523,80.0
1081,-1.6693747,0.6468481,1.1810517,-2.061365,-0.48746338,-1.173523,80.0
1082,-1.6693747,0.6468481,1.1810517,-0.98448485,-0.9154541,-1.3062744,80.0
1083,-1.6673236,0.2446146,1.9563282,-0.98448485,-0.9154541,-1.3062744,80.0
1084,-1.6673236,0.2446146,1.9563282,0.31860352,-1.1852051,-1.3668091,80.0
1085,-0.5050869,0.097034454,2.2468987,0.31860352,-1.1852051,-1.3668091,80.0
1086,-0.5050869,0.097034454,2.2468987,1.2000732,-1.3285767,-1.354065,80.0
1087,0.97138214,0.16400445,1.802011,1.2000732,-1.3285767,-1.354065,80.0
1088,0.97138214,0.16400445,1.802011,1.4358399,-1.3625611,-1.3434448,80.0
1089,1.7617736,0.28716063,0.9048412,1.4358399,-1.3625611,-1.3434448,80.0
1090,1.7617736,0.28716063,0.9048412,1.0428956,-1.3391968,-1.3976074,80.0
1091,1.3365064,0.33652782,0.09660244,1.0428956,-1.3391968,-1.3976074,80.0
1092,1.3365064,0.33652782,0.09660244,0.4322388,-1.2754761,-1.4836304,80.0
1093,-0.100533724,0.1263634,-0.18568182,0.4322388,-1.2754761,-1.4836304,80.0
1094,-0.100533724,0.1263634,-0.18568182,0.07434082,-1.2255615,-1.5579712,80.0
1095,-1.7702465,-0.19547915,0.046266556,0.07434082,-1.2255615,-1.5579712,80.0
1096,-1.7702465,-0.19547915,0.046266556,-0.098767094,-1.1278565,-1.535669,80.0
1097,-3.0205674,-0.43648577,0.4389298,-0.098767094,-1.1278565,-1.535669,80.0
1098,-3.0205674,-0.43648577,0.4389298,-0.11044922,-1.0078491,-1.445398,80.0
1099,-3.571703,-0.51511884,0.69363654,-0.11044922,-1.0078491,-1.445398,80.0
1100,-3.571703,-0.51511884,0.69363654,-0.20072022,-0.8793457,-1.3413209,80.0
1101,-3.4584,-0.43667996,0.7253194,-0.20072022,-0.8793457,-1.3413209,80.0
1102,-3.4584,-0.43667996,0.7253194,-0.44498292,-0.7497803,-1.264856,80.0
1103,-2.9057093,-0.41518867,0.65347326,-0.44498292,-0.7497803,-1.264856,80.0
1104,-2.9057093,-0.41518867,0.65347326,-0.6775635,-0.64782715,-1.2149414,80.0
1105,-2.1853464,-0.5917213,0.6054568,-0.6775635,-0.64782715,-1.2149414,80.0
1106,-2.1853464,-0.5917213,0.6054568,-0.94625247,-0.5713623,-1.1894531,80.0
1107,-1.4108992,-0.9493536,0.63910186,-0.94625247,-0.5713623,-1.1894531,80.0
1108,-1.4108992,-0.9493536,0.63910186,-1.075818,-0.5331299,-1.2106934,80.0
1109,-0.68821645,-1.3398906,0.747512,-1.075818,-0.5331299,-1.2106934,80.0
1110,-0.68821645,-1.3398906,0.747512,-1.0205933,-0.540564,-1.2425537,80.0
1111,-0.13426459,-1.6295907,0.924511,-1.0205933,-0.540564,-1.2425537,80.0
1112,-0.13426459,-1.6295907,0.924511,-0.8612915,-0.56180423,-1.2754761,80.0
1113,0.23148,-1.7429183,1.1152437,-0.8612915,-0.56180423,-1.2754761,80.0
1114,0.23148,-1.7429183,1.1152437,-0.6903076,-0.58410645,-1.2956543,80.0
1115,0.45959806,-1.6715807,1.1936353,-0.6903076,-0.58410645,-1.2956543,80.0
1116,0.45959806,-1.6715807,1.1936353,-0.5777344,-0.5957886,-1.3020264,80.0
1117,0.6692165,-1.5094814,1.1164562,-0.5777344,-0.5957886,-1.3020264,80.0
1118,0.6692165,-1.5094814,1.1164562,-0.4991455,-0.6265869,-1.2956543,80.0
1119,1.0145724,-1.4057419,1.0236826,-0.4991455,-0.6265869,-1.2956543,80.0
1120,1.0145724,-1.4057419,1.0236826,-0.41418457,-0.6244629,-1.2797241,80.0
1121,1.4740603,-1.3769374,1.0622323,-0.41418457,-0.6244629,-1.2797241,80.0
1122,1.4740603,-1.3769374,1.0622323,-0.36002198,-0.5798584,-1.2383057,80.0
1123,1.6970828,-1.2890377,1.1010431,-0.36002198,-0.5798584,-1.2383057,80.0
1124,1.6970828,-1.2890377,1.1010431,-0.50445557,-0.47365722,-1.1066163,80.0
1125,1.6269655,-1.170793,0.9261714,-0.50445557,-0.47365722,-1.1066163,80.0
1126,1.6269655,-1.170793,0.9261714,-0.6180908,-0.33665773,-0.8846558,80.0
1127,1.6209694,-1.0576673,0.5708933,-0.6180908,-0.33665773,-0.8846558,80.0
1128,1.6209694,-1.0576673,0.5708933,-0.71367186,-0.2516968,-0.60216063,80.0
1129,1.3651716,-0.91149044,0.3956306,-0.71367186,-0.2516968,-0.60216063,80.0
1130,1.3651716,-0.91149044,0.3956306,-0.6988037,-0.1901001,-0.39506838,80.0
1131,0.31181502,-0.8278861,0.34783995,-0.6988037,-0.1901001,-0.39506838,80.0
1132,0.31181502,-0.8278861,0.34783995,-0.0021240234,0.0010620117,0.2357666,80.0
1133,0.015296698,-0.6339519,0.2581792,-0.0021240234,0.0010620117,0.2357666,80.0
1134,0.015296698,-0.6339519,0.2581792,0.26656494,0.070092775,0.42268068,80.0
1135,0.90484,-0.46383882,-0.23542452,0.26656494,0.070092775,0.42268068,80.0
1136,0.90484,-0.46383882,-0.23542452,0.8442993,0.24638672,0.8421753,80.0
1137,0.90484,-0.46383882,-0.23542452,0.8442993,0.24638672,0.8421753,82.0
1138,1.3612621,-0.2746477,-0.3904271,0.8442993,0.24638672,0.8421753,82.0
1139,1.3612621,-0.2746477,-0.3904271,0.9494385,0.32178956,0.9547486,82.0
1140,2.1521323,0.07669306,-0.54740024,0.9494385,0.32178956,0.9547486,82.0
1141,2.1521323,0.07669306,-0.54740024,1.0736939,0.6000366,1.2860962,82.0
1142,1.6856463,0.38188672,-0.5491873,1.0736939,0.6000366,1.2860962,82.0
1143,1.6856463,0.38188672,-0.5491873,1.0375855,0.69986576,1.3986695,82.0
1144,0.46585083,1.1165812,-0.7620671,1.0375855,0.69986576,1.3986695,82.0
1145,0.46585083,1.1165812,-0.7620671,0.75721437,0.95793456,1.7746216,82.0
1146,-0.013720751,1.2961826,-0.894285,0.75721437,0.95793456,1.7746216,82.0
1147,-0.013720751,1.2961826,-0.894285,0.725354,1.0110352,1.906311,82.0
1148,-1.5000148,1.5400469,-1.2964461,0.725354,1.0110352,1.906311,82.0
1149,-1.5000148,1.5400469,-1.2964461,0.7062378,1.1321045,2.253589,82.0
1150,-1.5998654,1.5618715,-1.3121202,0.7062378,1.1321045,2.253589,82.0
1151,-1.5998654,1.5618715,-1.3121202,0.7391602,1.174585,2.362976,82.0
1152,-2.2542088,1.6078469,-1.4252212,0.7391602,1.174585,2.362976,82.0
1153,-2.2542088,1.6078469,-1.4252212,0.8262451,1.2776002,2.614673,82.0
1154,-1.8276347,1.6109846,-1.419718,0.8262451,1.2776002,2.614673,82.0
1155,-1.8276347,1.6109846,-1.419718,0.8517334,1.2988404,2.6592774,82.0
1156,-1.3579696,1.5608457,-1.6040605,0.8517334,1.2988404,2.6592774,82.0
1157,-1.3579696,1.5608457,-1.6040605,0.9653687,1.3370727,2.6645875,82.0
1158,-0.7926135,1.4946482,-1.565939,0.9653687,1.3370727,2.6645875,82.0
1159,-0.7926135,1.4946482,-1.565939,1.0142212,1.354065,2.6327271,82.0
1160,-0.30256003,1.3060946,-1.5544968,1.0142212,1.354065,2.6327271,82.0
1161,-0.30256003,1.3060946,-1.5544968,1.2181275,1.3880494,2.4638672,82.0
1162,-0.03632295,1.2067287,-1.4990175,1.2181275,1.3880494,2.4638672,82.0
1163,-0.03632295,1.2067287,-1.4990175,1.2372437,1.4029175,2.3778443,82.0
1164,0.030646235,1.1403708,-1.5129471,1.2372437,1.4029175,2.3778443,82.0
1165,0.030646235,1.1403708,-1.5129471,1.1289185,1.449646,2.0677369,82.0
1166,0.030646235,1.1403708,-1.5129471,1.0471436,1.453894,1.9402955,82.0
1167,0.2780326,1.0795696,-1.4724305,1.0471436,1.453894,1.9402955,82.0
1168,1.4518816,1.0853109,-1.7450953,1.0471436,1.453894,1.9402955,82.0
1169,1.4518816,1.0853109,-1.7450953,0.80394286,1.4570801,1.6429322,82.0
1170,1.4518816,1.0853109,-1.7450953,0.56605226,1.3891114,1.3073364,82.0
1171,2.4582949,0.74201584,-1.7068062,0.56605226,1.3891114,1.3073364,82.0
1172,2.4582949,0.74201584,-1.7068062,0.0637207,1.174585,0.72854006,82.0
1173,2.4350562,0.60058284,-1.5202913,0.0637207,1.174585,0.72854006,82.0
1174,2.4350562,0.60058284,-1.5202913,-0.13062744,1.0736939,0.5331299,82.0
1175,2.3917096,0.55314696,-1.3555274,-0.13062744,1.0736939,0.5331299,82.0
1176,2.3917096,0.55314696,-1.3555274,-0.5915405,0.8464233,0.14337158,82.0
1177,1.9018075,0.760352,-1.0796003,-0.5915405,0.8464233,0.14337158,82.0
1178,1.9018075,0.760352,-1.0796003,-1.1278565,0.6138428,-0.23895264,82.0
1179,1.3838849,1.004241,-0.8198447,-1.1278565,0.6138428,-0.23895264,82.0
1180,1.3838849,1.004241,-0.8198447,-1.6174439,0.29948732,-0.67331547,82.0
1181,0.741837,0.942431,-0.5605631,-1.6174439,0.29948732,-0.67331547,82.0
1182,0.741837,0.942431,-0.5605631,-1.7724975,-0.09451904,-0.9674927,82.0
1183,-0.5525875,0.45564175,0.23288488,-1.7724975,-0.09451904,-0.9674927,82.0
1184,-0.5525875,0.45564175,0.23288488,-1.1427246,-0.7327881,-1.2032593,82.0
1185,-0.7874925,0.28892756,0.7411175,-1.1427246,-0.7327881,-1.2032593,82.0
1186,-0.7874925,0.28892756,0.7411175,-0.8591675,-0.86978763,-1.26167,82.0
1187,-0.3064468,0.26898384,1.5784774,-0.8591675,-0.86978763,-1.26167,82.0
1188,-0.3064468,0.26898384,1.5784774,-0.31116945,-1.0768799,-1.363623,82.0
1189,1.078634,0.296376,1.8021374,-0.31116945,-1.0768799,-1.363623,82.0
1190,1.078634,0.296376,1.8021374,-0.10938721,-1.2064453,-1.449646,82.0
1191,2.0922165,0.1823523,1.3534899,-0.10938721,-1.2064453,-1.449646,82.0
1192,2.0922165,0.1823523,1.3534899,-0.2166504,-1.3328247,-1.5664673,82.0
1193,1.809308,-0.09180117,0.70334864,-0.2166504,-1.3328247,-1.5664673,82.0
1194,1.809308,-0.09180117,0.70334864,-0.34090576,-1.4910644,-1.6822265,82.0
1195,0.44720268,-0.42220807,0.33741045,-0.34090576,-1.4910644,-1.6822265,82.0
1196,0.44720268,-0.42220807,0.33741045,-0.40037844,-1.6524903,-1.8383423,82.0
1197,-1.2100115,-0.65254927,0.45893002,-0.40037844,-1.6524903,-1.8383423,82.0
1198,-1.2100115,-0.65254927,0.45893002,-0.35577393,-1.7693115,-1.9116211,82.0
1199,-2.5536659,-0.7425351,0.8898978,-0.35577393,-1.7693115,-1.9116211,82.0
1200,-2.5536659,-0.7425351,0.8898978,-0.15186767,-1.8139161,-1.9456055,82.0
1201,-3.3407843,-0.8125217,1.3735027,-0.15186767,-1.8139161,-1.9456055,82.0
1202,-3.3407843,-0.8125217,1.3735027,0.09133301,-1.7841797,-1.901001,82.0
1203,-3.79211,-0.8020072,1.7984972,0.09133301,-1.7841797,-1.901001,82.0
1204,-3.79211,-0.8020072,1.7984972,0.10620117,-1.63125,-1.7586914,82.0
1205,-3.347189,-0.8123455,1.6960609,0.10620117,-1.63125,-1.7586914,82.0
1206,-3.347189,-0.8123455,1.6960609,0.004248047,-1.5643433,-1.7140869,82.0
1207,-2.9200363,-0.7319809,1.482337,0.004248047,-1.5643433,-1.7140869,82.0
1208,-2.9200363,-0.7319809,1.482337,-0.22408448,-1.454956,-1.6450561,82.0
1209,-2.283966,-0.75020874,1.2483208,-0.22408448,-1.454956,-1.6450561,82.0
1210,-2.283966,-0.75020874,1.2483208,-0.40356445,-1.3901733,-1.629126,82.0
1211,-1.5226319,-0.9710777,1.2456782,-0.40356445,-1.3901733,-1.629126,82.0
1212,-1.5226319,-0.9710777,1.2456782,-0.43011475,-1.3487549,-1.6429322,82.0
1213,-0.78741705,-1.34466,1.5528657,-0.43011475,-1.3487549,-1.6429322,82.0
1214,-0.78741705,-1.34466,1.5528657,-0.35046387,-1.2871583,-1.6482422,82.0
1215,-0.24409378,-1.663106,1.9606276,-0.35046387,-1.2871583,-1.6482422,82.0
1216,-0.24409378,-1.663106,1.9606276,-0.270813,-1.1937011,-1.621692,82.0
1217,0.057593644,-1.7378945,2.1510706,-0.270813,-1.1937011,-1.621692,82.0
1218,0.057593644,-1.7378945,2.1510706,-0.28355715,-1.075818,-1.5675293,82.0
1219,0.336761,-1.6414387,2.009858,-0.28355715,-1.075818,-1.5675293,82.0
1220,0.336761,-1.6414387,2.009858,-0.3355957,-0.96218264,-1.5186768,82.0
1221,0.336761,-1.6414387,2.009858,-0.3058594,-0.8708496,-1.4581422,82.0
1222,0.7871212,-1.592338,1.7358649,-0.3058594,-0.8708496,-1.4581422,82.0
1223,2.499155,-2.3439388,2.0316486,-0.3058594,-0.8708496,-1.4581422,82.0
1224,2.499155,-2.3439388,2.0316486,-0.16567384,-0.75509036,-1.3784913,82.0
1225,2.499155,-2.3439388,2.0316486,-0.15505372,-0.59047854,-1.26167,82.0
1226,2.499155,-2.3439388,2.0316486,-0.34940186,-0.38763428,-1.0280274,82.0
1227,1.9993241,-1.8751512,1.625319,-0.34940186,-0.38763428,-1.0280274,82.0
1228,1.4187098,-1.7844226,0.79127073,-0.34940186,-0.38763428,-1.0280274,82.0
1229,1.4187098,-1.7844226,0.79127073,-0.4885254,-0.16992188,-0.6818115,82.0
1230,1.4187098,-1.7844226,0.79127073,-0.45560303,-0.021240234,-0.31860352,82.0
1231,1.4187098,-1.7844226,0.79127073,-0.56605226,0.22727051,0.12956543,82.0
1232,-0.049907684,-1.2575552,0.6024623,-0.56605226,0.22727051,0.12956543,82.0
1233,-0.049907684,-1.2575552,0.6024623,-0.56605226,0.22727051,0.12956543,82.0
1234,-0.049907684,-1.2575552,0.6024623,-0.033984374,0.4322388,0.540564,82.0
1235,-0.89585876,-0.8255143,0.16425753,-0.033984374,0.4322388,0.540564,82.0
1236,-0.89585876,-0.8255143,0.16425753,0.3345337,0.66588134,0.8379273,82.0
1237,0.20074463,-0.5914538,-0.5573268,0.3345337,0.66588134,0.8379273,82.0
1238,0.20074463,-0.5914538,-0.5573268,0.57561034,0.8889038,1.0301514,82.0
1239,2.2954469,-0.48069477,-1.1302364,0.57561034,0.8889038,1.0301514,82.0
1240,2.2954469,-0.48069477,-1.1302364,0.6701294,1.1076783,1.1926392,82.0
1241,3.7153492,-0.20632076,-1.3592427,0.6701294,1.1076783,1.1926392,82.0
1242,3.7153492,-0.20632076,-1.3592427,0.41737062,1.3891114,1.3986695,82.0
1243,3.7181292,0.356611,-1.44517,0.41737062,1.3891114,1.3986695,82.0
1244,3.7181292,0.356611,-1.44517,0.10089111,1.6089478,1.6705445,82.0
1245,2.616117,1.0632062,-1.5220541,0.10089111,1.6089478,1.6705445,82.0
1246,2.616117,1.0632062,-1.5220541,-0.38444826,1.7884277,2.0369384,82.0
1247,0.9918437,1.696903,-1.5517619,-0.38444826,1.7884277,2.0369384,82.0
1248,0.9918437,1.696903,-1.5517619,-0.68712157,1.8871949,2.4659913,82.0
1249,-0.65250874,2.1025786,-1.5493197,-0.68712157,1.8871949,2.4659913,82.0
1250,-0.65250874,2.1025786,-1.5493197,-0.72216797,1.905249,2.879114,82.0
1251,-1.8253763,2.2667308,-1.5837673,-0.72216797,1.905249,2.879114,82.0
1252,-1.8253763,2.2667308,-1.5837673,-0.62764895,1.8850708,3.2030275,82.0
1253,-2.2319808,2.2165341,-1.6856662,-0.62764895,1.8850708,3.2030275,82.0
1254,-2.2319808,2.2165341,-1.6856662,-0.41099855,1.8330323,3.4557862,82.0
1255,-2.020277,2.035471,-1.8236184,-0.41099855,1.8330323,3.4557862,82.0
1256,-2.020277,2.035471,-1.8236184,-0.10407715,1.7565674,3.5949097,82.0
1257,-1.4979234,1.8410844,-1.9218464,-0.10407715,1.7565674,3.5949097,82.0
1258,-1.4979234,1.8410844,-1.9218464,0.19647217,1.6801026,3.6140258,82.0
1259,-0.91823614,1.7187903,-1.9033952,0.19647217,1.6801026,3.6140258,82.0
1260,-0.91823614,1.7187903,-1.9033952,0.52038574,1.6025757,3.525879,82.0
1261,-0.41094398,1.6998127,-1.7784901,0.52038574,1.6025757,3.525879,82.0
1262,-0.41094398,1.6998127,-1.7784901,0.7476563,1.5622193,3.358081,82.0
1263,-0.031086802,1.7400748,-1.6227067,0.7476563,1.5622193,3.358081,82.0
1264,-0.031086802,1.7400748,-1.6227067,0.8612915,1.5484132,3.1456788,82.0
1265,0.2162683,1.7859807,-1.523202,0.8612915,1.5484132,3.1456788,82.0
1266,0.2162683,1.7859807,-1.523202,0.817749,1.5420411,2.8493774,82.0
1267,0.2162683,1.7859807,-1.523202,0.5734863,1.5218629,2.4744873,82.0
1268,0.43539262,1.8677373,-1.5034738,0.5734863,1.5218629,2.4744873,82.0
1269,1.72224,3.1827884,-2.2617023,0.5734863,1.5218629,2.4744873,82.0
1270,1.72224,3.1827884,-2.2617023,0.15186767,1.4634522,1.9817139,82.0
1271,1.72224,3.1827884,-2.2617023,-0.4630371,1.3731812,1.3094605,82.0
1272,1.72224,3.1827884,-2.2617023,-1.0152832,1.1639649,0.5533081,82.0
1273,1.8363369,2.3229032,-1.8596182,-1.0152832,1.1639649,0.5533081,82.0
1274,1.8363369,2.3229032,-1.8596182,-1.3232666,0.8666016,-0.17416993,82.0
1275,1.587563,1.0028293,-1.07445,-1.3232666,0.8666016,-0.17416993,82.0
1276,1.587563,1.0028293,-1.07445,-1.2393677,0.5256958,-0.79969484,82.0
1277,1.0831976,-0.13717747,-0.098842144,-1.2393677,0.5256958,-0.79969484,82.0
1278,1.0831976,-0.13717747,-0.098842144,-0.8793457,0.15930176,-1.3275146,82.0
1279,0.7807181,-0.45183182,0.66271114,-0.8793457,0.15930176,-1.3275146,82.0
1280,0.7807181,-0.45183182,0.66271114,-0.635083,-0.2081543,-1.8542725,82.0
1281,0.6439836,-0.11528635,0.98250055,-0.635083,-0.2081543,-1.8542725,82.0
1282,0.6439836,-0.11528635,0.98250055,-0.5256958,-0.56817627,-2.2440307,82.0
1283,0.324049,0.19834709,1.023586,-0.5256958,-0.56817627,-2.2440307,82.0
1284,0.324049,0.19834709,1.023586,-0.3525879,-0.9526245,-2.4978516,82.0
1285,0.029160976,0.15375829,1.1421599,-0.3525879,-0.9526245,-2.4978516,82.0
1286,0.029160976,0.15375829,1.1421599,-0.1359375,-1.2468017,-2.6624634,82.0
1287,0.2636485,-0.23946905,1.4009471,-0.1359375,-1.2468017,-2.6624634,82.0
1288,0.2636485,-0.23946905,1.4009471,0.27293703,-1.454956,-2.7814088,82.0
1289,1.0279841,-0.7697613,1.4634945,0.27293703,-1.454956,-2.7814088,82.0
1290,1.0279841,-0.7697613,1.4634945,0.6860596,-1.5972656,-2.8684938,82.0
1291,1.6012936,-1.1973276,1.074055,0.6860596,-1.5972656,-2.8684938,82.0
1292,1.6012936,-1.1973276,1.074055,0.8485474,-1.7342652,-2.9300904,82.0
1293,1.3555346,-1.4769418,0.48277926,0.8485474,-1.7342652,-2.9300904,82.0
1294,1.3555346,-1.4769418,0.48277926,0.901648,-1.8330323,-2.9661987,82.0
1295,0.379838,-1.6815047,0.1790092,0.901648,-1.8330323,-2.9661987,82.0
1296,0.379838,-1.6815047,0.1790092,0.90802,-1.8850708,-3.0341675,82.0
1297,-0.8942375,-1.7701795,0.36553407,0.90802,-1.8850708,-3.0341675,82.0
1298,-0.8942375,-1.7701795,0.36553407,0.95368654,-1.8850708,-2.9630127,82.0
1299,-2.1169891,-1.6672544,0.8974688,0.95368654,-1.8850708,-2.9630127,82.0
1300,-2.1169891,-1.6672544,0.8974688,0.9228882,-1.803296,-2.7750366,82.0
1301,-3.0014527,-1.4191917,1.394916,0.9228882,-1.803296,-2.7750366,82.0
1302,-3.0014527,-1.4191917,1.394916,0.813501,-1.6747925,-2.543518,82.0
1303,-3.3183253,-1.1953266,1.5833036,0.813501,-1.6747925,-2.543518,82.0
1304,-3.3183253,-1.1953266,1.5833036,0.5883545,-1.5558472,-2.2928834,82.0
1305,-3.0421848,-1.0896109,1.5439988,0.5883545,-1.5558472,-2.2928834,82.0
1306,-3.0421848,-1.0896109,1.5439988,0.21027832,-1.4188477,-2.0656128,82.0
1307,-2.4505446,-1.1216521,1.4976625,0.21027832,-1.4188477,-2.0656128,82.0
1308,-2.4505446,-1.1216521,1.4976625,-0.19328614,-1.2584839,-1.8617066,82.0
1309,-1.876195,-1.3156201,1.5178199,-0.19328614,-1.2584839,-1.8617066,82.0
1310,-1.876195,-1.3156201,1.5178199,-0.4088745,-1.1002442,-1.6726685,82.0
1311,-1.4669106,-1.5832578,1.5211163,-0.4088745,-1.1002442,-1.6726685,82.0
1312,-1.4669106,-1.5832578,1.5211163,-0.46516114,-0.96430665,-1.4772583,82.0
1313,-1.2200861,-1.7439623,1.490001,-0.46516114,-0.96430665,-1.4772583,82.0
1314,-1.2200861,-1.7439623,1.490001,-0.41843262,-0.8251831,-1.2829102,82.0
1315,-1.0723336,-1.7216591,1.4018885,-0.41843262,-0.8251831,-1.2829102,82.0
1316,-1.0723336,-1.7216591,1.4018885,-0.36108398,-0.68924564,-1.09281,82.0
1317,-0.84909,-1.5561725,1.2364522,-0.36108398,-0.68924564,-1.09281,82.0
1318,-0.84909,-1.5561725,1.2364522,-0.3451538,-0.5511841,-0.92076415,82.0
1319,-0.39916945,-1.3701699,1.0369401,-0.3451538,-0.5511841,-0.92076415,82.0
1320,-0.39916945,-1.3701699,1.0369401,-0.3451538,-0.5511841,-0.92076415,82.0
1321,-0.39916945,-1.3701699,1.0369401,-0.3536499,-0.41737062,-0.77314454,82.0
1322,0.34569132,-1.2608087,0.9137807,-0.3536499,-0.41737062,-0.77314454,82.0
1323,0.34569132,-1.2608087,0.9137807,-0.362146,-0.2824951,-0.66269535,82.0
1324,1.1195829,-1.2069502,0.8466618,-0.362146,-0.2824951,-0.66269535,82.0
1325,1.1195829,-1.2069502,0.8466618,-0.52675784,-0.11682129,-0.5501221,82.0
1326,1.1195829,-1.2069502,0.8466618,-0.8294312,0.04991455,-0.38444826,82.0
1327,1.3871825,-1.0775352,0.6826029,-0.8294312,0.04991455,-0.38444826,82.0
1328,1.1359422,-0.73584414,-0.040807366,-0.8294312,0.04991455,-0.38444826,82.0
1329,1.1359422,-0.73584414,-0.040807366,-1.0736939,0.19753419,-0.115759276,82.0
1330,1.1359422,-0.73584414,-0.040807366,-1.0651978,0.29630128,0.18266602,82.0
1331,1.1359422,-0.73584414,-0.040807366,-1.2563599,0.4364868,0.53525394,82.0
1332,0.55860734,-0.4136629,-0.21448183,-1.2563599,0.4364868,0.53525394,82.0
1333,0.55860734,-0.4136629,-0.21448183,-0.9303223,0.5129517,0.8581055,82.0
1334,0.21778429,-0.20879889,-0.49905133,-0.9303223,0.5129517,0.8581055,82.0
1335,0.21778429,-0.20879889,-0.49905133,-0.6531372,0.5968506,1.0864381,82.0
1336,0.84888566,-0.090830564,-0.9229959,-0.6531372,0.5968506,1.0864381,82.0
1337,0.84888566,-0.090830564,-0.9229959,-0.39188233,0.632959,1.2319336,82.0
1338,1.897651,0.005838871,-1.1956356,-0.39188233,0.632959,1.2319336,82.0
1339,1.897651,0.005838871,-1.1956356,-0.11151123,0.65207523,1.3137085,82.0
1340,2.3013606,0.19401455,-1.1589377,-0.11151123,0.65207523,1.3137085,82.0
1341,2.3013606,0.19401455,-1.1589377,0.118945315,0.6903076,1.4294678,82.0
1342,1.782165,0.5547354,-0.9395891,0.118945315,0.6903076,1.4294678,82.0
1343,1.782165,0.5547354,-0.9395891,0.21558838,0.7455322,1.5951416,82.0
1344,0.90480924,1.0389178,-0.7362049,0.21558838,0.7455322,1.5951416,82.0
1345,0.90480924,1.0389178,-0.7362049,0.16142578,0.8219971,1.8277222,82.0
1346,0.10930872,1.4896305,-0.68502104,0.16142578,0.8219971,1.8277222,82.0
1347,0.10930872,1.4896305,-0.68502104,0.16567384,0.87615967,2.1059692,82.0
1348,-0.597697,1.8184011,-0.8331243,0.16567384,0.87615967,2.1059692,82.0
1349,-0.597697,1.8184011,-0.8331243,0.23258057,0.8963379,2.3842163,82.0
1350,-1.270699,1.9894011,-1.1047319,0.23258057,0.8963379,2.3842163,82.0
1351,-1.270699,1.9894011,-1.1047319,0.40144044,0.8846558,2.6125488,82.0
1352,-1.6512395,1.985576,-1.3548427,0.40144044,0.8846558,2.6125488,82.0
1353,-1.6512395,1.985576,-1.3548427,0.56605226,0.8814697,2.7729127,82.0
1354,-1.5138383,1.859103,-1.4819698,0.56605226,0.8814697,2.7729127,82.0
1355,-1.5138383,1.859103,-1.4819698,0.7720825,0.89102787,2.8727417,82.0
1356,-1.0235828,1.7370017,-1.4987351,0.7720825,0.89102787,2.8727417,82.0
1357,-1.0235828,1.7370017,-1.4987351,0.8846558,0.905896,2.8738039,82.0
1358,-0.5407046,1.6804339,-1.453053,0.8846558,0.905896,2.8738039,82.0
1359,-0.5407046,1.6804339,-1.453053,0.904834,0.92501223,2.7856567,82.0
1360,-0.2738601,1.627831,-1.3774936,0.904834,0.92501223,2.7856567,82.0
1361,-0.2738601,1.627831,-1.3774936,0.90802,0.9451904,2.6348512,82.0
1362,-0.17762077,1.5390568,-1.2830739,0.90802,0.9451904,2.6348512,82.0
1363,-0.17762077,1.5390568,-1.2830739,0.8644776,0.9781128,2.450061,82.0
1364,-0.14245057,1.423677,-1.2076726,0.8644776,0.9781128,2.450061,82.0
1365,-0.14245057,1.423677,-1.2076726,0.7678345,1.0142212,2.2312868,82.0
1366,-0.036116242,1.3439343,-1.1837039,0.7678345,1.0142212,2.2312868,82.0
1367,-0.036116242,1.3439343,-1.1837039,0.55968016,1.0418335,1.9721558,82.0
1368,0.29450786,1.3246226,-1.1954494,0.55968016,1.0418335,1.9721558,82.0
1369,0.29450786,1.3246226,-1.1954494,0.24001466,1.0503296,1.6503662,82.0
1370,0.80630946,1.3335385,-1.2062619,0.24001466,1.0503296,1.6503662,82.0
1371,0.80630946,1.3335385,-1.2062619,-0.17629395,1.0131592,1.2468017,82.0
1372,0.80630946,1.3335385,-1.2062619,-0.5320679,0.9122681,0.7880127,82.0
1373,1.2269933,1.2796848,-1.1995676,-0.5320679,0.9122681,0.7880127,82.0
1374,1.8362699,1.1137259,-1.0353131,-0.5320679,0.9122681,0.7880127,82.0
1375,1.8362699,1.1137259,-1.0353131,-0.8485474,0.7104859,0.24744873,82.0
1376,1.8362699,1.1137259,-1.0353131,-0.996167,0.4343628,-0.3345337,82.0
1377,1.8362699,1.1137259,-1.0353131,-0.9143921,0.115759276,-0.86766356,82.0
1378,1.776694,0.42332935,-0.32866573,-0.9143921,0.115759276,-0.86766356,82.0
1379,1.776694,0.42332935,-0.32866573,-0.6924316,-0.21240234,-1.3232666,82.0
1380,1.3979056,-0.17593598,0.35113,-0.6924316,-0.21240234,-1.3232666,82.0
1381,1.3979056,-0.17593598,0.35113,-0.36851808,-0.5586182,-1.6726685,82.0
1382,0.67092466,-0.3810687,0.90546465,-0.36851808,-0.5586182,-1.6726685,82.0
1383,0.67092466,-0.3810687,0.90546465,0.008496094,-0.8708496,-1.8871949,82.0
1384,0.32439828,-0.26885653,1.3936467,0.008496094,-0.8708496,-1.8871949,82.0
1385,0.32439828,-0.26885653,1.3936467,0.39294434,-1.0726318,-1.9827759,82.0
1386,0.8767307,-0.16050768,1.682874,0.39294434,-1.0726318,-1.9827759,82.0
1387,0.8767307,-0.16050768,1.682874,0.70942384,-1.174585,-2.0061402,82.0
1388,1.7429252,-0.17818642,1.4981182,0.70942384,-1.174585,-2.0061402,82.0
1389,1.7429252,-0.17818642,1.4981182,0.71579593,-1.2138795,-1.9647217,82.0
1390,1.9540815,-0.3252883,0.8750694,0.71579593,-1.2138795,-1.9647217,82.0
1391,1.9540815,-0.3252883,0.8750694,0.6138428,-1.2797241,-1.9084351,82.0
1392,1.1539879,-0.58050656,0.25216722,0.6138428,-1.2797241,-1.9084351,82.0
1393,1.1539879,-0.58050656,0.25216722,0.47790527,-1.3296387,-1.8733886,82.0
1394,-0.31680012,-0.83690286,0.02049613,0.47790527,-1.3296387,-1.8733886,82.0
1395,-0.31680012,-0.83690286,0.02049613,0.42905274,-1.364685,-1.8436524,82.0
1396,-1.8639624,-0.93299866,0.20298147,0.42905274,-1.364685,-1.8436524,82.0
1397,-1.8639624,-0.93299866,0.20298147,0.4248047,-1.3423828,-1.719397,82.0
1398,-3.0056477,-0.8479614,0.5586376,0.4248047,-1.3423828,-1.719397,82.0
1399,-3.0056477,-0.8479614,0.5586376,0.41206056,-1.269104,-1.5792115,82.0
1400,-3.0056477,-0.8479614,0.5586376,0.2527588,-1.1544068,-1.4400879,82.0
1401,-3.5648577,-0.66811526,0.8359848,0.2527588,-1.1544068,-1.4400879,82.0
1402,-3.5617251,-0.5597974,0.8918103,0.2527588,-1.1544068,-1.4400879,82.0
1403,-3.5617251,-0.5597974,0.8918103,-0.033984374,-1.0407715,-1.3275146,82.0
1404,-3.0877347,-0.60572374,0.7884239,-0.033984374,-1.0407715,-1.3275146,82.0
1405,-3.0877347,-0.60572374,0.7884239,-0.3175415,-0.9685547,-1.2722901,82.0
1406,-2.3575046,-0.76460826,0.7295673,-0.3175415,-0.9685547,-1.2722901,82.0
1407,-2.3575046,-0.76460826,0.7295673,-0.6680054,-0.9154541,-1.2797241,82.0
1408,-1.6322806,-1.0507246,0.8727896,-0.6680054,-0.9154541,-1.2797241,82.0
1409,-1.6322806,-1.0507246,0.8727896,-0.8358032,-0.89421386,-1.3349488,82.0
1410,-1.0202655,-1.4559851,1.2079607,-0.8358032,-0.89421386,-1.3349488,82.0
1411,-1.0202655,-1.4559851,1.2079607,-0.7455322,-0.90058595,-1.3965454,82.0
1412,-0.48247212,-1.7936698,1.558898,-0.7455322,-0.90058595,-1.3965454,82.0
1413,-0.48247212,-1.7936698,1.558898,-0.53737795,-0.901648,-1.44646,82.0
1414,0.001278162,-1.9098016,1.7420037,-0.53737795,-0.901648,-1.44646,82.0
1415,0.001278162,-1.9098016,1.7420037,-0.33240968,-0.8995239,-1.4804443,82.0
1416,0.37328815,-1.7999971,1.7324823,-0.33240968,-0.8995239,-1.4804443,82.0
1417,0.37328815,-1.7999971,1.7324823,-0.21027832,-0.89846194,-1.5282348,82.0
1418,0.5923195,-1.6428664,1.6864985,-0.21027832,-0.89846194,-1.5282348,82.0
1419,0.5923195,-1.6428664,1.6864985,-0.0722168,-0.87615967,-1.5473511,82.0
1420,0.702713,-1.5870714,1.7502975,-0.0722168,-0.87615967,-1.5473511,82.0
1421,0.702713,-1.5870714,1.7502975,0.13806152,-0.7943848,-1.5048707,82.0
1422,0.9157715,-1.5877724,1.8186219,0.13806152,-0.7943848,-1.5048707,82.0
1423,0.9157715,-1.5877724,1.8186219,0.35577393,-0.6403931,-1.4103516,82.0
1424,1.1834106,-1.438211,1.596792,0.35577393,-0.6403931,-1.4103516,82.0
1425,1.1834106,-1.438211,1.596792,0.2793091,-0.4428589,-1.1947632,82.0
1426,1.2502809,-1.0874584,0.9943893,0.2793091,-0.4428589,-1.1947632,82.0
1427,1.2502809,-1.0874584,0.9943893,-0.11257324,-0.2166504,-0.8867798,82.0
1428,1.3555713,-0.68343115,0.2858801,-0.11257324,-0.2166504,-0.8867798,82.0
1429,1.3555713,-0.68343115,0.2858801,-0.4694092,-0.023364259,-0.54587406,82.0
1430,1.2210171,-0.3555827,-0.150666,-0.4694092,-0.023364259,-0.54587406,82.0
1431,1.2210171,-0.3555827,-0.150666,-0.8644776,0.21558838,-0.09239502,82.0
1432,0.40602517,-0.20404625,-0.22224188,-0.8644776,0.21558838,-0.09239502,82.0
1433,0.40602517,-0.20404625,-0.22224188,-0.4959595,0.35577393,0.3812622,82.0
1434,0.40602517,-0.20404625,-0.22224188,-0.4959595,0.35577393,0.3812622,82.0
1435,0.017312765,-0.1609788,-0.28978086,-0.4959595,0.35577393,0.3812622,82.0
1436,0.017312765,-0.1609788,-0.28978086,-0.21983643,0.51082766,0.72323,82.0
1437,0.7702223,-0.2507558,-0.58446145,-0.21983643,0.51082766,0.72323,82.0
1438,0.7702223,-0.2507558,-0.58446145,-0.03079834,0.65632325,0.9515625,82.0
1439,1.8145299,-0.4307804,-0.8073641,-0.03079834,0.65632325,0.9515625,82.0
1440,1.8145299,-0.4307804,-0.8073641,0.26975098,0.80606693,1.1618408,82.0
1441,2.2383916,-0.35674596,-0.8072194,0.26975098,0.80606693,1.1618408,82.0
1442,2.2383916,-0.35674596,-0.8072194,0.32178956,1.0067872,1.4092896,82.0
1443,1.8641264,0.10807252,-0.7933097,0.32178956,1.0067872,1.4092896,82.0
1444,1.8641264,0.10807252,-0.7933097,0.33878174,1.170337,1.6917847,82.0
1445,1.0441697,0.83383346,-0.9262738,0.33878174,1.170337,1.6917847,82.0
1446,1.0441697,0.83383346,-0.9262738,0.1539917,1.3222046,2.0252564,82.0
1447,0.15653944,1.5647962,-1.1856114,0.1539917,1.3222046,2.0252564,82.0
1448,0.15653944,1.5647962,-1.1856114,-0.012744141,1.4103516,2.3651001,82.0
1449,-0.6736088,2.0171447,-1.4643949,-0.012744141,1.4103516,2.3651001,82.0
1450,-0.6736088,2.0171447,-1.4643949,-0.0541626,1.4517701,2.6624634,82.0
1451,-1.3283403,2.1355176,-1.6523632,-0.0541626,1.4517701,2.6624634,82.0
1452,-1.3283403,2.1355176,-1.6523632,0.040356446,1.4602661,2.907788,82.0
1453,-1.6154311,2.0386631,-1.728934,0.040356446,1.4602661,2.907788,82.0
1454,-1.6154311,2.0386631,-1.728934,0.14868164,1.4581422,3.073462,82.0
1455,-1.5067126,1.8355081,-1.7293631,0.14868164,1.4581422,3.073462,82.0
1456,-1.5067126,1.8355081,-1.7293631,0.32178956,1.4443359,3.1573608,82.0
1457,-1.1324819,1.6357284,-1.6949896,0.32178956,1.4443359,3.1573608,82.0
1458,-1.1324819,1.6357284,-1.6949896,0.5097656,1.4315919,3.153113,82.0
1459,-0.72450364,1.5423352,-1.6687725,0.5097656,1.4315919,3.153113,82.0
1460,-0.72450364,1.5423352,-1.6687725,0.67225343,1.4284058,3.071338,82.0
1461,-0.44802332,1.5538633,-1.673348,0.67225343,1.4284058,3.071338,82.0
1462,-0.44802332,1.5538633,-1.673348,0.7678345,1.4209718,2.9152222,82.0
1463,-0.30923653,1.593347,-1.6797428,0.7678345,1.4209718,2.9152222,82.0
1464,-0.30923653,1.593347,-1.6797428,0.75509036,1.4177856,2.6921997,82.0
1465,-0.20938873,1.5773754,-1.6396685,0.75509036,1.4177856,2.6921997,82.0
1466,-0.20938873,1.5773754,-1.6396685,0.70092773,1.4039795,2.427759,82.0
1467,-0.029290795,1.4964828,-1.5418861,0.70092773,1.4039795,2.427759,82.0
1468,-0.029290795,1.4964828,-1.5418861,0.51826173,1.3933594,2.1325195,82.0
1469,0.29399896,1.3780823,-1.4148321,0.51826173,1.3933594,2.1325195,82.0
1470,0.29399896,1.3780823,-1.4148321,0.21452637,1.356189,1.7916138,82.0
1471,0.7198794,1.220459,-1.2993951,0.21452637,1.356189,1.7916138,82.0
1472,0.7198794,1.220459,-1.2993951,-0.14549561,1.2744141,1.4039795,82.0
1473,1.1802858,1.009253,-1.1682029,-0.14549561,1.2744141,1.4039795,82.0
1474,1.1802858,1.009253,-1.1682029,-0.5065796,1.1321045,0.9781128,82.0
1475,1.5794947,0.74132586,-0.9880533,-0.5065796,1.1321045,0.9781128,82.0
1476,1.5794947,0.74132586,-0.9880533,-0.7678345,0.90802,0.4980835,82.0
1477,1.7510104,0.41054106,-0.71749353,-0.7678345,0.90802,0.4980835,82.0
1478,1.7510104,0.41054106,-0.71749353,-0.9154541,0.61065674,-0.0010620117,82.0
1479,1.5138576,0.08067894,-0.31314278,-0.9154541,0.61065674,-0.0010620117,82.0
1480,1.5138576,0.08067894,-0.31314278,-0.87403566,0.26975098,-0.45454103,82.0
1481,1.0084004,-0.14917755,0.20842123,-0.87403566,0.26975098,-0.45454103,82.0
1482,1.0084004,-0.14917755,0.20842123,-0.6956177,-0.06159668,-0.85704345,82.0
1483,0.63762856,-0.17305279,0.69636345,-0.6956177,-0.06159668,-0.85704345,82.0
1484,0.63762856,-0.17305279,0.69636345,-0.5256958,-0.37382814,-1.2499878,82.0
1485,0.29428244,0.007822514,0.9588852,-0.5256958,-0.37382814,-1.2499878,82.0
1486,0.29428244,0.007822514,0.9588852,-0.5055176,-0.6531372,-1.5133667,82.0
1487,-0.23465466,0.21028638,1.0172548,-0.5055176,-0.6531372,-1.5133667,82.0
1488,-0.23465466,0.21028638,1.0172548,-0.40993652,-0.9611206,-1.7002808,82.0
1489,-0.52477217,0.20619297,1.1498389,-0.40993652,-0.9611206,-1.7002808,82.0
1490,-0.52477217,0.20619297,1.1498389,-0.17523193,-1.2138795,-1.8309082,82.0
1491,-0.10512042,-0.064879656,1.4420269,-0.17523193,-1.2138795,-1.8309082,82.0
1492,-0.10512042,-0.064879656,1.4420269,0.20921631,-1.3721192,-1.9636596,82.0
1493,0.86362076,-0.43193293,1.6198447,0.20921631,-1.3721192,-1.9636596,82.0
1494,0.86362076,-0.43193293,1.6198447,0.5065796,-1.4698242,-2.1080933,82.0
1495,1.5631256,-0.68603706,1.4060075,0.5065796,-1.4698242,-2.1080933,82.0
1496,1.5631256,-0.68603706,1.4060075,0.65632325,-1.5346069,-2.2429688,82.0
1497,1.3265138,-0.7811785,0.92245007,0.65632325,-1.5346069,-2.2429688,82.0
1498,1.3265138,-0.7811785,0.92245007,0.55968016,-1.5749635,-2.353418,82.0
1499,0.25288582,-0.81584835,0.5860679,0.55968016,-1.5749635,-2.353418,82.0
1500,0.25288582,-0.81584835,0.5860679,0.40356445,-1.5579712,-2.441565,82.0
1501,-1.129674,-0.8558159,0.65459657,0.40356445,-1.5579712,-2.441565,82.0
1502,-1.129674,-0.8558159,0.65459657,0.3069214,-1.4910644,-2.4235108,82.0
1503,-2.2790809,-0.8323455,0.97751033,0.3069214,-1.4910644,-2.4235108,82.0
1504,-2.2790809,-0.8323455,0.97751033,0.23151855,-1.3742431,-2.3130615,82.0
1505,-2.9635234,-0.70340085,1.2103652,0.23151855,-1.3742431,-2.3130615,82.0
1506,-2.9635234,-0.70340085,1.2103652,0.07752686,-1.2489258,-2.1367676,82.0
1507,-3.2033749,-0.56206155,1.1882995,0.07752686,-1.2489258,-2.1367676,82.0
1508,-3.2033749,-0.56206155,1.1882995,-0.19116211,-1.1214844,-1.9753418,82.0
1509,-3.0427291,-0.55227375,1.018059,-0.19116211,-1.1214844,-1.9753418,82.0
1510,-3.0427291,-0.55227375,1.018059,-0.49064943,-0.994043,-1.8521484,82.0
1511,-2.459928,-0.77023697,0.8584292,-0.49064943,-0.994043,-1.8521484,82.0
1512,-2.459928,-0.77023697,0.8584292,-0.68712157,-0.8814697,-1.7788696,82.0
1513,-1.5832866,-1.1391754,0.79976827,-0.68712157,-0.8814697,-1.7788696,82.0
1514,-1.5832866,-1.1391754,0.79976827,-0.8230591,-0.811377,-1.7416992,82.0
1515,-0.72671235,-1.5269654,0.89552754,-0.8230591,-0.811377,-1.7416992,82.0
1516,-0.72671235,-1.5269654,0.89552754,-0.8506714,-0.7434082,-1.7438233,82.0
1517,-0.14417505,-1.8462061,1.1010289,-0.8506714,-0.7434082,-1.7438233,82.0
1518,-0.14417505,-1.8462061,1.1010289,-0.8506714,-0.7434082,-1.7438233,81.0
1519,-0.14417505,-1.8462061,1.1010289,-0.7508423,-0.68499756,-1.7448853,81.0
1520,0.1423626,-2.0067744,1.2946659,-0.7508423,-0.68499756,-1.7448853,81.0
1521,0.1423626,-2.0067744,1.2946659,-0.60959476,-0.631897,-1.7268311,81.0
1522,0.2802841,-1.992712,1.3496244,-0.60959476,-0.631897,-1.7268311,81.0
1523,0.2802841,-1.992712,1.3496244,-0.47896728,-0.5798584,-1.6790406,81.0
1524,0.39828736,-1.8497117,1.2150023,-0.47896728,-0.5798584,-1.6790406,81.0
1525,0.39828736,-1.8497117,1.2150023,-0.37382814,-0.5331299,-1.5802735,81.0
1526,0.5528584,-1.7062953,0.9794848,-0.37382814,-0.5331299,-1.5802735,81.0
1527,0.5528584,-1.7062953,0.9794848,-0.2548828,-0.48215333,-1.442212,81.0
1528,0.5528584,-1.7062953,0.9794848,-0.078588866,-0.41206056,-1.2531738,81.0
1529,0.7814713,-1.6416842,0.78805566,-0.078588866,-0.41206056,-1.2531738,81.0
1530,1.4863099,-1.7694142,0.4143679,-0.078588866,-0.41206056,-1.2531738,81.0
1531,1.4863099,-1.7694142,0.4143679,-0.0541626,-0.3058594,-0.99935305,81.0
1532,1.4863099,-1.7694142,0.4143679,-0.16142578,-0.17841797,-0.6818115,81.0
1533,1.4863099,-1.7694142,0.4143679,-0.18054199,-0.06265869,-0.3355957,81.0
1534,1.5156958,-1.4576211,0.17398703,-0.18054199,-0.06265869,-0.3355957,81.0
1535,1.5156958,-1.4576211,0.17398703,-0.25913087,0.047790527,0.025488282,81.0
1536,1.0036577,-1.1018391,0.0792408,-0.25913087,0.047790527,0.025488282,81.0
1537,1.0036577,-1.1018391,0.0792408,0.014868164,0.12850343,0.37807617,81.0
1538,0.029049158,-0.7433367,0.0026993752,0.014868164,0.12850343,0.37807617,81.0
1539,0.029049158,-0.7433367,0.0026993752,0.29736328,0.2357666,0.6701294,81.0
1540,-0.51300335,-0.48945713,-0.28266716,0.29736328,0.2357666,0.6701294,81.0
1541,-0.51300335,-0.48945713,-0.28266716,0.61065674,0.31966552,0.8527954,81.0
1542,-0.18700182,-0.3834114,-0.69213724,0.61065674,0.31966552,0.8527954,81.0
1543,-0.18700182,-0.3834114,-0.69213724,0.8931519,0.4067505,0.96430665,81.0
1544,0.6017902,-0.2969513,-0.938097,0.8931519,0.4067505,0.96430665,81.0
1545,0.6017902,-0.2969513,-0.938097,1.1512207,0.5214478,1.0556396,81.0
1546,1.161669,-0.040637016,-1.0006119,1.1512207,0.5214478,1.0556396,81.0
1547,1.161669,-0.040637016,-1.0006119,1.1958252,0.6616333,1.183081,81.0
1548,1.1351213,0.4268775,-1.0526868,1.1958252,0.6616333,1.183081,81.0
1549,1.1351213,0.4268775,-1.0526868,1.0428956,0.81031495,1.3498169,81.0
1550,0.5998206,0.9553447,-1.1688462,1.0428956,0.81031495,1.3498169,81.0
1551,0.5998206,0.9553447,-1.1688462,0.7943848,0.93563235,1.5845215,81.0
1552,-0.23647642,1.4173763,-1.3208559,0.7943848,0.93563235,1.5845215,81.0
1553,-0.23647642,1.4173763,-1.3208559,0.52888185,1.0205933,1.8489624,81.0
1554,-1.1337001,1.7213645,-1.4463698,0.52888185,1.0205933,1.8489624,81.0
1555,-1.1337001,1.7213645,-1.4463698,0.39506838,1.0736939,2.1240234,81.0
1556,-1.7592794,1.8310833,-1.4969395,0.39506838,1.0736939,2.1240234,81.0
1557,-1.7592794,1.8310833,-1.4969395,0.38338622,1.1013062,2.357666,81.0
1558,-1.8010149,1.775853,-1.4457939,0.38338622,1.1013062,2.357666,81.0
1559,-1.8010149,1.775853,-1.4457939,0.42268068,1.1225464,2.526526,81.0
1560,-1.346,1.6013587,-1.3740423,0.42268068,1.1225464,2.526526,81.0
1561,-1.346,1.6013587,-1.3740423,0.53737795,1.1278565,2.616797,81.0
1562,-0.69080144,1.3913043,-1.3161039,0.53737795,1.1278565,2.616797,81.0
1563,-0.69080144,1.3913043,-1.3161039,0.7126099,1.1310425,2.6454713,81.0
1564,-0.06492144,1.2488711,-1.2709985,0.7126099,1.1310425,2.6454713,81.0
1565,-0.06492144,1.2488711,-1.2709985,0.81668705,1.1650269,2.613611,81.0
1566,0.40779185,1.2380861,-1.2833514,0.81668705,1.1650269,2.613611,81.0
1567,0.40779185,1.2380861,-1.2833514,0.8219971,1.2053833,2.524402,81.0
1568,0.71467346,1.3317164,-1.3180752,0.8219971,1.2053833,2.524402,81.0
1569,0.71467346,1.3317164,-1.3180752,0.7189819,1.2393677,2.3884645,81.0
1570,0.93317676,1.4361007,-1.2857468,0.7189819,1.2393677,2.3884645,81.0
1571,0.93317676,1.4361007,-1.2857468,0.52888185,1.263794,2.2196045,81.0
1572,1.1996542,1.4616858,-1.1951623,0.52888185,1.263794,2.2196045,81.0
1573,1.1996542,1.4616858,-1.1951623,0.23364258,1.2956543,2.0156982,81.0
1574,1.5894719,1.3615117,-1.1283832,0.23364258,1.2956543,2.0156982,81.0
1575,1.5894719,1.3615117,-1.1283832,-0.0722168,1.268042,1.81073,81.0
1576,2.055977,1.1916264,-1.092233,-0.0722168,1.268042,1.81073,81.0
1577,2.055977,1.1916264,-1.092233,-0.3695801,1.1809571,1.5664673,81.0
1578,2.420148,1.0493461,-1.017878,-0.3695801,1.1809571,1.5664673,81.0
1579,2.420148,1.0493461,-1.017878,-0.61065674,1.0067872,1.273352,81.0
1580,2.42147,1.0865717,-0.84128,-0.61065674,1.0067872,1.273352,81.0
1581,2.42147,1.0865717,-0.84128,-0.8952759,0.80181885,0.8782837,81.0
1582,1.8725643,1.1875558,-0.53560925,-0.8952759,0.80181885,0.8782837,81.0
1583,1.8725643,1.1875558,-0.53560925,-1.0343994,0.5692383,0.4970215,81.0
1584,1.0512619,1.0968952,-0.1437583,-1.0343994,0.5692383,0.4970215,81.0
1585,1.0512619,1.0968952,-0.1437583,-1.0046631,0.2782471,0.08602295,81.0
1586,0.26033354,0.8101945,0.22901201,-1.0046631,0.2782471,0.08602295,81.0
1587,0.26033354,0.8101945,0.22901201,-0.8857178,-0.03186035,-0.30479738,81.0
1588,-0.6352391,0.46967673,0.5647769,-0.8857178,-0.03186035,-0.30479738,81.0
1589,-0.6352391,0.46967673,0.5647769,-0.49489745,-0.40462646,-0.6223389,81.0
1590,-1.6329837,0.28016043,0.93276644,-0.49489745,-0.40462646,-0.6223389,81.0
1591,-1.6329837,0.28016043,0.93276644,-0.029736329,-0.7540283,-0.8666016,81.0
1592,-2.1292021,0.22730231,1.3430638,-0.029736329,-0.7540283,-0.8666016,81.0
1593,-2.1292021,0.22730231,1.3430638,0.544812,-0.98448485,-1.0598878,81.0
1594,-1.4203539,0.072662115,1.5957036,0.544812,-0.98448485,-1.0598878,81.0
1595,-1.4203539,0.072662115,1.5957036,0.9600586,-1.1204224,-1.2255615,81.0
1596,0.098629,-0.15950942,1.3740361,0.9600586,-1.1204224,-1.2255615,81.0
